scenario_id,mean_wind_speed,max_wind_speed,wind_velocity_x,wind_velocity_y,wind_velocity,wind_acceleration_x,wind_acceleration_y,wind_acceleration,wind_body_force_x,wind_body_force_y,wind_body_force,mean_wind_body_risk,mean_wind_gust_risk,mean_wind_risk_raw,min_thrust_margin_n,mean_abs_roll_deg,mean_abs_pitch_deg,mean_abs_vz,max_abs_vz,mean_tag_error,max_tag_error,stability_std_z,stability_std_vz,mean_imu_ang_vel,max_imu_ang_vel,mean_imu_lin_acc,max_imu_lin_acc,wind_speed_cmd,wind_dir_cmd,hover_height_cmd,gt_safe_to_land,label,success,onto_wind_condition,onto_gust,onto_temporal_pattern,onto_drone_state,onto_tag_observation
1,NaN,NaN,NaN,NaN,NaN,0,0,0,NaN,NaN,NaN,NaN,NaN,NaN,NaN,NaN,NaN,NaN,NaN,NaN,NaN,NaN,NaN,NaN,NaN,NaN,NaN,2.0716688985117,-127.374480982322,2.31472368639318,unstable,unstable,0,0,0,0,1,1
2,2.31941209952037,3,-1.40286320406212,-1.80841849545338,2.31941209952037,0.0112516770526886,0.00390799972209158,0.0119110326305433,-0.111868131051876,-0.17673338820987,0.21855415809204,0.0141081275333486,0.229264653815758,0.230993192464023,15.4409840194223,1.83637524780676,1.65447135622799,0.0184931366245927,0.0519594090674751,0.118735271601357,0.403165525333267,0.000395208222692758,0.00586101651758793,NaN,NaN,NaN,NaN,2.42882567996652,-126.095851442396,2.10387515459019,stable,stable,1,0.664708531698236,0.155315966923517,0.0954965069867533,0.963325351227431,0.347228768177175
3,1.73891884828136,2.6317994594574,-1.04913216149363,-1.35934788952352,1.73891884828136,-0.0151567379284667,0.00883547546952299,0.017544011268942,-0.0633881755204694,-0.102553813804343,0.1258939699908,0.00811919925259891,0.170136527691493,0.172515348396082,15.4417028380829,0.819547195851054,0.807697155370905,0.174643975067534,0.240275899872403,0.132902408546914,0.391524313500183,0.156616592717097,0.0400532703528767,NaN,NaN,NaN,NaN,1.87319628751653,-127.297520073929,1.56923292103871,stable,stable,1,0.498214762554245,0.204114539580581,0.206640923872145,0.899892521135203,0.340932262868038
4,2.42287659259578,3,-0.695378324404503,-2.28748659708529,2.42287659259578,-0.0252832916179129,-0.0163946612873055,0.0301335320492288,-0.0308662537251027,-0.270503309744608,0.273891360389823,0.017675633564869,0.229549674798755,0.231182603068487,15.4091189682924,1.54934836817025,1.15363566299216,0.0579293241703369,0.240302125578161,0.116860787823652,0.469701146231383,0.00189199127364745,0.0112717177123668,NaN,NaN,NaN,NaN,2.46779887999601,-105.553838771394,1.68491561280515,unstable,unstable,0,0.692336945305905,0.135377247541642,0.0861660399763557,0.949797606241413,0.348061872078377
5,1.78545845338028,2.63854789733887,-1.01174745411074,-1.4502111884298,1.78545845338028,-0.00138352639630454,-0.00146264472246261,0.00201332433388641,-0.0569385675831834,-0.112818540686056,0.130021952428075,0.00838535897073362,0.132566502292375,0.134873652700279,15.4450975788278,0.734086047398026,0.861135072963584,0.174713298650705,0.240234023454125,0.147333304031593,0.458984004877596,0.159423790970821,0.0356831482453292,NaN,NaN,NaN,NaN,1.88084050141636,-125.058018224367,1.51532678920328,stable,stable,1,0.503096984774797,0.192314234351895,0.199219249091419,0.900109470443235,0.334518531541514
6,1.88832583467166,2.7774817943573,-1.03924942952604,-1.5625712534551,1.88832583467166,0.00593858788780645,0.0029949429149747,0.00665105323728194,-0.0586831751094071,-0.12797597003692,0.143140539527697,0.00924997521739027,0.131632901914441,0.132753348276866,15.3309696003149,2.5103994352731,1.97453655520958,0.0258995721633665,0.070317991371961,0.151876385755897,0.480953544521424,0.000404237928735018,0.00699699891072946,NaN,NaN,NaN,NaN,1.9161886291726,-122.783489357006,1.82630072394233,stable,stable,1,0.530104225567815,0.201279450689438,0.123491694955588,0.951811431135953,0.93249938410849
7,1.88178211623344,2.61684966087341,-1.0407057078494,-1.55337066500575,1.88178211623344,-0.0124183140903204,-0.00209849652109984,0.012594372254897,-0.0590706936798184,-0.128435835885273,0.1438560968001,0.00927787046123556,0.138818630665249,0.141330325542076,15.4628553074589,0.8853807529572,0.845276529106182,0.17396540979071,0.240247363767824,0.148686282180655,0.418375922699135,0.159508433434079,0.0343804823252999,NaN,NaN,NaN,NaN,1.96867067391655,-123.586570068552,2.39177121997724,stable,stable,1,0.530074629437332,0.167699165790725,0.184014130129084,0.899419273602718,0.333917207919709
8,1.89465570363446,2.53213238716125,-1.08316242764983,-1.54098172082898,1.89465570363446,-0.0141272356537556,0.00166216263885178,0.0142246817839534,-0.0631270781975147,-0.125922262605112,0.14333849811737,0.00924855922270452,0.126579719486102,0.12909116372542,15.377056749866,1.05994829434589,1.20827142064297,0.173470040007294,0.240227511324668,0.141325889903824,0.520788720883041,0.159469362438799,0.0357099114068729,NaN,NaN,NaN,NaN,1.96461919299708,-125.030810267647,2.3991206678142,stable,stable,1,0.531059753714272,0.146040112120588,0.171484761797147,0.895443253664298,0.337188493376078
9,2.0907260620594,3,-1.02094937108612,-1.77208222696706,2.0907260620594,0.00186097799830994,-0.0249046787470453,0.0249741118481464,-0.0648650822208572,-0.186479885242093,0.204710557910404,0.0132159238291529,0.152109750887514,0.153528806594815,15.4379949897047,1.92856534307013,1.78033836726735,0.0247047279262184,0.0792367430639209,0.125769582300416,0.365864433911447,0.0101969474915902,0.00662174091042205,NaN,NaN,NaN,NaN,2.98365709536118,-106.900241715489,2.4129636618161,stable,stable,1,0.58823271120147,0.209165223208795,0.132439016373814,0.958506249741382,0.344102407866482
10,1.84467059462818,2.55727529525757,-1.09870586223783,-1.46923043436831,1.84467059462818,0.00172743486627512,0.00673427904974542,0.00695230505207179,-0.0651553002599893,-0.114663829321067,0.134320676436734,0.00866408172892447,0.119975911432645,0.122454322165469,15.4544278130011,0.877052689599352,0.986580790278674,0.170763406898931,0.24027403974574,0.15744427429864,0.384209768014467,0.159439977979018,0.0384727676041936,NaN,NaN,NaN,NaN,1.92399487038037,-126.353098118705,2.02985105902512,stable,stable,1,0.516403023000608,0.161610646901159,0.181818697886431,0.899975462065779,0.330024766978382
11,1.86128273275163,2.65239310264587,-1.13587820309757,-1.46144909599042,1.86128273275163,0.00607227090235464,-0.0010766004235675,0.00616697189742328,-0.0691217550688151,-0.114072593376878,0.135940683617817,0.00877169211356048,0.126763505696671,0.129118406205783,15.3770212394625,1.14993200707744,1.28732405964272,0.171316035211816,0.240248928935736,0.151406021351154,0.502101092993864,0.156609015582723,0.0441109221737438,NaN,NaN,NaN,NaN,1.90759543141243,-127.844704273722,2.05532557046579,stable,stable,1,0.522165743308259,0.179130444740732,0.193122609106001,0.895192113298434,0.332708434955043
12,2.85672224084536,3,-1.333126389203,-2.52209851846459,2.85672224084536,-4.76297596216964e-17,-2.18852300978114e-17,5.24171469850729e-17,-0.0925223868756324,-0.324510111468044,0.337776761587985,0.0217946729466785,0.0393567019470446,0.0573055882874185,15.4532292437794,1.72052687395366,1.49479268321576,0.033739884889558,0.0498785324304615,0.166685648080599,0.392956063192023,1.36092182444769e-15,7.08813450233172e-18,NaN,NaN,NaN,NaN,3,-106.299635778902,1.80662377543185,stable,stable,1,0.773253715216247,0.0322374958097935,0.0193424974858767,0.957866832463176,0.325917489741956
13,1.98225398584344,2.74819755554199,-1.08373718167723,-1.64344089270265,1.98225398584344,0.00313780976528945,0.0329206011384894,0.0330698023798548,-0.0654322083394752,-0.144580844241705,0.161486429129463,0.0104190997418264,0.138234579515224,0.140637551359803,15.4399659422903,1.07684105173996,1.16316282477259,0.148538097698751,0.240265743447239,0.123750619550906,0.344303684453376,0.155712138058692,0.0403475815477274,NaN,NaN,NaN,NaN,2.02726066309477,-121.319262228342,1.8660829177867,stable,stable,1,0.556728573163544,0.178400100285148,0.190917302699378,0.908130920692312,0.344999724644042
14,2.42652135340284,3,-1.16450853887142,-2.02120586566671,2.42652135340284,0.0766291195278512,-0.0565016798099955,0.0952074670441607,-0.0965183179965743,-0.205468716719688,0.240146316792905,0.0155309738455656,0.245841107971004,0.247447688343264,13.6991397329373,1.59066201760894,1.79004317965958,0.0884102217479359,5.27882804470561,0.120198424683032,0.407794793016401,0.00893453473327321,0.0531149035253017,NaN,NaN,NaN,NaN,2.96211416560549,-104.652706865072,1.63620074709177,unstable,unstable,0,0.696561898576077,0.14648739777579,0.11117785336421,0.929232205433208,0.346578477918653
15,1.6273518136785,2.71500563621521,-0.950193887710527,-1.29757084495326,1.6273518136785,-0.0425602382803891,0.0262585419273876,0.0500088482834375,-0.05481361662319,-0.101828558985105,0.120099093117038,0.0077448813141954,0.181393220855803,0.182987328378182,15.4735607982119,0.646224902183537,0.820318981312629,0.164852262235605,0.240474628906133,0.153301674366028,0.402205217757532,0.156841600969189,0.0398472588125791,NaN,NaN,NaN,NaN,1.78867162897179,-121.8764556945,2.01622285358365,stable,stable,1,0.470557949323236,0.253890398922723,0.236531529857646,0.906051024083299,0.331865922503988
16,2.11720778591258,3,-0.854436082496849,-1.89171638843053,2.11720778591258,-0.00119317563071614,-0.0109489643797222,0.0110137863187081,-0.0457454970969423,-0.203075340585657,0.211931526294395,0.0136724560613446,0.191804140365949,0.192838947468237,15.4478900987372,1.12563040969416,1.16047089415293,0.0255865128477544,0.0443446144248026,0.113916961985093,0.431364716095168,0.0154187108089925,0.00762546213006075,NaN,NaN,NaN,NaN,1.79698325918466,-123.928221238646,2.04994882316995,stable,stable,1,0.603156532403669,0.200647442328099,0.130014121076434,0.969244519045896,0.349370239117736
17,1.84899078349809,2.52332162857056,-1.02983396500649,-1.52083917662834,1.84899078349809,-0.0457035329977468,0.00380271497468656,0.0458614606140585,-0.0579816981267105,-0.122718993982431,0.138194236844971,0.00891475642431946,0.135941857569823,0.138205524102019,15.4225355008913,1.00916729439589,1.05319675697699,0.176451991637464,0.240227400648812,0.155685512887243,0.437718914121623,0.156733387508013,0.0411288016096356,NaN,NaN,NaN,NaN,1.90606506718967,-122.683382350962,1.56615561878147,stable,stable,1,0.520705313753229,0.160132374587215,0.180694635947273,0.895569715206195,0.330806438716781
18,1.89275854953568,2.67540431022644,-1.03217688890055,-1.56842576600412,1.89275854953568,0.0109051754394205,-0.00393100187054176,0.011592050166849,-0.0578096106771994,-0.129450039800195,0.1448133122975,0.00935586150330881,0.135931055435836,0.136959205386424,13.9074418063267,1.42909462354394,1.06145566800127,0.0979423941640514,5.0585237779681,0.0872866622442276,0.462342800036195,0.0171899923289307,0.252671707040549,NaN,NaN,NaN,NaN,1.87952489310621,-124.36494621675,1.98992297097645,unstable,unstable,0,0.532127454286798,0.178220505352678,0.20645292054426,0.931460193484405,0.361205927891454
19,2.45403215487798,3,-0.813203787884177,-2.27392231486144,2.45403215487798,0.00618860703444724,0.00170805330195541,0.0064199924539777,-0.0417340305075272,-0.277311591226341,0.283475813484907,0.018287245444251,0.197342864488275,0.198830738624666,15.4673489565198,1.32902677602219,0.991511971197499,0.0212749243054097,0.207068647592744,0.0778446417419017,0.178576013961652,0.00265288276809783,0.00588929596069129,NaN,NaN,NaN,NaN,3,-106.031594526481,2.20652966706199,stable,stable,1,0.694174722359061,0.124019763769017,0.0777324794369778,0.971129733404855,0.965402381448044
20,1.84947384622964,2.80035901069641,-1.00493896306898,-1.53425364140537,1.84947384622964,0.0229337927088852,0.00601824370832534,0.0237102953449955,-0.0574850701886898,-0.129918957048079,0.145318381025031,0.00937653705706223,0.129253791604923,0.13115480087919,15.3569373617147,1.23602597696822,1.23407192576171,0.147197669396065,0.240201028590292,0.156849768976952,0.499195484511407,0.156061726929333,0.0423138123405415,NaN,NaN,NaN,NaN,1.95533603544456,-121.682915799118,1.77303905830555,stable,stable,1,0.519423985837075,0.218296049484939,0.215725238066217,0.906993253209089,0.330288991565799
21,2.55257457403597,3,-0.828210165106183,-2.37599413946872,2.55257457403597,0.00480551666813459,0.0192390457479906,0.0198301253586808,-0.0439338106844766,-0.296938507582399,0.303000556643979,0.0195769097478708,0.200199266781733,0.201875049456239,13.952756913454,2.00752838142819,1.72346742947237,0.0896150170714915,4.60623042401193,0.124064348343565,0.461871558473601,0.0170906950918393,0.211648570313486,NaN,NaN,NaN,NaN,2.01006102178809,-122.843348050567,2.09029976077385,unstable,unstable,0,0.721061562967507,0.104306243824331,0.147142727257492,0.925877524378607,0.344860289625082
22,2.62069606463114,3,-0.738424253474569,-2.48031413452283,2.62069606463114,0.00660251948035753,0.00270177973759607,0.00713392439257562,-0.0374728537371042,-0.32078118751806,0.32480387005297,0.0209493038162162,0.207647238449311,0.210128348286155,15.4708169521978,1.1189368951483,0.748847335692754,0.0440305140934465,0.14211220080886,0.0879593027590197,0.180069751235654,0.00230538989166978,0.00586355582870799,NaN,NaN,NaN,NaN,3,-105.373889448931,1.50185153564563,stable,stable,1,0.740877953558869,0.0866512715966314,0.05514758280714,0.96330929542524,0.360906976551547
23,1.51858262775997,2.52437329292297,-0.880245509274652,-1.21726492843555,1.51858262775997,0.0547481819133349,-0.00793266876397575,0.0553198938586704,-0.0505257053577402,-0.0928987988520919,0.109265432043895,0.00704984866018141,0.152671731977495,0.153475197312483,15.3970268785793,1.14300614663522,1.34542280950508,0.144485287654148,0.240243401757461,0.1441560210932,0.50598947581015,0.156720431281896,0.0421876932662459,NaN,NaN,NaN,NaN,1.75191981509009,-118.497538474994,2.06665430542654,stable,stable,1,0.435650406865154,0.236444880202433,0.22686143250518,0.908205414374681,0.335930657291911
24,2.68866378185796,3,-0.700135351706945,-2.55789711279043,2.68866378185796,0.0295626627937873,-0.0199507472643023,0.0356648755481249,-0.0375314764446101,-0.330138043508168,0.334347772202792,0.0216019818728666,0.197220609118892,0.19957125912369,13.714220935159,1.56485278649223,1.17716992008153,0.0877481736514174,4.77955543613226,0.103378201593326,0.383932190520795,0.00127570488625635,0.186358614414932,NaN,NaN,NaN,NaN,3,-102.185830974197,1.5,unstable,unstable,0,0.756891260320193,0.0765892095991157,0.114287274587074,0.934581449051212,0.354054132625188
25,1.67813151572124,2.62892460823059,-0.936927268938762,-1.37591689206672,1.67813151572124,0.128839326987223,0.119081329106045,0.175442113302886,-0.0491161206610898,-0.102942618600749,0.11651531658142,0.00751388849268323,0.126089044871035,0.129680235694502,15.4743820707092,0.722685116105985,0.682107140484802,0.134284808514151,0.239865630737727,0.228846363822757,0.270818352330761,0.158681621310161,0.0388542352756119,NaN,NaN,NaN,NaN,1.79680657025774,-122.144595008979,1.7912560243154,stable,stable,1,0.473437784664565,0.246092833253466,0.232309677806313,0.921819942298283,0.298290504967664
26,2.32213374416033,3,-0.84397676765786,-2.11527604948595,2.32213374416033,0.00712533097032594,0.00242222854754954,0.00752579115929016,-0.0445761403314807,-0.244819688727092,0.2529593475532,0.016334753701501,0.172554381412644,0.173644610935738,15.414111749716,1.88112459158773,2.11681139897642,0.0205197381231098,0.0680853475709915,0.1338325422442,0.464917740952345,0.00652848575860293,0.00617816745842673,NaN,NaN,NaN,NaN,1.89015622586425,-123.159855511628,2.42916909009281,stable,stable,1,0.65396458729657,0.153899635943128,0.0974879371404413,0.95832777672687,0.340518870113689
27,1.52720747205424,2.65080332756042,-0.804928478812843,-1.27919682168692,1.52720747205424,0.0305860424493538,-0.043768151509655,0.0533962272008593,-0.0415359573367425,-0.0978418224613691,0.109136919954184,0.00703921345934643,0.173965087722338,0.17542742015418,15.4593807188037,0.802604306211686,0.76829097416607,0.126006232022697,0.240217440904124,0.101590097378378,0.313492893025183,0.156726987300412,0.0421039095864821,NaN,NaN,NaN,NaN,1.77620387229689,-117.832865156267,1.59302078395823,stable,stable,1,0.442340809911967,0.262598375809049,0.242525976862515,0.924654135357112,0.35484884560961
28,1.78980790024124,2.63254046440125,-0.970438403568289,-1.47551374617992,1.78980790024124,0.0169724395334987,-0.0161161125847357,0.0234049735860168,-0.0535060996493432,-0.117788159222066,0.133990077549426,0.00866358130889869,0.169291919575898,0.170177428284234,13.7647070329079,1.90173035394671,1.63304590602777,0.0921763577753831,5.0971219873376,0.113654172380051,0.476496591383798,0.02273592876125,0.264102797724992,NaN,NaN,NaN,NaN,1.77693740749085,-123.63065316624,2.18435478849481,unstable,unstable,0,0.511317592387843,0.193905738760105,0.222485681474192,0.926138579069652,0.349487034497755
29,2.10345314741135,3,-0.846919171064549,-1.86693490189832,2.10345314741135,0.0134536974968175,-0.0176193159204203,0.0221684972390879,-0.0444460179823179,-0.192442842310866,0.202926272550587,0.0130872007867278,0.145119104347431,0.146624026672442,15.4582454025837,1.03191780745678,0.607397451486137,0.0353057829430525,0.151243039431848,0.0721545451319901,0.183088541434513,0.00389786019840795,0.0124943152022967,NaN,NaN,NaN,NaN,3,-100.208461528465,1.72391588948071,stable,stable,1,0.590245644644181,0.20578726632628,0.129748129452461,0.969466774351065,0.367931313274671
30,1.82231015446542,2.59137630462646,-0.940361874638974,-1.54872083368985,1.82231015446542,-0.00603174664218631,0.0153938968831828,0.0165334215698261,-0.0484805069102809,-0.12914046853598,0.139724561242966,0.00901513340183419,0.0899547279109766,0.0917443648295416,15.4086326347042,1.18407343971377,1.34651304034611,0.148896246824692,0.240109734649412,0.165858130146066,0.497509487791232,0.155863097699311,0.0425402175383996,NaN,NaN,NaN,NaN,1.90894849737311,-119.745808657761,1.96799532727309,stable,stable,1,0.504298247490021,0.176071011074036,0.190384264524746,0.905668697101469,0.326285275490637
31,2.43363400021704,3,-0.798849128150705,-2.25670947978074,2.43363400021704,0.00743182936542211,0.0227704527275265,0.0239525699066566,-0.0408617699133205,-0.273292402170518,0.279354254491194,0.0180668550052704,0.187639304355436,0.188835013619553,12.1146443425525,1.97849152164181,1.25227759426833,0.0953225773632601,3.91980050474401,0.120741254082161,0.437768122382462,0.0226911334401503,0.329217938931461,NaN,NaN,NaN,NaN,1.95935225919259,-119.13516242978,1.8832452065596,unstable,unstable,0,0.686736069448455,0.131823654434053,0.208894755012949,0.926954096836219,0.346337220407928
32,2.09830966552099,3,-0.889104401592387,-1.85955382587481,2.09830966552099,0.00410588269747445,0.00767439098295424,0.00870370896139511,-0.0456552192145735,-0.188041404188939,0.197408090186176,0.0127407939450298,0.12261564814916,0.124188046501712,15.3869666904395,1.68534789464159,1.41083455001246,0.0291592624368661,0.105240236560886,0.091256283486183,0.323319271478021,0.00468285011355718,0.00570823489079698,NaN,NaN,NaN,NaN,3,-103.01941117063,2.17762878562052,stable,stable,1,0.584386853439272,0.204476005234034,0.126842591636029,0.961093221002142,0.359441651783919
33,1.58411001703127,2.52479791641235,-0.761455174307785,-1.37113390326112,1.58411001703127,0.0238625911035256,0.0278642566223059,0.0366856927328321,-0.0392127804124064,-0.117528518193814,0.12630633775586,0.00814869959834463,0.176207530457201,0.177189329615596,15.4378944048956,1.13141382730888,1.08615657629226,0.140641806724349,0.240229704014706,0.150386483882658,0.455953331907201,0.156819225737537,0.0426942091445539,NaN,NaN,NaN,NaN,1.93692079365451,-115.089103932968,2.01254399450382,stable,stable,1,0.457867203798124,0.218380487695097,0.216250893239842,0.91225532918096,0.333161562718819
34,2.68949940045232,3,-0.47574866077848,-2.61017726108985,2.68949940045232,0.0288579983293613,-0.0170907384255337,0.0335391921117285,-0.0233911185296031,-0.344330611730014,0.346138764221833,0.0223602909367007,0.203944714836291,0.206306079193963,14.5424737090057,1.88117227344232,1.65543208789419,0.0868417837416185,5.17082332893627,0.113371681291241,0.39250927550891,0.00146127486131289,0.186466501403128,NaN,NaN,NaN,NaN,3,-101.157933097739,2.33221949870925,unstable,unstable,0,0.758461055959411,0.0760114867853785,0.114062348075372,0.928791502432975,0.349612586092782
35,1.78508178665213,2.80592918395996,-0.808389792485064,-1.56356536967925,1.78508178665213,-0.0638390069292748,-0.000664358353288586,0.0638424637505288,-0.0398591113907564,-0.133347646594516,0.14220037255579,0.00917209699184624,0.172930258433171,0.175186301064384,15.4328385822207,0.941628734456861,0.940507757381398,0.178836487043697,0.240212155971145,0.141576722763024,0.439330201808298,0.15905460453485,0.0384580614308593,NaN,NaN,NaN,NaN,1.86137587595629,-115.841095627455,2.16670205389888,stable,stable,1,0.511059069986779,0.241395116081858,0.229512754609159,0.895793541185136,0.337077012105322
36,2.27764472206434,3,-0.753950817835008,-2.10558175338881,2.27764472206434,0.00032085095665917,0.032686479187756,0.0326880538886609,-0.0370381165453047,-0.237503259976554,0.243427067403785,0.0157230811840907,0.175707731402572,0.178252451602095,15.2713391350825,2.03158350823934,1.90499085490257,0.0274448432989084,0.0831366052265636,0.131633899044857,0.519941475324775,0.00132122861877366,0.00725535504352856,NaN,NaN,NaN,NaN,2.00134863438598,-116.022448666907,2.28328916487135,stable,stable,1,0.643022416204242,0.168522747415112,0.104339172093442,0.955347351211574,0.341496044868952
37,1.57119059524352,2.58495664596558,-0.688769839471643,-1.3927401510865,1.57119059524352,-0.039897613756321,-0.0648904455425137,0.0761747301022755,-0.0305629756026452,-0.116077881067618,0.122302547148591,0.00788749459089459,0.17738490493706,0.178514730166468,15.4329450747481,0.712268948807758,0.576568272650826,0.180737633120222,1.51279800822771,0.182976457253693,0.422167585047553,0.0207198382099769,0.28024301108773,NaN,NaN,NaN,NaN,1.84847057739295,-116.145839673518,2.46172899391904,unstable,unstable,0,0.454687104764899,0.242062728597879,0.256353003627387,0.899504605271286,0.31867713010947
38,1.85338491262016,2.65344977378845,-0.854846253547796,-1.61488529956515,1.85338491262016,0.0301905688633227,-0.00608726453349885,0.0307981369207915,-0.0442232957215826,-0.142337826279772,0.1530508089097,0.00988441389377024,0.13082084975774,0.131888979769256,13.5018676017109,1.63675366882289,0.989763553063098,0.101509401083501,4.84619077627135,0.112421100747175,0.338711718188798,0.0222959151856614,0.237152704527953,NaN,NaN,NaN,NaN,1.9993932608471,-112.620106358339,2.00049009574848,unstable,unstable,0,0.52061377265256,0.185660918865012,0.207543194058153,0.928608378429145,0.350035066334589
39,2.34116644183795,3,-0.713776902318148,-2.19219841184898,2.34116644183795,0.0152914094201325,0.0486937778293359,0.0510383307068995,-0.0335770334751085,-0.261762182920319,0.265817903104875,0.01714840383078,0.167380948196474,0.169896633125478,15.4435629785552,1.23284869472283,0.869324277135215,0.0409815020134974,0.0956861544177563,0.0923291388675213,0.240684750018489,0.0133335644082077,0.00485025461130974,NaN,NaN,NaN,NaN,2.9987372183553,-102.731971335258,1.65121518411888,stable,stable,1,0.658290377781881,0.157594577882727,0.102246504305073,0.962992175642938,0.358964827169991
40,1.84539534495427,2.92413210868835,-0.542929433111103,-1.71800610197101,1.84539534495427,-0.0554453569393758,0.0572715632697639,0.0797133587643712,-0.0222735514962855,-0.160253227804204,0.163949396524827,0.0105729017470629,0.124301186089528,0.126659158755957,15.4736346206356,0.79006989130972,0.691157736630218,0.140802004858977,0.24025802055793,0.0825252718975673,0.33495296577434,0.156734065419723,0.041699955552472,NaN,NaN,NaN,NaN,1.96262077332345,-97.9255988407311,1.65269819532721,stable,stable,1,0.51743725707233,0.257329887613637,0.239221137400069,0.917960780493841,0.363322101378859
41,2.40119388618005,3,-0.403569715181934,-2.33543944115515,2.40119388618005,0.0297198699574654,0.0252418577333159,0.0389925897077587,-0.0171551167845293,-0.288132088585562,0.289294062013159,0.0186760250299181,0.187619910542595,0.189114114334652,14.6078609615903,1.50695272382561,1.57587859278679,0.0881901913582049,5.017624371705,0.099955612953964,0.433991507319122,0.0162456843716552,0.187034013403125,NaN,NaN,NaN,NaN,1.94919332297993,-97.076725643542,2.18778699938334,unstable,unstable,0,0.678141192514945,0.14188001705591,0.160360682908954,0.9316826582618,0.355575283131572
42,2.23257198492686,3,-0.707812675351201,-2.06875809236216,2.23257198492686,0.00466038492052944,0.000601022337943933,0.00469898025726921,-0.034014047530623,-0.23838316681584,0.24425028086664,0.015764696542928,0.197421376748141,0.199935758733732,15.4475665075647,1.67033415570406,1.30079508270611,0.0322131815027368,0.101453474988667,0.0943319183041102,0.272596999220836,0.0135621429586933,0.00711975311212066,NaN,NaN,NaN,NaN,2.97766096785849,-102.83550377438,2.07811441201399,stable,stable,1,0.635339681060576,0.173532783105289,0.112736290087606,0.960548822375409,0.358074702975951
43,1.53519354840761,2.78122973442078,-0.614805131898081,-1.36685110357303,1.53519354840761,0.0832983291043162,0.00883970401233822,0.083766055169124,-0.031320115252603,-0.117908050370425,0.125802579796623,0.00811271668706838,0.206411583057111,0.207412357982422,15.4641779482509,0.702698231531946,0.676018530325601,0.140946334313001,0.240252096200505,0.0873073180015669,0.429582165333649,0.156729860297054,0.0421172940573871,NaN,NaN,NaN,NaN,1.87761184680711,-96.9149867627548,2.39993945935878,stable,stable,1,0.450867417838513,0.295715251967303,0.262402246525193,0.918694058286047,0.361196747554859
44,2.54192610902707,3,-0.540038078788214,-2.45150873741791,2.54192610902707,0.0240094196213342,-0.00924714652615926,0.025728621211203,-0.0256184449653041,-0.312701069886277,0.314937419670198,0.0205347759103871,0.212923253991797,0.215077320865403,7.55720215055048,1.88950498843921,3.30673035834718,0.108016026644358,6.11284174262063,0.124956499315387,0.388718512537417,0.0081839943233984,0.19496524558806,NaN,NaN,NaN,NaN,2.70268226585959,-102.84402520654,2.20777219472187,unstable,unstable,0,0.720862426580298,0.107783539357631,0.13920390736609,0.905164423238785,0.34446377808205
45,1.69858984098043,2.84784603118896,-0.295899838982305,-1.64508113812046,1.69858984098043,-0.0468873286426011,-0.00603234996706159,0.0472737859004796,-0.00984617944858415,-0.144343489643118,0.145651105396646,0.00939745724806804,0.146851696593392,0.14927439353713,15.4069366381747,1.11571047334676,0.967785429269632,0.178698397789507,0.240224330734333,0.147726052723448,0.43927121451952,0.156890601530839,0.0409471267250387,NaN,NaN,NaN,NaN,1.74484723470437,-96.8322370152764,2.08424952765602,stable,stable,1,0.482812169635539,0.267249503545343,0.244968722626785,0.894280476156118,0.334343976567356
46,1.6736577441295,2.49646520614624,-0.217619618702498,-1.6472889315044,1.6736577441295,0.00373739011997735,0.00362075929706675,0.00520365091029362,-0.0046052831067469,-0.142208152334127,0.142369938829703,0.00918924245146798,0.117539289354203,0.118653574726026,15.4234751364146,1.69464953464096,1.57837753385971,0.0281041894059242,0.048495885092096,0.111504206277954,0.408100169113679,0.010664700745329,0.00486759054051947,NaN,NaN,NaN,NaN,1.71876069037497,-96.5690723186371,2.19986091236847,stable,stable,1,0.470039446713072,0.186085681620654,0.118161308894142,0.960231264044533,0.350442574987576
47,1.79979515536714,2.64535880088806,-0.22164998680909,-1.75117246552991,1.79979515536714,-0.00561762291167271,-0.00321989504978221,0.00647498349877142,-0.00799236829845719,-0.164487008102292,0.165413588934509,0.0106688614857609,0.133863213924429,0.134999464669296,15.3399292800093,0.893600782574896,0.570434341699668,0.162157557239679,1.51395253825276,0.165074247870757,0.448045226995435,0.0172575407055313,0.264982582863241,NaN,NaN,NaN,NaN,1.8330973949862,-93.5355183886098,2.35939653880367,unstable,unstable,0,0.50694526769843,0.191438900550315,0.218890661280897,0.90741808826086,0.326633667612997
48,1.92423933166446,2.75333642959595,-0.668770382151562,-1.76468411696909,1.92423933166446,0.0429333379432601,-0.00107322470732859,0.0429467497981233,-0.0308373916360102,-0.163188723326581,0.168153879072823,0.0108615025647445,0.144504603053654,0.145618705989281,13.8405886197107,1.52596377144926,1.17335404857616,0.101169113116446,5.33967335411637,0.0874603858005001,0.403092073482575,0.0165196719269319,0.239099780325255,NaN,NaN,NaN,NaN,1.76093856199151,-95.8152911333806,2.00842911111992,unstable,unstable,0,0.542254229641712,0.194420417830907,0.210939701774243,0.928206517713006,0.361128717422
49,2.53944459637006,3,-0.651422792225329,-2.42294005021164,2.53944459637006,0.0195089771919594,0.0360956939577737,0.0410304681105353,-0.0300220437247705,-0.30876735330772,0.311532037774273,0.0200941754752981,0.192821965158508,0.195319209751956,15.4774705796095,1.12569639888435,0.827382151365893,0.0396379930001195,0.0946300415280321,0.0769609640434701,0.176015197970789,0.00100340994662052,0.00742679456883188,NaN,NaN,NaN,NaN,3,-103.690253195533,1.8342671597125,stable,stable,1,0.716249067649074,0.111147218303668,0.0698349435289607,0.964835386319403,0.365795127091791
50,1.5233358151135,2.71268463134766,-0.464489413849623,-1.42409534215367,1.5233358151135,0.0756495240932324,0.0147522841944455,0.0770745118991112,-0.0189591202438772,-0.12697663133895,0.129582560267328,0.00835714550292704,0.18242985639396,0.183153306638685,15.464808476553,0.960022852096258,0.81701354972556,0.140744189256906,0.24020079806646,0.103475220471215,0.399864375766614,0.1595713625218,0.0357143483329827,NaN,NaN,NaN,NaN,1.72627812567413,-94.411640590645,2.37691019201461,stable,stable,1,0.442853545358003,0.28173381083419,0.252947927823207,0.91566547650009,0.354011013123904
51,2.19321879112359,3,-0.393843154724765,-2.12242897022003,2.19321879112359,0.0327614785280631,0.0284278942076053,0.0433757956056548,-0.01833788941966,-0.245115458463899,0.246732761460416,0.0159259486932127,0.188914682188437,0.190042227718013,14.7698146290857,1.69666025890373,1.41033029110387,0.097759960141174,5.28104858207803,0.111299517511743,0.363774239811685,0.0079334103158872,0.210844546275174,NaN,NaN,NaN,NaN,1.64198518080473,-93.7945426045898,1.80016001903113,unstable,unstable,0,0.622866789843227,0.189478001191562,0.193883504955395,0.92670795132221,0.350533547772558
52,2.12748605767886,3,-0.403092138011699,-2.05790594318966,2.12748605767886,-0.0282315790124395,-0.00911030257987545,0.0296651254275538,-0.0171513779455901,-0.226417115270005,0.22787195715599,0.0146994134872472,0.154985973896833,0.156683175489017,15.4556535881318,1.33711363655033,0.785270501511011,0.034258919785548,0.14072485155321,0.101932806321079,0.262268542670744,0.0023919730577894,0.00494830285178423,NaN,NaN,NaN,NaN,3,-102.899260755177,1.68608400057329,stable,stable,1,0.598666250478832,0.201754243350642,0.123915028002375,0.966194664736744,0.354696530523965
53,1.69190085136284,2.71964645385742,-0.180148090609437,-1.66789621884861,1.69190085136284,-0.040638924591504,0.0150895933930537,0.0433499483358589,-0.00392133357114636,-0.15204780116789,0.152179778797467,0.0098167215151203,0.118517656161667,0.120470377690632,15.4433646744965,1.09959332216293,0.868992767716812,0.14648403218164,0.240175589365968,0.122977400672206,0.301194870862621,0.156031189876512,0.0414504997057896,NaN,NaN,NaN,NaN,1.76767167051157,-93.7767495596924,1.73351348280618,stable,stable,1,0.475267635901551,0.239190251089521,0.227934255138308,0.911290521774411,0.34534337747902
54,2.67534324957265,3,-0.479203998757801,-2.59674773358232,2.67534324957265,0.0287047684955529,-0.0174479598109934,0.0335915917448001,-0.0232009794494907,-0.341197007077034,0.342980636296411,0.023660436655352,0.207084326044585,0.209562630494891,1.61347585296728,2.89223464149066,1.50996646358599,0.0977902289472665,5.24061737921467,0.119395394829564,0.448296916031519,0.00792388352186515,0.0953416065604789,NaN,NaN,NaN,NaN,3,-101.106544404973,1.83706644513429,unstable,unstable,0,0.755337392651684,0.0792062273327009,0.0857151375222398,0.916516162557907,0.346935380075749
55,1.63867927286901,2.64018177986145,-0.169778482380229,-1.60624365338255,1.63867927286901,-0.0590545346382051,-0.0236849568344781,0.0636271580505217,-0.00499224889560885,-0.140904812373145,0.141186331877264,0.00910726439963319,0.173680077206273,0.175918107419722,15.4302272018881,1.01163718409677,0.836600033042733,0.175789066353279,0.240201620557371,0.173552507779132,0.43131218631087,0.156403209333486,0.0422146189431866,NaN,NaN,NaN,NaN,1.6954412846166,-94.4207914550518,1.5,stable,stable,1,0.472164760915679,0.237003043049229,0.227065133835882,0.897583602974407,0.322865552098164
56,2.48185642321905,3,-0.608535906899231,-2.37162068524468,2.48185642321905,0.00775090018468795,0.00411751058545253,0.00877669340323048,-0.0289086376180779,-0.296133969580174,0.298851534749105,0.0192938319132579,0.215503001365311,0.217782621362199,15.4218658900812,1.92422444881859,1.7624403641745,0.0305202699910256,0.0538947747505187,0.123560674637157,0.41580695558088,0.00955375406044038,0.00560557530961422,NaN,NaN,NaN,NaN,1.73280982852964,-92.1431804697514,1.89008603290636,stable,stable,1,0.705384903797519,0.118191365232974,0.0771993230772134,0.955773212902399,0.345084144605708
57,1.60924956912086,2.53644967079163,-0.146570414208942,-1.58535466084151,1.60924956912086,0.00599566942687681,-0.0201848937833051,0.0210565426630227,-0.00333192525188761,-0.134737834450071,0.134895346432375,0.00869973010919331,0.0949744357491506,0.0972592689130582,15.388122066684,1.09872497347538,0.562987152649123,0.177042717375414,0.240175059261147,0.0961794168182182,0.34644550293611,0.158844925459405,0.0376723300457155,NaN,NaN,NaN,NaN,1.65239533729994,-95.8334835366937,2.01749424449075,stable,stable,1,0.448585072214841,0.21248038903081,0.211785007174643,0.898422331749886,0.357253592525236
58,1.70055076786966,2.54316997528076,-0.107735554941353,-1.67405060824669,1.70055076786966,0.01892231684768,-0.00331148344471562,0.0192098932190842,-0.00263549419173113,-0.149234739438682,0.149378741618197,0.00965612159971676,0.156437877366606,0.15749729746049,13.8443273794546,2.12884466940391,1.63320953065578,0.08619328839027,4.69979984876264,0.10973716382737,0.400909206682633,0.0186473931605627,0.279631237231105,NaN,NaN,NaN,NaN,1.68060545220575,-92.4282145747537,2.18357011570029,unstable,unstable,0,0.484979664257341,0.19311113542433,0.225838497814038,0.927344358518682,0.351227927187836
59,2.74128980421302,3,-0.765684991950055,-2.60796087247852,2.74128980421302,-0.0186447464077506,-0.0280979747290881,0.0337212507550625,-0.0380489971725708,-0.352016032045457,0.354624461679439,0.0228855598679919,0.125986068655093,0.138148367953804,15.3854352828122,1.66931312497693,1.10429885968134,0.0138836543474421,0.148522094161618,0.125428536541978,0.367517362551699,0.0052074648660321,0.00764253438253906,NaN,NaN,NaN,NaN,2.78982386220964,-100.41262924442,2.38968952423406,stable,stable,1,0.758640288047567,0.0643920233571646,0.0437287462554788,0.971265507232535,0.344253983759121
60,1.81574362085526,2.42140054702759,-0.178192323593132,-1.79110095683383,1.81574362085526,-0.064448812753918,0.00626721176586482,0.0647528177665481,-0.00329896247857099,-0.164785228026933,0.164886325336866,0.0106315333083871,0.0774345351543251,0.0821723801748729,15.5060846160459,0.681414251869031,0.235406054536753,0.13840794975739,0.240197308865435,0.213768092039289,0.257077443370632,0.159130963849256,0.0375795297378943,NaN,NaN,NaN,NaN,1.72864210057146,-91.9462754292346,1.95669905395875,stable,stable,1,0.500632774929711,0.14814415831264,0.173276651350528,0.923592436999545,0.304991959093649
61,2.23019525282311,3,-0.430470215817518,-2.1484952267153,2.23019525282311,0.0350749865861665,0.0188918538306355,0.0398391368528217,-0.0204863211767936,-0.251336400221958,0.253231358666992,0.0163534564769656,0.200822852501935,0.201903316244661,14.1539413691549,1.54382761327197,1.57183585427246,0.0841151421789351,4.6736028283059,0.0991791210821857,0.444432005033316,0.0148139129938334,0.177254626673605,NaN,NaN,NaN,NaN,1.6541677253945,-95.777639022521,1.82292256858045,unstable,unstable,0,0.635099397335094,0.180509909871152,0.179346135134595,0.933462215951255,0.35592039063014
62,1.91074725707372,3,-0.226037323292907,-1.87584153968752,1.91074725707372,-0.00265097378470909,0.00388389660990826,0.0047023733245747,-0.00809512305318937,-0.189420950518079,0.189944529449579,0.0122501548270076,0.120842122266673,0.122549191106422,15.4735846855433,1.05570097980058,0.428937424766983,0.0361348938098494,0.111763173670227,0.0859373493556821,0.202672313349761,0.00807370001467349,0.00530813582325292,NaN,NaN,NaN,NaN,2.96888331606625,-100.576107342626,1.52271705932385,stable,stable,1,0.53404244010761,0.245943968934585,0.153084923686839,0.970267537059187,0.361805622508586
63,1.51251499508366,2.31453347206116,-0.124518405693986,-1.49269487599561,1.51251499508366,0.0525448888567238,-0.0269749011891018,0.0590644617272287,-0.0024987112164644,-0.124376002411759,0.12446448619953,0.00802707754289598,0.10509240890087,0.106577576174886,15.4754628974602,0.867353583686984,0.740035343854262,0.139745860739458,0.240147725476912,0.102872204963179,0.324452526438161,0.156549246973646,0.0449534000567937,NaN,NaN,NaN,NaN,1.60300708299886,-92.1234906695166,1.50779309015026,stable,stable,1,0.424652847257288,0.191282641969928,0.200693719211098,0.91749758519959,0.354279020016365
64,2.6798011365864,3,-0.524543524147201,-2.59444171654536,2.6798011365864,0.0264856606324052,-0.0182062009865428,0.0321396324418518,-0.0251888008241128,-0.340786546302555,0.34277649849964,0.0221483163656378,0.198612046110246,0.201008953821134,13.7539219654063,1.65468647384384,1.21447632804832,0.0781674452095848,4.48782541178625,0.104074583833194,0.457370836476635,0.0055157567356063,0.136226422836881,NaN,NaN,NaN,NaN,3,-102.201792877698,2.14262925255255,unstable,unstable,0,0.754815427187267,0.0779370102157326,0.0987505345990798,0.938372855380341,0.353744629407469
65,1.57499535039619,2.33636283874512,-0.119563632009831,-1.55698838708804,1.57499535039619,0.00338368314907457,0.0243503360729797,0.024584307566421,-0.00250078386431012,-0.129186982879325,0.129268768699162,0.00834020189657746,0.117997742209239,0.120611386903867,15.4247384588298,1.06848594499369,0.866850126653123,0.170273018498216,0.240196802186041,0.16171813443082,0.419912856212155,0.156620683428706,0.0412329836837872,NaN,NaN,NaN,NaN,1.55228808798252,-94.2268777224065,2.03410678311817,stable,stable,1,0.444121037486425,0.175814807932352,0.190091889643042,0.899657278759381,0.328125273586302
66,1.56851353645325,2.45140790939331,-0.149604750375925,-1.53938964764181,1.56851353645325,0.00273110823537738,0.00545491838459167,0.00610041693459573,-0.00406816751158813,-0.128477385341635,0.128691339514778,0.0083039536008751,0.16517664615869,0.16619362614005,15.4361218396742,1.45382894318777,1.09312434709686,0.0331107615205944,0.0612665388429626,0.0996786216911154,0.378165717064988,0.0101740931240335,0.00634801319014098,NaN,NaN,NaN,NaN,1.60696450398557,-93.5145725727472,2.06336090904658,stable,stable,1,0.451509001615543,0.199769643682857,0.12669197380873,0.963432843387466,0.355698390359504
67,1.66078783935971,2.32276463508606,-0.108069710632047,-1.64705555579409,1.66078783935971,0.00049657502971123,0.00524657109008035,0.00527001849744378,-0.0020257240494656,-0.143592179783838,0.143649852354703,0.00926598007533312,0.112789832343312,0.115591370760059,15.4634034840252,1.01682520996869,0.681123163383487,0.170903468807487,0.240213590417217,0.158222264355564,0.369080455643866,0.156011591215184,0.0426351816743441,NaN,NaN,NaN,NaN,1.70472744872138,-93.0615211949791,2.04740856017155,stable,stable,1,0.4659950313146,0.149910949096294,0.174788756869337,0.901207242662775,0.329678993619749
68,1.68048568146466,2.47074270248413,-0.0952186160307117,-1.65934480582086,1.68048568146466,0.0155548679995357,0.00102368942777204,0.0155885168803037,-0.0022949642620273,-0.145304069735963,0.145413335084734,0.00938399808970985,0.143008965557088,0.144094149261858,14.7041788066955,1.07535027782209,0.697741634193704,0.0799555431291854,3.79222047111353,0.0974102874273114,0.412207002974254,0.00530598320262205,0.145816861545015,NaN,NaN,NaN,NaN,1.6346567991892,-94.1375227104005,2.1837528397911,unstable,unstable,0,0.476948344909616,0.180665724490769,0.163781962740279,0.946090791983855,0.356706538921195
69,2.6046413064003,3,-0.39896982239384,-2.53790505573518,2.6046413064003,0.00759999004817059,0.00333389933372652,0.0082990802803512,-0.0174296640592875,-0.33525725959585,0.336304484039054,0.0216907922011662,0.203144025102267,0.205837106409701,15.4653864416346,1.22235338805482,0.45797318628794,0.0294688097667761,0.0770705626041985,0.0879910199149763,0.188289715109262,0.0065755392209693,0.0199672763745014,NaN,NaN,NaN,NaN,2.97762147861884,-97.4745863886534,1.91639122280645,stable,stable,1,0.73573843632202,0.0904772041113305,0.0644696121153306,0.972063029175347,0.360892880037788
70,1.43034714774082,2.3134126663208,-0.0595096132936673,-1.42105367509918,1.43034714774082,-0.0330226287469863,-0.00387691867846714,0.0332494286838245,-0.000840386490849934,-0.124768752518389,0.124791513618275,0.00804988394076542,0.157563107300578,0.158559687176783,15.3695072924512,1.05624889628396,0.972869681420643,0.133365685747071,0.24017139900388,0.1140519183281,0.460223375385044,0.156697151119059,0.043834474289432,NaN,NaN,NaN,NaN,1.74106956136438,-91.9626622500687,2.0443955284641,stable,stable,1,0.413137843499574,0.204785470272531,0.208454269271177,0.917374082587357,0.349310258520845
71,2.31423746747193,3,-0.416782863554544,-2.246844038175,2.31423746747193,0.0287714328460105,0.0351167479191017,0.0453980322527995,-0.0177823276133205,-0.268150066819675,0.269392134015936,0.0173920572229392,0.203990859088299,0.206120449563845,13.8361880609115,1.56972571097457,1.31670887118567,0.0801090257140038,4.71243481538179,0.0921125566889543,0.345905718376275,0.020250406693533,0.227153678292989,NaN,NaN,NaN,NaN,1.67774962146967,-95.9395937551425,1.88654328221857,unstable,unstable,0,0.658354081238616,0.162619542398496,0.189173243752866,0.937266358283168,0.35906108591602
72,2.63319532513618,3,-0.610725978908541,-2.52846232682852,2.63319532513618,0.00502985663226807,0.00522908472919901,0.00725553477328263,-0.0284855046069467,-0.332104717946343,0.334439617610145,0.0215699389304306,0.192454527313785,0.195121013594922,15.444302378969,1.08950105282319,0.583424324845796,0.0309312029905063,0.0978802585097805,0.074197165142127,0.259100022915786,0.00677184619340093,0.00466298070108588,NaN,NaN,NaN,NaN,3,-102.28205700878,1.78831871485561,stable,stable,1,0.7412096227553,0.0838612332194602,0.0550220786968149,0.971389984823062,0.367023482159055
73,1.29695105284787,2.25748348236084,-0.137318631035612,-1.27957314945931,1.29695105284787,0.0371691600371285,0.0142881893275373,0.0398208338954023,-0.00277341488296666,-0.105619532110553,0.105718160010833,0.00681931301453702,0.174895617082924,0.175810228750225,15.3702838290367,1.13320282333971,0.811896351242174,0.128263532363838,0.240174460912817,0.111232412269366,0.327651460157279,0.156626964760697,0.0428894276148432,NaN,NaN,NaN,NaN,1.730743683828,-94.7490683234343,1.55118045585825,stable,stable,1,0.381015659842811,0.223420282854575,0.219260309547139,0.92058531173208,0.350563372324726
74,2.65990873353963,3,-0.489554430840601,-2.57933968812575,2.65990873353963,0.0216935424997049,-0.00855539708741659,0.02331961846836,-0.0233106679153808,-0.343103365404495,0.344898411982458,0.0222682298348874,0.203987138961906,0.206359574573244,14.1609542561925,1.42454847727867,0.845221469432517,0.0755198871504373,4.48672422973899,0.0866139217966314,0.361495352033592,0.00734166888239113,0.106144431460641,NaN,NaN,NaN,NaN,3,-101.440236798872,1.5824982193452,unstable,unstable,0,0.750580910525218,0.0807957983394483,0.0903384180279952,0.944406149700622,0.361504923645942
75,1.5737973495766,2.31955647468567,-0.058857149558864,-1.56200057897186,1.5737973495766,-0.00372054280834713,0.00600297652922237,0.0070624475926649,-0.000983456047923728,-0.129250745834317,0.129283822111682,0.00833748684608436,0.103264147107502,0.105729226634608,15.4717713497917,0.79036116877314,0.576890601969896,0.170330999275088,0.240181019940149,0.137434567174071,0.407109837154093,0.15660277528046,0.0433354930302847,NaN,NaN,NaN,NaN,1.72844746755899,-95.0560971705178,2.0772230498099,stable,stable,1,0.440825138547347,0.169090585208196,0.186813945684822,0.904091807878046,0.338917970144857
76,2.00497701048851,3,-0.340780132591436,-1.94852785894392,2.00497701048851,0.0246094634214383,0.0426982414543856,0.0492825071723032,-0.012887354589225,-0.211258796339344,0.212204023227411,0.013691610353322,0.212717034351983,0.21393706141292,15.4574630381903,1.33267897131636,1.0326518051764,0.0199032718308853,0.0527239551247474,0.090948481557248,0.408021039007941,0.000145765607314873,0.00603543109203989,NaN,NaN,NaN,NaN,1.80133462105751,-96.2777836497926,1.9359857620032,stable,stable,1,0.577447948412853,0.232915298955007,0.142008666302654,0.971463622269257,0.359578452641223
77,1.63700350095977,2.45005822181702,-0.108004850421639,-1.62306231329338,1.63700350095977,0.00256564565356376,0.00543447221789617,0.00600966104757464,-0.00194909402573312,-0.139071228355352,0.139125722698611,0.00897391723509025,0.1133080152485,0.115894464679214,15.4334404663735,0.954596101087059,0.720456970580613,0.173282976810297,0.240188154498984,0.140062560944618,0.444541175338977,0.15903242101584,0.038711177566987,NaN,NaN,NaN,NaN,1.75923009576763,-93.8331549635916,2.28714269834913,stable,stable,1,0.459713159858447,0.184039083384937,0.195181317880542,0.900197380317462,0.337749972913503
78,1.69469124419862,2.48146080970764,-0.129600722450145,-1.66928606367813,1.69469124419862,0.0167231620884925,-0.00851307215212075,0.0187653016950223,-0.00342561617763984,-0.14892570638566,0.149087065166317,0.00962733340094838,0.157327737931083,0.158548327444109,14.3542191845884,1.53205063256569,1.10336463656318,0.0894394179960951,5.05351543524538,0.0837349824410856,0.359055188731568,0.0118233380563908,0.229829881303949,NaN,NaN,NaN,NaN,1.84421771642335,-95.6415120879709,2.03502410107483,unstable,unstable,0,0.483627330608453,0.180463457550285,0.197107393736468,0.934573456744511,0.362784452248406
79,2.33792534629504,3,-0.32257422141879,-2.28633947479175,2.33792534629504,0.0422760565035525,0.0563009526778072,0.0704064075629502,-0.0129694402702033,-0.281495403552273,0.282190764015386,0.0182027084418236,0.176756395753963,0.179439148874114,15.4654306464871,1.08367490744162,0.804644715456596,0.02511472844501,0.12036014083765,0.0638176473894639,0.181279908414286,0.00111528466051362,0.00727772408293276,NaN,NaN,NaN,NaN,3,-97.5958361626102,1.96858481470727,stable,stable,1,0.659334588786833,0.161874638470157,0.1002669102745,0.972605838740438,0.371636601160238
80,1.73362534348644,2.41099977493286,-0.1944776412704,-1.71133622207464,1.73362534348644,-0.00116213871300953,-0.0100390900889903,0.0101061316141805,-0.00398960516181538,-0.154376374654562,0.154512408035411,0.0099679969603111,0.114047504393783,0.117034282193992,15.4163257764069,1.09323757054742,0.783278056266223,0.172846377348481,0.240199467153601,0.12962137134427,0.398867067880048,0.159125039667613,0.0354848671284549,NaN,NaN,NaN,NaN,1.84269174465958,-96.4089816842801,1.65879779106012,stable,stable,1,0.485706948035184,0.154262037871377,0.17618305062181,0.898832759972224,0.342390501624769
81,2.17080864086523,3,-0.247068403597819,-2.12297938515381,2.17080864086523,0.0277917334573692,0.00578478684427733,0.0283873952203998,-0.0101617879905262,-0.242701839858885,0.243294770797133,0.0157568163411311,0.196585829779198,0.199071169475944,11.8601909498616,2.43228600130111,1.22118052711989,0.0909293581848058,4.47374368240871,0.13788847476682,0.461365350772215,0.0233810639908597,0.339699607916555,NaN,NaN,NaN,NaN,1.90149022471625,-95.3637271300002,1.85561375617782,unstable,unstable,0,0.618696538125918,0.191772411595729,0.248982161104849,0.925829512470004,0.338716233436969
82,2.4500002570947,3,-0.570065488581495,-2.35041954242678,2.4500002570947,0.0320473910135568,0.056164464573169,0.0646643824030397,-0.0276423163701094,-0.295472500749979,0.297543903086436,0.0191913276100637,0.138628530763782,0.145148260544555,15.4133368090591,1.16882970432205,0.785481037051646,0.0227682930305183,0.0681698797835958,0.0963740726060585,0.433150113263789,0.00778452868148853,0.00664006368481311,NaN,NaN,NaN,NaN,2.91783086718893,-97.7855854258006,2.19045887863191,stable,stable,1,0.682363054000831,0.135605078927583,0.087237406494315,0.973260554802519,0.357167078841752
83,1.69644368702257,2.28854608535767,-0.200145510282753,-1.6765783545226,1.69644368702257,0.0142594335543066,0.0881886115796279,0.0893339949718592,-0.00356972812746107,-0.147433562422602,0.147522902852217,0.00951269485370662,0.0913542376850839,0.0939701283284879,15.476249882686,0.64829230253744,0.47943965076028,0.161964581966292,0.240212662407156,0.120649069136565,0.235726192817043,0.156379960026522,0.0428936830824055,NaN,NaN,NaN,NaN,1.75027764965131,-99.5200046041142,2.12123057938075,stable,stable,1,0.471179008871717,0.14960093870357,0.174860470617431,0.910156957955229,0.34637819149486
84,2.65672048053689,3,-0.345513257272586,-2.60011337920292,2.65672048053689,0.0280497785919425,-0.0139914720657078,0.0313456754532819,-0.0162684590012097,-0.344639851786304,0.345631792078269,0.0223331610080977,0.200520198089858,0.202964175796593,13.8470317755625,1.62904004760919,1.12567217188569,0.08555587345928,4.67147612398432,0.114511582663523,0.473103967153785,0.0035597902376287,0.162279478019802,NaN,NaN,NaN,NaN,2.95681470906161,-98.270421652992,1.75719952704363,unstable,unstable,0,0.749051629969155,0.0829845990456353,0.110383607701811,0.935577895831472,0.349105963260657
85,1.71526073482302,2.68343901634216,-0.213657273037928,-1.67956372921114,1.71526073482302,-0.00946660035514195,-0.0165872702437378,0.0190985354523001,-0.00581917108286742,-0.153533883310541,0.153851759659261,0.00992251929262519,0.17010775173588,0.172993434255922,15.4681924576319,0.914705455395096,0.584913404660866,0.171269171106604,0.240222053494228,0.148062161994486,0.37031707303449,0.156728992312346,0.0419070913157842,NaN,NaN,NaN,NaN,2.10680641889481,-101.731697741666,1.56053483058176,stable,stable,1,0.492001549470655,0.221341511508063,0.217701179118085,0.902582694831972,0.334194594669118
86,2.13172883033752,3,-0.564885585007865,-2.03398486546632,2.13172883033752,0.00257143595874972,-0.0329628513912762,0.0330629982719854,-0.0222887297801564,-0.219350677623223,0.221326702991021,0.0142939952968646,0.184700883730431,0.187064170459367,15.4067700271379,2.24841952418017,1.89195295184154,0.0150842090875497,0.0572425138466134,0.12118785584596,0.405925938230641,0.00464268272164584,0.00723527073851613,NaN,NaN,NaN,NaN,2.01104491577433,-105.279667622794,2.21924545071108,stable,stable,1,0.605873855515213,0.201422562857254,0.125547959798585,0.95992639743034,0.946138730735129
87,1.91666737987715,2.86799764633179,-0.95863606186616,-1.60312576923902,1.91666737987715,-0.0129927345550774,-0.0101671343089313,0.0164979323333123,-0.0579941253150032,-0.138114431224689,0.155288471149515,0.0100151830752415,0.141405875223531,0.144092594683844,15.4706637376237,0.892759984406562,0.807599594619564,0.170988732161901,0.24026935824092,0.150199130789223,0.397940804293454,0.15906754246269,0.0366934240763108,NaN,NaN,NaN,NaN,2.06469467336038,-124.238920485483,1.98602927139196,stable,stable,1,0.539929820237341,0.217073930880068,0.214284107367491,0.90114566579813,0.333244830760345
88,1.89501561273684,2.76166319847107,-0.599901732680389,-1.73624498874924,1.89501561273684,-0.0200645829956261,-0.000837847123909011,0.0200820685834754,-0.029797685920621,-0.159769524217588,0.16666577355165,0.0107614759084916,0.148790963887166,0.149955789354519,14.3748606599496,1.60843652030923,1.27314656066206,0.0891914532481071,5.14529944520498,0.0925944820864559,0.441562375801482,0.01176513969778,0.253835038481582,NaN,NaN,NaN,NaN,2.00959748573364,-123.70580417537,1.71284617977672,unstable,unstable,0,0.535328654600727,0.19867741936384,0.216739052952034,0.932763263454029,0.358846896850464
89,2.32204103628794,3,-0.22469842428578,-2.28652736515346,2.32204103628794,0.000676619034629896,-0.00563657322079662,0.0056770389281231,-0.00789006329278734,-0.281203309742126,0.281534331769582,0.0181788327817213,0.174532042127761,0.175963392055233,15.327151575825,2.04545934322993,1.83862605198333,0.0171205215065269,0.0700495913816466,0.129945562717218,0.50716309185571,0.0137952639995454,0.00423247057919382,NaN,NaN,NaN,NaN,3,-94.0907171926139,2.4333182026318,stable,stable,1,0.654403621421165,0.153581557305369,0.0998192430380795,0.960921925427204,0.342246416570125
90,1.79812452345263,2.70046830177307,-0.60773510248435,-1.6133346548384,1.79812452345263,0.0625055066528109,0.0223217463185766,0.0663716710700844,-0.0338977837656421,-0.142264134257203,0.151843665636123,0.00979419172787824,0.134940017913773,0.136765717874152,15.4395903314542,0.987861587766231,0.88226336989943,0.128887274995448,0.240205761351951,0.0975296344499412,0.395718655869092,0.159495942048722,0.0370941417624442,NaN,NaN,NaN,NaN,1.99637079272466,-122.311062912018,1.53419228550873,stable,stable,1,0.506853016495532,0.215195489818281,0.213493158068663,0.920862523549189,0.356653495800026
91,2.37853989837406,3,-0.693144953101564,-2.19174883869759,2.37853989837406,-0.0210225158510762,0.0422366752956558,0.0471792635883543,-0.0380998990785309,-0.264616833704077,0.273856610931602,0.0177057794765787,0.200575513841685,0.201733547474906,12.0610250597543,1.73134032969062,0.885155947595359,0.0859784749394508,3.92058810376159,0.093473538521353,0.371879457274718,0.0228173863495749,0.34040899342653,NaN,NaN,NaN,NaN,1.94546366280019,-126.251978914843,2.27820579922154,unstable,unstable,0,0.674624015728064,0.148478054523702,0.22301298183277,0.936452577494456,0.358456205101621
92,2.44325301090876,3,-0.408894225868415,-2.37987999982232,2.44325301090876,0.00537506463679061,0.00453859151434478,0.0070349223722625,-0.0165871516037924,-0.301957280541961,0.302991658600518,0.019550492578408,0.198127386868484,0.199637748457822,15.4045537107132,1.53056620468755,1.23305000485127,0.0364588077460953,0.0740484952193954,0.119707959770185,0.430404723690632,0.00891170591009942,0.00482303215884993,NaN,NaN,NaN,NaN,3,-99.2513675644137,1.55684382052164,stable,stable,1,0.691461685933901,0.126557808313777,0.0816492730464778,0.96005646876629,0.346796462324362
93,1.69834727887754,2.66870093345642,-0.875288183751419,-1.40108539877641,1.69834727887754,-0.00193092829792582,0.00326125437532707,0.00379002166119412,-0.0466856943408168,-0.107403901731962,0.122539235277572,0.00790396247691385,0.141022886747435,0.143207931858282,15.4169673365977,0.97205435720693,0.912508884670287,0.172255900732344,0.240192854607799,0.138893650562952,0.45565005399088,0.156345769139306,0.0420144818529948,NaN,NaN,NaN,NaN,1.74681180591764,-126.657123786368,1.56154408705441,stable,stable,1,0.481534194072334,0.2190244095848,0.216179647658327,0.899064767019078,0.338269488638688
94,2.64136651396423,3,-0.191656228818864,-2.59608174403526,2.64136651396423,0.024566594711891,-0.00015664963833797,0.0245670941474058,-0.00972673246899832,-0.350650708464476,0.351217968926021,0.0226804725074566,0.204872016892674,0.207374679527669,14.0644503034009,1.5725772936437,0.799906894346001,0.0791362337778162,4.77984102917818,0.102722506085069,0.409233304015628,0.00372085097468281,0.160777838804259,NaN,NaN,NaN,NaN,3,-94.2734617915732,1.67266244102487,unstable,unstable,0,0.745839339629328,0.085196501618406,0.111236281171441,0.941790935919744,0.35434555285108
95,1.78259816365456,2.56922435760498,-0.927380083233072,-1.46267541113826,1.78259816365456,0.0821535700312394,-0.0359724320095786,0.0896840283080634,-0.0540470637567017,-0.113860973065737,0.131857830294362,0.00850762216314142,0.1223181594092,0.124667128810599,15.3762310302781,1.13511664275196,1.1757142019509,0.171784753156982,0.24023627765298,0.137467746512938,0.443793814439977,0.159451270514179,0.0390087754838859,NaN,NaN,NaN,NaN,1.86493072097439,-128.583435678336,2.28188995517066,stable,stable,1,0.500292936070001,0.193432965495324,0.201112019903697,0.895951095355986,0.338903223772028
96,2.40867205858231,3,-0.550157744701325,-2.26101909874879,2.40867205858231,0.00637926429904536,0.00452828116226382,0.00782306482662569,-0.0281814231156024,-0.282351711449157,0.289055900599587,0.0186503973199979,0.211635913038676,0.212565412702384,15.4465124310427,1.42579969075107,1.43454778602745,0.0197392236097698,0.0539884728819146,0.0917775778608447,0.47537237511161,0.000641704443733997,0.00491648487041998,NaN,NaN,NaN,NaN,1.76269102467469,-127.19753908103,1.87716373681529,stable,stable,1,0.684825631495758,0.134483015370529,0.0827628238774631,0.967656229448998,0.35920996539518
97,1.74197254445818,2.74586653709412,-0.973448879875594,-1.39045952883314,1.74197254445818,0.00821568715542479,-0.0211898802892462,0.0227268242855969,-0.0570728010861845,-0.109474959338973,0.131105587497666,0.00845620689342479,0.167147612757433,0.169268000237772,15.4624720774035,0.969658289126124,0.849451794875735,0.172834276624837,0.240254272252111,0.152455548127596,0.365946092752468,0.156193865573303,0.0419692260660373,NaN,NaN,NaN,NaN,1.81622668042125,-127.513201967813,1.54525065057509,stable,stable,1,0.498379611903068,0.230042732795446,0.22270667223891,0.89928985388471,0.332241978609957
98,1.97317160246615,3,-0.666600598014973,-1.80916231299879,1.97317160246615,-0.0122766211526709,0.0174571602271503,0.0213416932346663,-0.0323433665350236,-0.17714608646564,0.183600014649792,0.0118555382524988,0.201515130405085,0.202555937726863,14.1113837480834,1.63267035056794,1.15127609912898,0.0957171252392238,5.19369177400584,0.0911013372732972,0.44387887255927,0.00950687975874495,0.188427254227553,NaN,NaN,NaN,NaN,1.91962505408224,-128.853168090004,2.1251311613433,unstable,unstable,0,0.566690281536346,0.234949033204805,0.213713701352951,0.930267572418484,0.359510516767424
99,2.44211367368698,3,-0.495364039697512,-2.29710499962583,2.44211367368698,0.00569334884710434,0.00541940748368283,0.00786029252439257,-0.0272330342217106,-0.28526093602897,0.292134647011339,0.0188580252839261,0.17720523285024,0.178618076264478,15.3553149612023,1.69762307346832,1.74506599893995,0.024909179567519,0.0688131254212362,0.108833897069934,0.440041929519491,0.0107154942711298,0.0228132170034029,NaN,NaN,NaN,NaN,3,-92.2002194325483,2.11345391908075,stable,stable,1,0.68695392823609,0.126965477049901,0.0892374434021853,0.960495710361604,0.351629379080029
100,1.58988137080752,2.73293352127075,-0.991859534881855,-1.22655524651936,1.58988137080752,-0.0146010882446658,0.0215111950261251,0.0259985247539261,-0.0566699460411426,-0.0855453116261511,0.105445925483979,0.00680025156599282,0.0981803427500462,0.0992379801947109,15.452938069315,0.763158225780875,0.847038221983113,0.133512331817513,0.24025520532957,0.0892318366390713,0.435325423904633,0.156669640520186,0.0448264225129385,NaN,NaN,NaN,NaN,1.68546986904653,-128.540481584722,2.2780427504699,stable,stable,1,0.443815961587613,0.261953130059115,0.243103346655206,0.920592290573098,0.360341405938191
101,2.55440982837163,3,-0.313981962705467,-2.48287834025358,2.55440982837163,-0.0223636357719234,0.0432086488277186,0.048653052714669,-0.013806513344497,-0.324155595210143,0.32581313654549,0.0210309694387721,0.200181277569888,0.202496476045932,14.7418404949131,1.5834484758364,1.26217215562686,0.0823813109194654,3.79434853053709,0.10679959621185,0.439066148094965,0.00847346393694427,0.161302212700493,NaN,NaN,NaN,NaN,1.69807149429304,-129.55767099295,2.36315869357665,unstable,unstable,0,0.721675249441621,0.109177514947406,0.127927843013325,0.936450896721627,0.352533512794733
102,2.56340779066086,3,-0.220095124470918,-2.49414004997522,2.56340779066086,0.00831602143885712,0.00293010296810114,0.00881712628781092,-0.0104845073507823,-0.329385186507914,0.331543489250037,0.0213859131043568,0.202024122240539,0.203630117489062,15.4666994410163,1.19264889974299,0.983821217234751,0.0282344089246123,0.058843886311482,0.0914348513354484,0.395306891761389,0.00740982737946532,0.00428081728779488,NaN,NaN,NaN,NaN,3,-91.8482151525671,2.01121594985303,stable,stable,1,0.724301434340708,0.0998497202540722,0.0647597495974644,0.968781958904297,0.359362288295356
103,1.72580426004198,2.33421778678894,-1.05696331040823,-1.35009308926163,1.72580426004198,-0.0119904609861481,-0.0188168066840439,0.0223124039145274,-0.0602321980736526,-0.09694645863476,0.116710859039829,0.00752645510732538,0.111996182507448,0.114082369194314,15.4673963970655,0.837335810584378,0.585786591153401,0.170967412942897,0.240202515340741,0.101266887948902,0.391337229894862,0.156421564130135,0.0413080931020183,NaN,NaN,NaN,NaN,1.75398132014352,-128.600052606655,1.61670668289241,stable,stable,1,0.48303094318339,0.140983650902396,0.169132010474757,0.903334617514897,0.354992494244932
104,2.31952497980383,3,0.0229863937668978,-2.31528970670516,2.31952497980383,-0.000128057591207494,-4.86357239384363e-05,0.000136982408757042,-0.000736927622264104,-0.272021163634003,0.272077683452004,0.0175440118836518,0.0119100298128378,0.028136723386556,15.4013736131422,0.879202886507881,0.0605653086216947,0.00653953045798739,0.7154,0.105730521191903,0.403017263453568,2.81090832625761e-07,0.000552129993386333,NaN,NaN,NaN,NaN,3,-96.2939600424606,1.79307885259279,unstable,unstable,0,0.624167339291665,0.153131992985744,0.0920800952637552,0.989346341809274,0.353008657248043
105,2.02671543649725,2.69811606407166,-1.22104957231661,-1.60114371720703,2.02671543649725,-0.00964560772525063,-0.0293385847447127,0.0308834956443098,-0.0795498088615429,-0.13651340695062,0.161486666071935,0.0104153453438211,0.117190265317414,0.120922629348884,15.4275766608063,0.899437400225352,0.751240730687042,0.165241970443857,0.238676294497472,0.0816099325452152,0.320375423912851,0.155340966941259,0.0424086524958588,NaN,NaN,NaN,NaN,1.78074250763471,-129.221424924807,2.25059917861176,stable,stable,1,0.564641975602377,0.156727115405698,0.178498027175402,0.904409400892331,0.363728918868793
106,2.25175555189451,3,-1.35235587852276,-1.76479969781059,2.25175555189451,0.012221281018207,0.00688609682350021,0.0140277595926294,-0.103717018825187,-0.169988188588201,0.207672600417972,0.0134060015660132,0.21935258281918,0.220504393031701,15.4307867344752,1.8586712811076,1.66545068616921,0.0239391609873961,0.0569888477695377,0.116241456036105,0.442606616098014,0.00438777856428375,0.00816506771189861,NaN,NaN,NaN,NaN,1.88415857146299,-124.959215831678,2.27947327640771,stable,stable,1,0.644569025778208,0.170926756749052,0.107475293387379,0.960340889763413,0.34833713065062
107,1.70920619607842,2.63953137397766,-1.02041872574412,-1.35580994413815,1.70920619607842,-0.0187957934807384,0.015083429058585,0.0240996200122727,-0.0563590099475593,-0.0976067741408122,0.115397147900847,0.0074414266845158,0.0995311895493302,0.101381451536837,15.4903481567952,0.773255669961402,0.699966091502426,0.180988366885,0.24021451563831,0.0768722475428486,0.155217002352969,0.157897380493343,0.0389559641750131,NaN,NaN,NaN,NaN,1.72726488943798,-126.550224489005,2.19765829467271,stable,stable,1,0.476064609261612,0.213741428696246,0.212587275924895,0.897930502717427,0.365834556647623
108,2.07538858522852,3,-0.847211806501193,-1.82660375145943,2.07538858522852,-0.0217158664039081,-0.0128444658149719,0.025230123974019,-0.046073460123227,-0.187994485413911,0.200505988464106,0.0129399122573683,0.160714651820187,0.161615337791999,15.3713165651281,1.43118628297755,1.42620358842632,0.0741774171347184,0.240127382575004,0.103709936435579,0.389426108922749,0.158016978771555,0.0385267370077169,NaN,NaN,NaN,NaN,1.72684939224008,-126.925173742408,1.79948317351211,stable,stable,1,0.585760023619338,0.212663091052154,0.211837345522466,0.940460371014468,0.35390669491752
109,2.21098168969154,3,-0.679844698496329,-2.00986151940097,2.21098168969154,-0.0253308161796533,0.0440822728411602,0.050841882608435,-0.0365324917990764,-0.226828440753724,0.23601657706047,0.01522920262303,0.183393629694613,0.186137157248362,15.4339819745634,1.56731979392292,1.411819140357,0.0229490085442526,0.0523183442614508,0.108093248623153,0.457240409783928,0.0111026025756231,0.0109329033266865,NaN,NaN,NaN,NaN,3,-95.4171668207032,2.37000560887899,stable,stable,1,0.626822548700751,0.186850131630949,0.121020170221884,0.96511797552996,0.351958556167488
110,1.7551445133417,2.6500346660614,-1.02445560002692,-1.40316721932181,1.7551445133417,-0.0130508441197412,-0.00365338265123651,0.0135525546312915,-0.0597491382727632,-0.107066978255671,0.126393627568966,0.00815291118857279,0.139332156881965,0.139946463674468,15.4172987777019,1.00348222403624,0.989186756270578,0.0738012165339829,4.26977100322004,0.118478163136382,0.421036588347427,2.99832073800132e-14,6.76133307437127e-11,NaN,NaN,NaN,NaN,1.65985778043302,-125.136897277648,2.19303886543894,unstable,unstable,0,0.496027829626013,0.20383491937767,0.122300951651202,0.947442706887741,0.347343038606052
111,1.74727821350098,2.92292070388794,-0.997106613390399,-1.40859934511719,1.74727821350098,-0.0515028532802651,0.00660012639442041,0.0519240364805245,-0.0552007263684693,-0.111391166988745,0.128828875910629,0.00831042917471087,0.153923825443779,0.155704436276265,15.4324770527409,0.922706779340079,1.08287962275842,0.177671093358481,0.240261828771065,0.169819882699748,0.434230549897646,0.159022318591858,0.0344890155389532,NaN,NaN,NaN,NaN,1.59306398738573,-126.486183134521,1.80195515267702,stable,stable,1,0.497081744188847,0.274038967025163,0.247641426451907,0.895406274447128,0.32452449657789
112,2.33116407632828,3,-0.603273145725679,-2.14463172514549,2.33116407632828,0.0196745285033207,-0.0438772785120174,0.0480864080738946,-0.0356091586563554,-0.253396431981551,0.264239603364215,0.0170460914251553,0.191654594704708,0.1930576651129,15.4378854346327,1.38843404908128,0.970330836553555,0.0427604678445823,0.079759110013648,0.107014534464922,0.213632021096304,0.0108674932340152,0.00547182591624663,NaN,NaN,NaN,NaN,3,-94.1056534981467,1.59356629456257,stable,stable,1,0.660255286710121,0.159303924306352,0.102402106455342,0.960086613404864,0.352437984682257
113,2.3144492206611,3,-0.883887138157728,-2.07505269848028,2.3144492206611,-0.0257500911257625,0.0317589502475262,0.0408864049998274,-0.0507252334264239,-0.242183441802169,0.254549351205865,0.016440858835156,0.184047443595253,0.184775996710344,12.8195104785497,1.65249260782107,1.10735136558021,0.0849479185210098,4.03346765269249,0.132617752235145,0.527333462936084,0.0152185089487486,0.302980763741554,NaN,NaN,NaN,NaN,1.77528590773906,-124.910768203071,1.70484986623692,unstable,unstable,0,0.65414165818503,0.161744766267887,0.213985464694478,0.935841552377056,0.34105877678438
114,2.35391164110498,3,-0.726402722192397,-2.15345143432823,2.35391164110498,-0.0425390003763291,0.025872634394151,0.0497891530708319,-0.0414003431239962,-0.247955246717874,0.259007647463802,0.0167135430254088,0.171756418939049,0.172648722936139,15.3979770708779,1.46040675682964,1.22512673534458,0.0729909576012735,0.435444262259654,0.111620785809771,0.488412470274887,1.27473114139788e-06,0.00278303712939599,NaN,NaN,NaN,NaN,2.9979851142919,-97.9705526263991,2.32480090740592,unstable,unstable,0,0.662239515548555,0.154497892147699,0.093711315337392,0.942403900903709,0.350390761862324
115,1.83194627943966,2.66284942626953,-1.10174322027445,-1.4315583169211,1.83194627943966,-0.038956424793663,0.00278691432398045,0.0390559844857805,-0.069791202615222,-0.111524803821194,0.137815067734663,0.00889240198065899,0.171555954095764,0.173867145886946,15.3681808699895,1.12075025554203,1.19491471284113,0.180101701763017,0.240260977921301,0.139891294213209,0.424673225985813,0.159600728270765,0.0357162380479666,NaN,NaN,NaN,NaN,1.89315516909655,-124.179562229341,2.1247811645973,stable,stable,1,0.523292437027966,0.194113471859114,0.200389463051231,0.891754638652624,0.337826091460796
116,1.64892702833169,2.6977276802063,-0.936863435309593,-1.33915412927442,1.64892702833169,0.00103814175902953,-0.00105546142529748,0.00148045166490903,-0.0504366808341981,-0.100474142016473,0.115397424507076,0.0074435422904952,0.126348829897717,0.126358262886969,15.4543181550946,1.06913865199459,1.0978311372752,0.0394430587982571,0.0997299019035134,0.105632594229845,0.417604935802164,0.0285258024370192,0.0147246489781202,NaN,NaN,NaN,NaN,1.69700248239393,-126.66944677606,1.62273950920462,stable,stable,1,0.464985526799178,0.236251562810353,0.15978348991289,0.963252279399466,0.353052180342291
117,1.89692645564607,3,-0.829025197735076,-1.64541847498273,1.89692645564607,-0.00205150282200865,-0.0224216715161641,0.0225153284987689,-0.0445093048561459,-0.164906029202477,0.177436456756651,0.0114455882349885,0.164647024038805,0.164962229175695,15.4325190653991,1.1024264494131,1.03926609496045,0.0622325849689595,0.240187176123198,0.0965784305861491,0.410947018093563,0.158363808508122,0.0369200104375544,NaN,NaN,NaN,NaN,1.6721231422542,-125.43586516234,2.03017844340625,stable,stable,1,0.53883950067409,0.252319357704409,0.235200987856073,0.952056123238299,0.357076253072823
118,1.42169260151813,2.38362336158752,-0.839826539764432,-1.12818437343364,1.42169260151813,-0.0403259583466113,0.042908758351897,0.0588841613668236,-0.0475246945423332,-0.0828487469713183,0.0988985082349698,0.00637898871795153,0.155714529454537,0.156098082692411,15.3966512450496,1.12712646426737,1.22815478764297,0.150528457908532,0.240233519314828,0.151951234682495,0.460941328675119,0.159014577893574,0.0369721167837254,NaN,NaN,NaN,NaN,1.78141492798702,-127.597402747289,1.91845085086831,stable,stable,1,0.410337643609985,0.22722985059953,0.220455462193368,0.906229989780724,0.332466117918891
119,2.51693424860636,3,-0.409772595682583,-2.43604145110918,2.51693424860636,-0.012040138732877,0.0484346025167023,0.0499086732107544,-0.0178319684641506,-0.313254353802547,0.314790118552107,0.0203088381943294,0.210874901561393,0.210881010551305,15.4581020392539,1.39116057426161,0.942643270284674,0.0448367592981716,0.0915264574337387,0.0982777983732568,0.335582046026671,0.0173395277297481,0.00562231895159768,NaN,NaN,NaN,NaN,2.88139783872518,-96.8469577847742,1.5,stable,stable,1,0.713358668405291,0.11783971748554,0.0804547668788636,0.959244590143765,0.356320978500775
120,1.48228210894788,2.43912482261658,-0.907461018614173,-1.16305897275286,1.48228210894788,0.0261859473474699,0.0360109852759469,0.044525216440001,-0.0528349682120758,-0.0837972734389812,0.100604360678531,0.00648844754105623,0.162628766434449,0.163240885857904,15.4361147569725,1.01328130047075,0.913224730208616,0.140719892929836,0.240213765378279,0.112982098322942,0.447819137422628,0.157500822855972,0.0390898267993923,NaN,NaN,NaN,NaN,1.76744363452008,-125.864521808831,2.06749859235532,stable,stable,1,0.427923406224349,0.223452566922791,0.218286388339946,0.914503220436887,0.349785734078692
121,2.10909627692229,3,-0.885388276941672,-1.85292123796684,2.10909627692229,-0.0305543129131975,0.078188346920326,0.0839463139853731,-0.0479915908465582,-0.195650353138455,0.20740959985055,0.0133852553289151,0.157558639742953,0.15854039892399,15.0774953464394,1.61772558979795,1.4764180285996,0.101119913707496,4.99318872316868,0.0924282451842596,0.301354595893607,0.00782055590411137,0.162642237246569,NaN,NaN,NaN,NaN,1.76448514358837,-124.664357217421,1.83815105888351,unstable,unstable,0,0.594133753630742,0.21584349525647,0.192124531503956,0.925128914715985,0.358920779918107
122,2.28615780631701,3,-0.704178468571922,-2.09016210550802,2.28615780631701,0.00307289874558661,0.00953574704128315,0.010018641541445,-0.0384226196379625,-0.239951211087975,0.249067341497535,0.0160753181982393,0.197074823687188,0.19978991562301,15.4212259815332,1.55605483557648,1.44010296467041,0.0326379680412459,0.0865209508450824,0.104123592934342,0.457039222416821,0.00718980288274389,0.0143982808319592,NaN,NaN,NaN,NaN,3,-97.1526305433791,2.12466049259746,stable,stable,1,0.649600064809138,0.162451244527937,0.105901953148997,0.960139776120294,0.353722847584737
123,1.43237009494664,2.6460325717926,-0.807082878549519,-1.16819303331644,1.43237009494664,-0.0143306501780576,0.0365191093396694,0.039230254670198,-0.0420684208705527,-0.0862099858117333,0.0983940515398087,0.00634550807418843,0.149377686618261,0.149990468848941,15.4714597857134,0.757375129216358,0.861409307182772,0.144993276407289,0.240222354162857,0.096661149119761,0.399779824906705,0.156618561558273,0.0423200252693818,NaN,NaN,NaN,NaN,1.66518818535526,-124.488998271363,1.7926870617286,stable,stable,1,0.411963452422226,0.280266270646544,0.253157112067338,0.914784341224648,0.357039489280106
124,2.26227920410668,3,-0.672438322900808,-2.11790156205522,2.26227920410668,-0.00399564959761745,-0.031135221947892,0.0313905600690946,-0.0306243562294052,-0.243659992245441,0.24817764893665,0.0160166120626717,0.187435808509428,0.187461788865047,15.3840497203577,1.33594644786275,1.1314244596262,0.0726899504451204,0.436587269341376,0.097775249339314,0.416748144451984,1.410952573323e-06,0.00275496019950163,NaN,NaN,NaN,NaN,3,-100.530616564359,2.08546340416104,unstable,unstable,0,0.640766812201458,0.171742115088664,0.10404769985214,0.944268539075741,0.356544333626972
125,2.25405728098674,3,-0.708487699338018,-2.09694920395876,2.25405728098674,-0.0126250360668054,0.00180834651403599,0.012753887752484,-0.0336268264227815,-0.246247467130565,0.251136102831017,0.016204575298055,0.195264245146021,0.197100143252502,15.3978963722583,1.4469365735989,1.28666473143634,0.0686167372127474,0.240201135267011,0.112083544569466,0.463713973403788,0.156762828907781,0.0422178433932215,NaN,NaN,NaN,NaN,1.59718321662841,-120.692341177793,2.39893857378085,stable,stable,1,0.640501970246964,0.170175324532606,0.187129506175102,0.944213335425492,0.35018509130246
126,1.60133696698823,2.4435338973999,-0.8784777475013,-1.31698058319528,1.60133696698823,0.00175130488476769,0.0336484330669525,0.0336939774538507,-0.0437994607453209,-0.093680042528538,0.106625022518299,0.0068830840145106,0.111008048935545,0.111756832033684,15.4044493046845,1.57050613888737,1.53306043884843,0.0386475578907439,0.0966916491568043,0.129947058172205,0.447112549954249,0.00887535568930597,0.0234687553182871,NaN,NaN,NaN,NaN,1.57811714801433,-123.111297136965,1.80952460843802,stable,stable,1,0.4493745576036,0.195671538542498,0.129881618497093,0.956291055086704,0.342245751923464
127,1.68152977178103,2.71183252334595,-0.943871370758445,-1.37403952748527,1.68152977178103,0.00112685590415906,0.00935014461217365,0.00941780274253491,-0.0528893761541716,-0.106495376722565,0.121892367994244,0.00787300119446562,0.155783063719496,0.156094374765305,13.8040360916893,1.48642067664772,1.67512423583624,0.0877834008018115,5.24011817722653,0.102059896968127,0.40543694450768,0.0172151105462791,0.246725263551845,NaN,NaN,NaN,NaN,1.53181850141805,-119.504479623187,2.1938262809567,unstable,unstable,0,0.479626814094669,0.233544716271571,0.23749626766095,0.931267589572434,0.354640045791944
128,1.66132059808849,2.33016300201416,-0.857531067518152,-1.40952354004754,1.66132059808849,0.0437103734441172,-0.0581056226646081,0.072710797904204,-0.0408395775135569,-0.105333845084787,0.114645691109106,0.00739291996794894,0.0899527464612424,0.0920158784635912,15.4895507409325,0.785560900792735,0.525313086556387,0.17639202901329,0.240180756538431,0.0485094506544331,0.137440357796849,0.155881324462165,0.0432256066892476,NaN,NaN,NaN,NaN,1.67347133841587,-121.814224359451,1.56205272655371,stable,stable,1,0.46142200184965,0.163819853832379,0.183290903381732,0.901504261307041,0.378440244153585
129,2.18106032371521,3,-0.824618854696454,-1.96252480596935,2.18106032371521,0.0059653852917337,-0.0618199754515104,0.0621071266965731,-0.0427816357223084,-0.215419392654775,0.224772167107128,0.0145077693512654,0.153052362544184,0.155684546671144,15.402072743343,1.54139473021263,1.4873474765419,0.0241992224339979,0.100805594248362,0.101471401569384,0.278233888615807,0.00831898343849169,0.00850528635753969,NaN,NaN,NaN,NaN,2.98812679975473,-100.15154225882,2.37146544521855,stable,stable,1,0.612752995658285,0.195647733725116,0.124178797610474,0.964103128587073,0.354901599302496
130,1.96091007655828,3,-0.654465206234313,-1.78505624228485,1.96091007655828,-0.0191865289409399,0.0121395934889478,0.0227044626203403,-0.0316814647076737,-0.195320715190939,0.201997743267259,0.0130422737005878,0.198170233338328,0.198450145589583,13.5298201393365,1.62274928082724,1.10053220650779,0.0816156470099591,4.48693380012447,0.103726084048044,0.428371659085677,0.0104082351048359,0.235167479497599,NaN,NaN,NaN,NaN,1.67291748571223,-123.514973806059,1.85281563342244,unstable,unstable,0,0.562599382866791,0.237957717588117,0.232915959911722,0.937794964808817,0.353899518200869
131,1.57401658969672,2.63981652259827,-0.79027987719572,-1.3455227272331,1.57401658969672,-0.0384950075951096,0.00529542236141557,0.0388575231806316,-0.0357759759861853,-0.0976135619929292,0.105814330491048,0.00682653526136868,0.128386804304738,0.129972209572587,15.4074769764427,1.09780791120259,1.02134338178106,0.177368587811792,0.240939288585412,0.181510487593371,0.440311945192459,0.159544393139075,0.0375624808488035,NaN,NaN,NaN,NaN,1.54515709711904,-119.107877075441,2.30823426994497,stable,stable,1,0.445732199166975,0.246928864152631,0.23272502160952,0.894665231649232,0.319328672180724
132,2.11869354486465,3,-0.818806935600509,-1.89928182082748,2.11869354486465,0.00244755605640645,-0.00578775767046567,0.00628400107425883,-0.0437711787264165,-0.197389836124591,0.207487056860861,0.0133851636184073,0.161012318806343,0.162433940239907,15.4414476070902,1.19196995677721,0.93938805023477,0.0434258179064508,0.0846269233309595,0.116139850928777,0.336161861461351,0.013606607501341,0.00605859197675638,NaN,NaN,NaN,NaN,3,-98.8062245222683,1.52917530580353,stable,stable,1,0.597471733345223,0.199446019269067,0.127918117028331,0.961540706705966,0.348382288476099
133,1.9320336719354,3,-0.666414407698794,-1.76644058912893,1.9320336719354,-0.0195836221726062,0.0263829057995889,0.0328569014946537,-0.0310858779588903,-0.192226874251199,0.197876910978022,0.0127654016531318,0.195659546716523,0.195990771457997,15.4541176126707,1.1674878404137,0.87422920686784,0.0754677380759322,4.01078234384399,0.0963573868201787,0.453637712767961,1.36917200191184e-06,0.00198852599012442,NaN,NaN,NaN,NaN,1.68330103474598,-120.509023497779,1.60088003672167,unstable,unstable,0,0.554407133474373,0.246316189088555,0.148513422334068,0.946224068447679,0.357174494746587
134,2.21117147908139,3,-0.739530381093345,-2.04394979922407,2.21117147908139,-0.0081090400390505,0.000396235530797971,0.00811871498149744,-0.0315315957626516,-0.228269427532077,0.232841257772855,0.0150179609273051,0.15543440049491,0.157447340000644,15.4733327438776,1.12907934870556,0.695053011849301,0.061631453611977,0.425416036959193,0.114149429632464,0.311603197979165,0.000349411285935583,0.0311485109633436,NaN,NaN,NaN,NaN,3,-102.269542710179,2.28576742919967,unstable,unstable,0,0.621135195755166,0.178974848286629,0.118866934136235,0.954851804646795,0.349266920163349
135,2.20088717519589,3,-0.671642138241045,-2.03133412274839,2.20088717519589,0.0167729955286952,-0.0398638901819341,0.0432488510765654,-0.0324287378602881,-0.234000732624297,0.240775900868758,0.0155356876472617,0.209843196916955,0.212036849475359,15.385910158125,1.24430503546,1.0147644611512,0.0696941842845671,0.240094208692236,0.112937212962,0.493431512602071,0.158600153693069,0.0393455918244774,NaN,NaN,NaN,NaN,1.71044333906111,-120.370167332204,1.61501377779476,stable,stable,1,0.629310616613976,0.187729341611628,0.19743405010007,0.947403076098629,0.349805683128
136,1.61781956200616,2.74930024147034,-0.741048696697251,-1.41590044583483,1.61781956200616,-0.00857845645153714,0.0350313739368074,0.0360664258693781,-0.0348311161926994,-0.113749376411307,0.121451180295945,0.00783993427941738,0.165220312888272,0.165711646738075,15.3993213672748,1.69220924546134,1.47579968427795,0.0332377710799889,0.0827411609230196,0.109915493625043,0.449661828475487,0.019435032866394,0.00464159327041908,NaN,NaN,NaN,NaN,1.66149639163359,-116.91481150861,2.09165691349483,stable,stable,1,0.464560879215923,0.261195330955493,0.167042843056694,0.95848961572634,0.351148669499981
137,1.80070581706241,2.74304986000061,-0.892460223947961,-1.5492776456777,1.80070581706241,-0.00334360279504004,0.00920348592014545,0.00979202904066952,-0.0450540471285532,-0.129572547168655,0.138963210769299,0.00896253194490394,0.120026884866339,0.120533543005939,15.443407730184,0.942478520187199,0.777698349173655,0.0746530222522371,3.99680246896689,0.112213221726674,0.339951228855721,3.22508030039015e-07,0.000659995813159818,NaN,NaN,NaN,NaN,1.50463962214456,-118.009747287404,1.79897180625478,unstable,unstable,0,0.504294926484496,0.213822614985218,0.128533710805546,0.94915781347176,0.350127457010367
138,1.7345887072183,2.87302899360657,-0.7899599336737,-1.51756025582517,1.7345887072183,-0.0692382889565616,-0.00105780962827621,0.0692463689939191,-0.0385424082893576,-0.126512254248517,0.135136770103507,0.00871592713165099,0.171898836193422,0.174025726120762,15.465132824495,0.790999312221141,0.833974466536055,0.17553323740175,0.240261412844759,0.147620317834421,0.39247128299303,0.156649543568295,0.0404256350028441,NaN,NaN,NaN,NaN,1.62198882751374,-116.427624599585,2.18048210758403,stable,stable,1,0.497362133815699,0.268844232086246,0.245628789525559,0.899465730180319,0.334390969851369
139,2.31509580314159,3,-0.600518879265068,-2.19587189699135,2.31509580314159,-0.00188698702735567,-0.0356721358323979,0.0357220099502597,-0.0264533645919593,-0.260218179319442,0.263630440420968,0.0170085164150415,0.16815619635471,0.169774266474846,15.4339675118006,1.34387798396688,1.14962879836893,0.0310054527793116,0.102313258335915,0.0902060566972992,0.308918258984384,0.019557464487274,0.00461257552402803,NaN,NaN,NaN,NaN,3,-100.33835635475,2.04883733348474,stable,stable,1,0.651313734132728,0.160652479450689,0.106760994299757,0.964905434606277,0.359908419245645
140,1.94862343919092,3,-0.692538302329765,-1.77827551696477,1.94862343919092,-0.0177525214357128,-0.0037986149673009,0.0181543794439591,-0.031622440199061,-0.186636332669691,0.191947134558844,0.0123899038623323,0.165481302212758,0.165974506536491,14.2178864672483,1.57027727637344,1.10673027758236,0.0820381087358811,4.56847433631427,0.10220477334489,0.43554388246724,0.00726995881809277,0.152991812154866,NaN,NaN,NaN,NaN,1.62484937329115,-117.662804067615,1.87668885051793,unstable,unstable,0,0.552827818424877,0.239888029080102,0.202797296494236,0.937947314850978,0.35457565629116
141,1.58772833452744,2.61476159095764,-0.685927380256907,-1.39561305175848,1.58772833452744,-0.0455608609046606,0.00409898110135259,0.0457448761332138,-0.0289613189804887,-0.106680392362546,0.113355003909932,0.00731394596738676,0.135054633999308,0.136651681451391,15.3802772197863,1.0907081329214,1.15859370226625,0.176354925377666,0.243298311960622,0.150650736267856,0.472105251307452,0.159050577073079,0.0363104160506327,NaN,NaN,NaN,NaN,1.58700801541868,-119.377240163094,1.62797319714497,stable,stable,1,0.450724558830928,0.239469043321218,0.227574359013319,0.894149451463264,0.333044117214286
142,2.40947783311208,3,-0.507491210179049,-2.32311932797494,2.40947783311208,0.0487894215911487,0.0256516933791295,0.055121838071818,-0.0229137196257173,-0.284144380033303,0.286051352849846,0.0184546023952387,0.178123110840115,0.180572750647767,15.4433663888591,1.31293314063931,0.929840942585017,0.0345540799122178,0.132815838184939,0.100511541459299,0.290398776850771,0.00531228001952267,0.00968761595245075,NaN,NaN,NaN,NaN,3,-102.460692774955,1.88329392007057,stable,stable,1,0.678641972292775,0.142973157862948,0.0916676774970339,0.9651011636757,0.355328203795867
143,2.32582659768053,3,-0.585630945820467,-2.21390648539724,2.32582659768053,0.0179595146563912,0.0836456250781831,0.085551941891538,-0.0252925789307746,-0.26987386181963,0.272451732127607,0.0175826026519364,0.193497022113316,0.195798519229559,14.3475311683484,1.38484502206752,1.06914388056005,0.0979084917095449,4.67637727672867,0.0997318007075958,0.404743981676615,0.010146814932381,0.182015451712746,NaN,NaN,NaN,NaN,1.50542716708844,-115.316950545559,1.70938578638016,unstable,unstable,0,0.659380129894053,0.167373538201996,0.171121255433154,0.931764412767439,0.355674755241069
144,2.41764044188536,3,-0.47926154313265,-2.33988254801868,2.41764044188536,0.00522344339449693,0.0390621595686773,0.0394098549992806,-0.0223103553760566,-0.30758895488021,0.309200744817281,0.0199521383243403,0.182648122535332,0.184740660838246,15.4069858704074,1.48121253456919,1.02065205110956,0.0616639001788339,0.430814216321407,0.107325300946837,0.325749575214262,1.4063903374421e-06,0.00270851305654698,NaN,NaN,NaN,NaN,3,-100.955060334027,2.33702418345168,unstable,unstable,0,0.681652250003746,0.138256040658995,0.0839391632965137,0.949510542451679,0.35229986624585
145,2.20318599116993,3,-0.629007504243346,-2.06590362818188,2.20318599116993,-0.00309936740703912,0.00503331590150777,0.00591103605877915,-0.0280980851360833,-0.236283982636848,0.240250982176551,0.0155027281324621,0.21567839647062,0.216929072633475,15.4238180905326,1.53549482534914,1.06242846264554,0.0677216878370431,0.240070570431815,0.111344945607375,0.345718115490713,0.15585303478397,0.0425532033233976,NaN,NaN,NaN,NaN,1.68254359450145,-116.590495520199,1.92602132871593,stable,stable,1,0.630902078838678,0.180366841930874,0.192962012735666,0.945726901675806,0.350513357507833
146,1.71109595358372,2.68182420730591,-0.81558963459401,-1.47576947182747,1.71109595358372,0.00588325840400786,0.00497548263524673,0.00770507345208149,-0.0410550386554007,-0.119958608324516,0.130200766701417,0.00840028207254576,0.202866801093109,0.203828943834687,15.431969978369,1.44837531692085,1.21793982114892,0.0332748460853371,0.0894177140314859,0.107545903665178,0.450931971364181,0.00264785946377112,0.0091139923799008,NaN,NaN,NaN,NaN,1.779143412243,-117.297381887505,2.03345112189119,stable,stable,1,0.497058043055929,0.219826453887041,0.136386877807804,0.962412958015355,0.352201820593254
147,1.55714286537841,2.44466042518616,-0.514403669937664,-1.4228864225282,1.55714286537841,-0.0304296589897715,0.0173994244983972,0.035052876046185,-0.0197051255121811,-0.109671485022157,0.113554439977207,0.00733234005216159,0.116005159497578,0.116492782066093,13.8961163961783,1.69235919761148,1.40580683247752,0.0834956503705786,4.89063669475262,0.104770544752975,0.461222792705304,0.0168203550460566,0.210863502036523,NaN,NaN,NaN,NaN,1.48754464037965,-118.732441752547,1.92662738012894,unstable,unstable,0,0.438536653847461,0.20611781156521,0.207824037397119,0.933909441721154,0.353435313443122
148,1.80272518953339,2.5337929725647,-0.201105455358423,-1.7563166036034,1.80272518953339,0.0354459487461855,0.0175305427850754,0.0395440920095097,-0.00679195026691849,-0.162318179845331,0.163134290942164,0.0105204680347399,0.13029193711711,0.134229276939149,15.4702564025246,0.817083344690284,0.508971738051308,0.149642800143724,0.240175906364118,0.0723394786459314,0.214658276078899,0.159467911656242,0.0356104227462544,NaN,NaN,NaN,NaN,1.75445964810256,-115.915142708198,2.40494193712083,stable,stable,1,0.507572572596734,0.171740001383788,0.186867872868048,0.914759595706597,0.367849120601808
149,2.38276827692986,3,-0.492299225945707,-2.30189816840347,2.38276827692986,-0.0209250863049292,-0.0303334470632647,0.0368507428365917,-0.0210560311533997,-0.283838811594919,0.285584522045298,0.0184294155992829,0.191545740110086,0.193058044259734,15.4010035715038,1.55871900613317,1.41735767053304,0.0261484818602172,0.0986807101972839,0.106895204482499,0.329656105083177,0.0100538898680447,0.0100798573592022,NaN,NaN,NaN,NaN,2.89228411426449,-102.374592577792,2.3123028903293,stable,stable,1,0.674016482699908,0.145633107210824,0.0955136624994769,0.963542299467514,0.95249102023
150,2.40451800304132,3,-0.644251545142152,-2.28233252765063,2.40451800304132,0.0177993040637251,0.0731346285981362,0.0752694435035909,-0.0292648950060392,-0.280913693880595,0.283955678088226,0.0183239096605089,0.194596119971215,0.196887288238041,15.4177517767021,1.37163904579313,1.29244112748708,0.0840145786422564,4.69741118824449,0.0971882431202067,0.435427754149401,3.8191827002773e-07,0.000538588017746024,NaN,NaN,NaN,NaN,1.57055207434036,-114.528428258895,1.67149063177963,unstable,unstable,0,0.680582258458627,0.147782847291361,0.0888657283045412,0.937060652174527,0.356805225279908
151,1.6210138627461,2.49150276184082,-0.486599914774912,-1.49707485921724,1.6210138627461,0.092277149639342,0.00544788861912859,0.0924378268674029,-0.0202504024598204,-0.122216501550499,0.126218151676116,0.0081386280618283,0.144846445513949,0.1466747345192,15.4963158332404,0.720475268187329,0.335694904886234,0.17975091278248,0.24019078258503,0.0770168216225363,0.151670018356447,0.158732829525568,0.0387041998511466,NaN,NaN,NaN,NaN,1.53043490962982,-115.371127707452,1.7132469203065,stable,stable,1,0.461605310302801,0.212806937222002,0.212306341058113,0.901826063677468,0.365770301501095
152,2.44005353212357,3,-0.484216132967808,-2.34854158815013,2.44005353212357,0.0142224565495991,0.00531562889411523,0.0151833520951464,-0.0234432323998673,-0.294428462606928,0.296603079674004,0.0191332678008737,0.191399869052122,0.192804089819477,15.4585632541465,1.3640847961243,0.870175250155482,0.0402757972747609,0.136193004131354,0.0940432455550423,0.287105118698852,0.00912573886095027,0.0120850708679397,NaN,NaN,NaN,NaN,3,-103.235441300153,1.66040109567449,stable,stable,1,0.689241759863513,0.128771569822975,0.0857133970566902,0.962307200998993,0.358203001975537
153,2.10504711542477,3,-0.61706489887687,-1.97180624718157,2.10504711542477,0.00865988578651267,0.0681283574335319,0.068676536811538,-0.0263397981884536,-0.225766689305654,0.229505056419362,0.0148025458770936,0.20580753148039,0.207195629727307,15.1354022294132,1.09679916699298,0.667963383969786,0.0880685776001887,3.15286414829914,0.0988315486287225,0.356332756691824,0.00379755094398887,0.0844193730791173,NaN,NaN,NaN,NaN,1.53053947457772,-117.277382087191,1.94191188225979,unstable,unstable,0,0.602785023392066,0.213955097444876,0.160758812733428,0.942099719728055,0.356074867276123
154,2.2715950012207,3,-0.427777233194056,-2.19876510406013,2.2715950012207,-0.0238187079291612,-0.0239595149119861,0.0337844520783211,-0.0143085157901764,-0.249075128193396,0.250191521245066,0.0161324171344665,0.136143481263923,0.137377561710349,15.5060231468162,0.853224116333545,0.18454527007592,0.0561884494722212,0.426599948267113,0.0938403972879652,0.0938403972879651,1.42136615429696e-06,0.00220270757046229,NaN,NaN,NaN,NaN,3,-102.931426400997,1.6379321851015,unstable,unstable,0,0.633234179334257,0.170084940939701,0.102852580853188,0.963751872942101,0.358293156760904
155,2.22218389919359,3,-0.62444373167038,-2.08518142147712,2.22218389919359,0.0106470137222973,-0.0184973895216597,0.0213427346026416,-0.0283671329334747,-0.24355302065598,0.247792550780764,0.015988273014522,0.21005288822615,0.211598824484042,15.4073019464173,1.3627043061883,1.11009076430376,0.0689174358871119,0.240111271275292,0.123310349185535,0.485767228013709,0.156671248712908,0.0411581822394332,NaN,NaN,NaN,NaN,1.68981233095603,-117.495671617653,2.08369485406698,stable,stable,1,0.6349021380151,0.178921457358592,0.191951152233212,0.946112177931149,0.345195400361984
156,1.50287136832873,2.52338790893555,-0.487928130835627,-1.38629144130903,1.50287136832873,0.0402790517032268,-0.0185180193878377,0.0443319190669607,-0.0185292522452278,-0.111018304431929,0.11384069718678,0.00734858004251011,0.130839114062974,0.131192399594909,15.4306745740746,1.75703094467315,1.54415188874851,0.0261664923643478,0.075730115765094,0.120253401600768,0.433731876759397,0.00883594722069276,0.00624711623697897,NaN,NaN,NaN,NaN,1.64682358488304,-115.230680905002,2.31247397530604,stable,stable,1,0.427004178139977,0.237743740132143,0.148845010364556,0.960978888698084,0.346554043732992
157,1.70308806144056,2.50952386856079,-0.262125919400042,-1.63465080565607,1.70308806144056,-0.024050422446236,0.00645193498713718,0.0249008089210101,-0.00997264887859798,-0.143535101874239,0.144965571811403,0.00936168008373408,0.179274096746177,0.180139368637898,14.4688294327716,1.77848714830888,1.52582222902458,0.0921269577363911,4.43475840082435,0.123026653067851,0.432665851773059,0.00605945657290531,0.145096731508177,NaN,NaN,NaN,NaN,1.69535374865113,-115.407012304463,2.16777879252577,unstable,unstable,0,0.490184690111729,0.186013204904237,0.167063462573878,0.927974090309899,0.3453214875254
158,1.61666807025468,2.30215215682983,-0.564608653796482,-1.46168395681816,1.61666807025468,-0.097155657609807,0.00572184759171288,0.0973240018980767,-0.0246277071827567,-0.114139861181145,0.118899059495616,0.00766778017197788,0.153954012591807,0.155771161070212,15.4719274381136,0.776399670892107,0.719228324451292,0.177819168195859,0.24017235755346,0.127811678170431,0.38816068048646,0.159240297663412,0.0370885628858066,NaN,NaN,NaN,NaN,1.65925020896733,-117.23842078182,1.97698820134315,stable,stable,1,0.462265717615291,0.172076653160723,0.18750620766491,0.899339053081515,0.343194809702031
159,2.48967133164406,3,-0.625398607856729,-2.36943196403205,2.48967133164406,0.00484235003884088,0.00526204563499015,0.00715104734730383,-0.0313117221955806,-0.294384514179998,0.297755859619251,0.0192247369569078,0.200350261015161,0.202064672263948,15.3707490086661,2.00706054670069,1.85595575553382,0.0257580245380208,0.171339437496314,0.132764639394807,0.382027911039462,0.00396882215302478,0.0115522393056182,NaN,NaN,NaN,NaN,2.88835322200788,-105.56852442763,2.24973466333072,stable,stable,1,0.704325289557872,0.116134975727093,0.0756457206861075,0.956768716784861,0.340993493602308
160,2.16813715749712,3,-0.545714555279135,-2.05662143059475,2.16813715749712,0.0139669450116451,-0.0150071819255647,0.0205010014951786,-0.0223249344221681,-0.234926649369971,0.237764808783943,0.0153376301942287,0.202395993987997,0.203222141800863,15.4219158251854,1.13958846800305,1.08792700912498,0.086778884117874,4.06936583174231,0.110166975509297,0.398074606935478,2.8601770759303e-07,0.000601772191233068,NaN,NaN,NaN,NaN,1.56544004446909,-115.546181583882,1.5719705703802,unstable,unstable,0,0.618814337026072,0.19092765650393,0.114775547272697,0.939108650620771,0.351036899773646
161,1.75633844588567,2.47568011283875,-0.211682768309951,-1.69673470849181,1.75633844588567,0.0200671360586994,-0.0591376740943677,0.0624496152661488,-0.00932437288506914,-0.151230228951848,0.153391672027881,0.00989332599097526,0.114317837635144,0.118726219423842,15.4430589663236,1.04355059113089,0.418998982802816,0.174881835105731,0.237367279556631,0.118302810767607,0.232896012215793,0.157287184823144,0.0353801192824097,NaN,NaN,NaN,NaN,1.70136515468512,-117.053321105748,1.5,stable,stable,1,0.492102162787613,0.17330097119657,0.186751496115771,0.901067621509084,0.347420972992175
162,2.18369001947518,3,-0.431085292693254,-2.09765969261633,2.18369001947518,0.0235064929955327,0.0200553132665385,0.0308993657405459,-0.0209116503033617,-0.238075675883891,0.240257281963644,0.0155049545396861,0.168749770201047,0.171088945581483,15.4294324400754,1.50035643468269,1.31940470077269,0.0265993748364903,0.134416937318677,0.0922385923824151,0.261803677257248,0.002572949087692,0.0080280170357751,NaN,NaN,NaN,NaN,2.85921158454158,-105.062668776886,2.21171988151507,stable,stable,1,0.616535127643011,0.189334629337185,0.117663589452274,0.964545046517463,0.35900507005226
163,2.1837574312936,3,-0.627662950622522,-2.04607349227303,2.1837574312936,0.0134173099465673,0.0187979217682168,0.0230951525001731,-0.0281768776235739,-0.232582047333543,0.23712326428544,0.015304239434481,0.200218988054664,0.202330684234707,14.7294441509519,1.49003880655573,1.16079997776996,0.0884796455979213,3.97230817430095,0.102098463588904,0.396918597140048,0.00714799519785273,0.212074031042523,NaN,NaN,NaN,NaN,1.71874998102098,-116.787170824054,2.20776504944701,unstable,unstable,0,0.622801451858568,0.187888689250638,0.193027929774993,0.934932158181337,0.354622905071598
164,2.31602964554001,3,-0.599566086045446,-2.18394717962783,2.31602964554001,-0.0213602496585492,-0.00551294879754427,0.0220602101059781,-0.0274608366729342,-0.24894048037894,0.252448078193626,0.0162803532155414,0.186335455453789,0.187662573552113,15.4648261480249,1.06175719214455,0.484155110615546,0.0583299437700514,0.430973479885019,0.0811682012372967,0.187013778292271,0.000780347562001925,0.0245504153493424,NaN,NaN,NaN,NaN,2.64390369362176,-106.697557678757,1.86076261807712,unstable,unstable,0,0.655140420187758,0.157937701606261,0.104036865865821,0.958688574307573,0.363925243894535
165,2.1812975810579,3,-0.648277808390231,-2.05360893471794,2.1812975810579,0.00960514225152793,0.0296064746037769,0.0311255858761916,-0.0278212275171016,-0.234600421847137,0.237685403712073,0.0153381835033973,0.175587907176781,0.177473940853881,15.3832932052608,1.40742920111857,1.13851337196552,0.0690886519918763,0.240108434371388,0.113463062922611,0.503158547325663,0.156174825942085,0.0422612872297558,NaN,NaN,NaN,NaN,1.65443912380199,-114.70021335318,2.33579801055248,stable,stable,1,0.61717414311955,0.189914401672607,0.198727415566422,0.945451839501258,0.349571972034395
166,1.44093118044844,2.37036061286926,-0.350998520423402,-1.35870897096205,1.44093118044844,-0.0380140700744148,0.0135728219625867,0.0403644772002635,-0.0135405389635566,-0.106687722025235,0.109083948268744,0.00703861695317333,0.120695755860678,0.120981649750143,15.4413815120021,1.39671003584751,1.40805874411983,0.0408652266567897,0.0742173850459364,0.104973224062737,0.439513385121165,0.034165639085577,0.00442553813350252,NaN,NaN,NaN,NaN,1.6985678915868,-115.061450151433,1.51681850781276,stable,stable,1,0.408444644736278,0.216521776448068,0.14670708094532,0.957529917686147,0.353345233749895
167,1.58993124501995,2.31838226318359,-0.270536544817294,-1.52671980758675,1.58993124501995,-0.0147384144945739,0.0080237920097206,0.0167810041424559,-0.00909178597936789,-0.12379492346816,0.125211453326725,0.00808135861236371,0.140098994284982,0.140756434199821,15.3846305668229,1.60865873095325,1.47466220007621,0.086985243945252,4.55427459295495,0.110994027811212,0.434279239479097,1.41810199028637e-06,0.00247642786843621,NaN,NaN,NaN,NaN,1.53242316823457,-117.234742424214,1.85989059875063,unstable,unstable,0,0.452132952178618,0.166977996512936,0.101087947400199,0.932281284997857,0.350669320972794
168,1.74958654773345,2.32346391677856,-0.318537039564151,-1.67440002208102,1.74958654773345,-0.0808390761514535,-0.0892444659214575,0.120413998067611,-0.0123243510455981,-0.148358500232211,0.150219201837746,0.00968733817463827,0.115856591373612,0.119629989943219,15.4847833208343,0.910957363818382,0.356300430946738,0.171956829531458,0.238613522997965,0.0459854385375088,0.116024575783988,0.158064961514921,0.0364986737840573,NaN,NaN,NaN,NaN,1.76822611766951,-118.998443980142,1.92064416139824,stable,stable,1,0.490482410717563,0.15119830768088,0.174242323627544,0.904064559703974,0.379562027316663
169,2.11935882369677,3,-0.445479341813968,-2.0290036526161,2.11935882369677,0.0600812635845155,0.0434001605977983,0.0741170167628643,-0.0222578992948313,-0.224708203124688,0.227420635379262,0.0146770129180205,0.189529496502236,0.190952611906109,15.3979463262508,1.62663563213218,1.48810683330005,0.0260134696635388,0.108061429833137,0.089453622670385,0.358779950107502,0.00719829541481844,0.00688091349049662,NaN,NaN,NaN,NaN,2.66549340284327,-107.193726307889,2.20044066707025,stable,stable,1,0.603352875367028,0.211732384408085,0.132740823411617,0.96252028865412,0.360242834368718
170,2.30094192354452,3,-0.494935680815757,-2.19367376195568,2.30094192354452,0.00487370238851614,0.00993419169850803,0.0110653124526393,-0.0214003362020178,-0.261854047673156,0.264616414419366,0.0170704868928652,0.199522439132799,0.200524469966609,14.8228341769352,1.18339406800024,0.846932761479855,0.0885111766916906,3.90485847382157,0.0805696570762756,0.355427257709467,0.00842807494405911,0.164602620763912,NaN,NaN,NaN,NaN,1.77840570795084,-115.675983280215,2.28587515992919,unstable,unstable,0,0.653689406938527,0.1593167078188,0.159191334237133,0.93979184370824,0.364191263521655
171,1.67930859917993,2.41060638427734,-0.238535548281649,-1.60462720514389,1.67930859917993,-0.0162690224015121,-0.0296092688272741,0.0337844622628019,-0.00969967331709777,-0.136485885811851,0.13819204340732,0.00891707698037547,0.158157136910977,0.162248393974471,15.409617746927,1.08244998680996,0.680609238604715,0.166339465579386,0.239348678346917,0.10116631822715,0.352876505639725,0.154849446671604,0.0414955589776578,NaN,NaN,NaN,NaN,1.68221562017466,-118.331726157389,2.17799084187118,stable,stable,1,0.480265305242875,0.170735819728432,0.186352762309244,0.90297765901062,0.355037191899045
172,2.02624780899726,3,-0.409625296741047,-1.94417893775903,2.02624780899726,0.0602106643109467,0.0342442315599521,0.0692675356274289,-0.0190889492245872,-0.204041006830531,0.206478482349383,0.0133169936245082,0.148938714133201,0.150154250764582,15.4672618365746,0.959346897595411,0.841525773268572,0.0327652525504637,0.134503688972343,0.102036275913614,0.249966878445992,0.00186369715942685,0.00920037979359362,NaN,NaN,NaN,NaN,2.5789773418386,-109.450212225276,2.09736390837336,stable,stable,1,0.570363599218853,0.231793291173978,0.143249877205237,0.969467659882265,0.354650544038394
173,1.83928896123142,3,-0.69969644089678,-1.67014011317617,1.83928896123142,-0.00347231577915308,-0.00597786927255509,0.00691316844217713,-0.0299746944674537,-0.161213405972552,0.16627305904544,0.0107350203279554,0.13976420567164,0.140426681410934,13.8598463684461,1.47079465335543,1.34028624072488,0.0784147271970891,4.55302482034259,0.100913212904591,0.38202664196427,0.0115338455400425,0.221179016972289,NaN,NaN,NaN,NaN,1.60572032516396,-117.151648626796,1.77750437970425,unstable,unstable,0,0.518562392610566,0.262427397937329,0.243011325780218,0.938705572233682,0.355149683153515
174,2.04785602589448,3,-0.50465883498104,-1.94870496694829,2.04785602589448,0.00747461124671796,0.0240545616186085,0.0251891196343381,-0.0243595571751928,-0.21626170443386,0.21932085746133,0.0141529123189311,0.223787577376066,0.22497550261501,15.4041685170948,1.40975006936086,1.24330727500587,0.0728316458623205,0.432586937580932,0.112148144533758,0.428987525584821,0.000575705383266596,0.0133813209824281,NaN,NaN,NaN,NaN,2.36078838964489,-107.709824257803,2.41609822073988,unstable,unstable,0,0.591090040761531,0.218850399440037,0.136432043625953,0.942738726505958,0.350156380207219
175,2.26118010090243,3,-0.670531293158582,-2.11974305638479,2.26118010090243,0.0115740407958266,-0.0204135501583734,0.0234663898035442,-0.0301269056151981,-0.248470125033101,0.252348870068537,0.0162862300647511,0.175387236904872,0.17624434464132,15.3465610556318,1.70743350935632,1.34503301417998,0.0699754148834215,0.240310034897709,0.124764218369268,0.44375992527279,0.157972815089278,0.0387958979392372,NaN,NaN,NaN,NaN,1.70036876942666,-118.357386427334,2.02538862143148,stable,stable,1,0.638230229168913,0.170536648760935,0.186639728546872,0.941028627016218,0.344549236280326
176,1.58392408490181,2.5758650302887,-0.367697957624205,-1.48875412892888,1.58392408490181,-0.0384551112125529,0.00367814541923517,0.0386306139233491,-0.0167659092697715,-0.129345334122177,0.133501811768824,0.00861524097078391,0.143522142388014,0.143741614589286,15.4048253047815,1.66775523091638,1.48729723202067,0.0287927507291876,0.0801919127059236,0.123858632608602,0.490425612616162,0.00904356777536458,0.00719308623239361,NaN,NaN,NaN,NaN,1.79740384781532,-119.424856454763,2.14704268416,stable,stable,1,0.451128078891673,0.23026899193133,0.144796426335386,0.960813926712329,0.344951718840621
177,1.8906342603464,2.97852063179016,-0.585950209553744,-1.73659355279761,1.8906342603464,0.00876164694289802,-0.00243376421896586,0.00909338580648114,-0.0304570863122968,-0.16151664555987,0.168988461439609,0.010912952378591,0.186718044701971,0.18786531963006,14.0248699444489,1.81259029194855,1.46058043677106,0.0928828949722765,4.81652618385016,0.102365166527077,0.40839926673319,0.0152469189075205,0.225890129378704,NaN,NaN,NaN,NaN,2.00389774569212,-119.82849383685,1.69705240437813,unstable,unstable,0,0.541742200018386,0.246441554306034,0.236783206215582,0.927840782502493,0.35450437043241
178,1.68496454755465,2.49622344970703,-0.335469176366066,-1.60307053643891,1.68496454755465,0.0505637995384811,0.0146763210029797,0.0526506621226191,-0.0129474252160203,-0.138100866987349,0.140594439615817,0.00906608594282818,0.151728061682272,0.154968090282183,15.4894667163223,0.768646523268603,0.457943417230654,0.163358160201088,0.239406416108437,0.0681435903158133,0.127592620689143,0.158627635972441,0.0350452269160235,NaN,NaN,NaN,NaN,1.88108853169074,-121.75609313085,2.17246338980413,stable,stable,1,0.480317497404344,0.192185874373432,0.19855641504592,0.908683427509819,0.369713959859639
179,2.31835747083028,3,-0.541413018973226,-2.22046841627583,2.31835747083028,-0.0375819699614777,-0.0264082428442392,0.0459325566053722,-0.0252472528703944,-0.261878156463372,0.264314803093696,0.0170586785792472,0.174145505914149,0.176486095539282,15.4182327353947,1.67054517818732,1.43292473426526,0.0268873386566465,0.127056350776269,0.0987947888209446,0.305200156076827,0.0106238547630391,0.00707854341777728,NaN,NaN,NaN,NaN,2.73243854491602,-104.018907315581,2.13175595690825,stable,stable,1,0.653525877995931,0.161790537774172,0.104370051680803,0.962171924216692,0.356091204968469
180,2.40271188274643,3,-0.522569931040496,-2.28596039529431,2.40271188274643,-0.0205378283456708,0.068947761130977,0.071941616315805,-0.0243452801114674,-0.282828859071553,0.286573442401807,0.018494989587727,0.204986939232444,0.207335341411107,14.5582294017638,1.5591822428073,1.23705991847144,0.0960654925065756,4.83613704572581,0.090402867299394,0.463383119699501,0.0136279499620741,0.219863083004637,NaN,NaN,NaN,NaN,1.85620598441334,-119.444845846151,1.99124520085249,unstable,unstable,0,0.682190237014603,0.147579122706617,0.174554552275467,0.929996779622379,0.359820947866936
181,1.85600004155757,2.85519075393677,-0.409467194828454,-1.75093343879799,1.85600004155757,0.115406077961547,0.00608810791801362,0.115566551772077,-0.0182680103945006,-0.16263835810862,0.16559620535114,0.0106771594946364,0.163125948158186,0.167260498998616,15.5084968886225,0.681481107764872,0.184076024226155,0.161141737330852,0.239966323334671,0.0798296600978241,0.0798296600978241,0.158985951756839,0.0361934236589061,NaN,NaN,NaN,NaN,1.8944468966032,-118.434379956689,2.39364711893539,stable,stable,1,0.528385444215075,0.246005111443533,0.231424734836035,0.912628325297502,0.364520151067634
182,2.36626937866211,3,-0.294111972045432,-2.30931057335927,2.36626937866211,0.0260954264074208,0.00635695421084378,0.0268585581560865,-0.0136718455192732,-0.282598003690377,0.283565647843205,0.0182955945210781,0.2094585800445,0.211081411018873,15.4376391835846,1.60564010718859,1.11805771501047,0.0324223481823015,0.0871347439814659,0.106866823403688,0.285852617326429,0.0040516066478682,0.0160726749807602,NaN,NaN,NaN,NaN,2.61222307005049,-99.3162222201901,2.06685272136868,stable,stable,1,0.673221449847004,0.147513458796308,0.0961533984274168,0.962388343020142,0.352503634042805
183,2.33762513712092,3,-0.594988878498586,-2.21184165471319,2.33762513712092,-0.00438361768629549,0.024565551165382,0.0249536051118592,-0.0267790713259779,-0.265083913018305,0.269037568356844,0.0174012023793289,0.205568067245128,0.207775028653747,10.7745964883698,1.79198598186718,1.14075031796153,0.0947439504648564,4.01704328138881,0.112411672797266,0.40514334356537,0.029788618358682,0.295765680473422,NaN,NaN,NaN,NaN,1.87171872539055,-121.350351106356,1.5589463786414,unstable,unstable,0,0.664921708962996,0.153609171751633,0.212956045523961,0.929585096697489,0.350039256534548
184,2.09622336021198,3,-0.266909551678368,-2.05511009211145,2.09622336021198,-0.0097176800200048,-0.0436441804301277,0.0447129487999701,-0.00691724622786971,-0.214442161111838,0.214804227455316,0.0138558969587602,0.112598604669101,0.113867646266216,15.388446445619,1.2199560928741,0.607179332267856,0.0620828388359544,0.424668104138051,0.103943016637994,0.257186634877796,0.000572790844524414,0.0206479951961582,NaN,NaN,NaN,NaN,2.70378156394852,-95.0700514349474,2.03231865558612,unstable,unstable,0,0.581766425309771,0.211547117898966,0.134691206337569,0.954602516527336,0.353803103716447
185,2.43342107093497,3,-0.692186457833363,-2.22263907731463,2.43342107093497,-0.0350745518120551,0.0481787733576829,0.0595937780902294,-0.0445229599570058,-0.268966421119745,0.282337388090583,0.0182107261164635,0.237483039662831,0.238718198496044,15.4619365112946,1.09125318894943,0.793844997699148,0.068343300879604,0.24015497449416,0.101351643161843,0.424640915305887,0.158370248581126,0.0385313157965617,NaN,NaN,NaN,NaN,2.15708888634091,-124.745911655981,1.70321518505435,stable,stable,1,0.696655925281869,0.138405785022839,0.167441635723257,0.951016863807959,0.354954825261403
186,2.07764718453089,2.85043382644653,-0.680121609988691,-1.91331462257286,2.07764718453089,-0.0252082236564635,0.00888696147118051,0.0267288724809808,-0.0338328649178621,-0.195694839740163,0.202767952767362,0.0130887087757143,0.135288330986357,0.136417875973738,15.4235870509143,1.77260794625361,1.73939539368207,0.0279805345286052,0.0788301014034495,0.122171657652502,0.453937632363577,0.00807557150421923,0.0142612664002037,NaN,NaN,NaN,NaN,2.10837557196529,-122.363616262261,2.30457712522148,stable,stable,1,0.581322824402986,0.178777287719199,0.116041430576903,0.95841542077906,0.345701485487777
187,2.03709524783032,2.90045261383057,-0.831903027739891,-1.81034367090319,2.03709524783032,-0.0210656937211093,0.0128447433626252,0.024672877497432,-0.0451600221907037,-0.174587867395042,0.184304725316004,0.011893654834431,0.179355773227761,0.180531730265106,14.9003509109388,1.38511237668382,1.00667154383499,0.0842909467738798,3.13279158996129,0.106971584408723,0.374075815840383,0.00586072761003419,0.073810804263462,NaN,NaN,NaN,NaN,2.09849345512064,-122.244984043751,2.07799704971526,unstable,unstable,0,0.579331745474439,0.198778768224586,0.148712321220874,0.939061938666127,0.352457073596123
188,2.11273070832957,2.97204303741455,-1.05361520597702,-1.80732327610034,2.11273070832957,0.0761405975337049,-0.0751233413325898,0.106962175584467,-0.060433352538133,-0.173657084997214,0.188112668894781,0.0121343136491406,0.147486999193556,0.152208857919962,15.4482673710595,1.0150010659743,0.838375086847981,0.172648070988198,0.240248368133954,0.0786641452782843,0.194258751570202,0.158370998509928,0.0397304612671834,NaN,NaN,NaN,NaN,2.08252249604559,-123.526280590972,1.66271688726789,stable,stable,1,0.593836627138545,0.212955006234605,0.212607554650414,0.899113723305155,0.365038157654096
189,2.37558520078659,3,-0.844279251981017,-2.16186556007816,2.37558520078659,0.00610709055870157,0.0348512946099526,0.0353823302098928,-0.0470129378137636,-0.253981430068198,0.264393494144246,0.0170665821052943,0.221303987632898,0.222746002632181,15.3848952697882,1.80030156220015,1.60277182695906,0.0220483957396787,0.101366608038342,0.100394522607931,0.289150590786407,0.00320801244535034,0.00720641764861255,NaN,NaN,NaN,NaN,2.71977714743149,-106.924123588306,2.39537777881686,stable,stable,1,0.67803858740286,0.146980090361497,0.0922343530345295,0.962237368358195,0.355380212174253
190,2.38768577438267,3,-0.550207369950076,-2.23409818725689,2.38768577438267,-0.00396001510441856,0.0108768118247969,0.0115752647960755,-0.0295474027365895,-0.270018005267217,0.275991223220107,0.0178057768923829,0.213368415745026,0.215774761928565,14.9689137931163,1.13195340518896,1.11510630022156,0.0926069364228348,3.78850717946641,0.0860111166881339,0.445689276496662,0.00767013146515008,0.225645966960875,NaN,NaN,NaN,NaN,2.06580628279313,-122.281189709167,1.62661400188173,unstable,unstable,0,0.679871158887757,0.139892832643181,0.169397725798617,0.936041062674643,0.361772837027496
191,2.05102390531571,2.89583611488342,-0.984735455129978,-1.78350524782063,2.05102390531571,0.0195285980524329,-0.0675115115415613,0.070279231160563,-0.0524433345176353,-0.16658576987511,0.176835067583913,0.011403659708853,0.141865266176441,0.145149170789611,15.4849239170284,0.855625376306745,0.589529795503055,0.175275706089354,0.240269097375532,0.10594404359946,0.223890292341304,0.152511748603296,0.0413969601143029,NaN,NaN,NaN,NaN,2.07634549688122,-118.754548572983,1.72484452453627,stable,stable,1,0.575969542242111,0.202967272865506,0.204616803140111,0.901007356319675,0.35291375840024
192,2.18329204281171,3,-1.03966277526414,-1.87541312516812,2.18329204281171,0.0019734077977149,-0.00775374036754981,0.00800092669779278,-0.0629102053638077,-0.192674248672548,0.208972723643348,0.0134785927550403,0.172806971164949,0.174922779258977,15.4700432016881,1.08266699636659,0.822314667201607,0.0333925969434145,0.0980055601615066,0.080312444710803,0.210692525423993,0.00217183305317135,0.00716416417998818,NaN,NaN,NaN,NaN,2.68099720733185,-111.612146549017,1.93182195326711,stable,stable,1,0.617195767268252,0.185226126928627,0.114706085902824,0.9683359884574,0.364305580128532
193,2.48457715133768,3,-0.61919788745916,-2.34603965429503,2.48457715133768,0.0131670255933539,-0.00321367581072104,0.013553533679172,-0.0315551001201166,-0.292406340772033,0.297556003109429,0.0192036246007304,0.210483575308158,0.212847115956351,15.4144918728408,1.48363982279556,1.4496675371014,0.0852832442190453,4.82661080637807,0.111678429186897,0.407640622434614,2.830978157437e-07,0.00119675232483436,NaN,NaN,NaN,NaN,2.11900443077325,-120.570247299149,2.24521113592232,unstable,unstable,0,0.705123330214651,0.118454955456871,0.0715082817589501,0.934310962919858,0.350365142583602
194,2.18095039161958,3,-1.06113807363891,-1.8716491527013,2.18095039161958,-0.00947205025366218,-0.0290961637676703,0.0305991255104291,-0.0590089367272232,-0.184790272672888,0.198422467520783,0.012798724629379,0.144833606775412,0.146447478497145,15.4205629089448,1.05593798667905,0.797932678127635,0.0605085408410425,0.433636083130809,0.0819511576436844,0.306096756747523,0.000600950670419075,0.00703641718168666,NaN,NaN,NaN,NaN,2.61715863552686,-112.220792726245,1.89774864917729,unstable,unstable,0,0.610876266797984,0.189896001562506,0.116763387281334,0.955179602927426,0.363577263269474
195,2.4148092983861,3,-0.583151108741459,-2.27148105115476,2.4148092983861,-0.0459572351655676,0.0442158979489021,0.0637739217509086,-0.0293657400447856,-0.276199269143732,0.281064309967189,0.0181428172143332,0.175376413433874,0.176656516873179,15.3791605311518,1.59011289373864,1.55242495942518,0.0682488909887304,0.240201634809464,0.153974317043005,0.483117011584303,0.158271060430547,0.0396421785170746,NaN,NaN,NaN,NaN,2.08957514186263,-119.371133784789,1.92790276417967,stable,stable,1,0.679280449610928,0.143359793517462,0.170773907277737,0.941184185659348,0.331566970203109
196,1.92049559354782,2.77063798904419,-1.01409027349112,-1.59600482195045,1.92049559354782,0.000385662370673821,0.0101578375122287,0.0101651560927019,-0.0594553322107303,-0.136535929013901,0.154754141646957,0.0099861459224991,0.136371245175681,0.137594688063335,15.4296862974051,1.62665493026302,1.28647327698608,0.0366341470646357,0.0912477192234341,0.0964854183235455,0.445624586127478,0.00221599545465884,0.00625380199796637,NaN,NaN,NaN,NaN,1.98818975952798,-117.123132335998,1.90020611100604,stable,stable,1,0.539651095892086,0.193145650937012,0.119146387248387,0.958794061982154,0.357117591856202
197,1.83183876894786,2.81404900550842,-0.926486388377712,-1.53651502191646,1.83183876894786,0.0213336831165555,-0.00426306823976271,0.0217554541698049,-0.0499141611897724,-0.129723706604552,0.144895712983881,0.00935497121477594,0.178340161874524,0.179344187176037,14.4913626558555,1.52732603163914,1.34262841817099,0.0945454546458718,4.59365798604395,0.0989505303567859,0.470788861203777,0.0121650382793701,0.163962367881492,NaN,NaN,NaN,NaN,1.96491164649544,-115.571452830696,2.29663042339117,unstable,unstable,0,0.524359175821303,0.224985803157258,0.200020844803708,0.930177630571413,0.356021986508095
198,1.85106014916974,2.88447523117065,-0.877956871524388,-1.59987494865218,1.85106014916974,0.0109314426692763,-0.0607295817102815,0.0617055794360399,-0.0455183589965446,-0.13828542785423,0.149180881090878,0.00962002037020629,0.14933568585093,0.152084293068238,15.4784623613684,0.849705526861178,0.644437405607053,0.176188912797038,0.240234481211915,0.117280392396431,0.25652096387613,0.156153030290112,0.0417640610873938,NaN,NaN,NaN,NaN,1.88489007794024,-115.359098105949,2.09054990949814,stable,stable,1,0.524032898392244,0.24383108301348,0.2308869279082,0.900165849132088,0.347875381157142
199,2.20665457328161,3,-1.11402168627738,-1.86567084853179,2.20665457328161,0.00331361350106513,-0.0121437730378567,0.0125877423722214,-0.069805902949072,-0.191097319354198,0.209780410184239,0.0135388168202581,0.163363506120659,0.164528944451663,15.3826192776788,1.66632446185414,1.48504919656488,0.028828928586849,0.121937932089113,0.103437425933811,0.365166261493903,0.0065318657891184,0.00518795160507935,NaN,NaN,NaN,NaN,2.68563096804021,-116.007396076949,2.16211932938957,stable,stable,1,0.621347008432094,0.180810473779879,0.11327586358615,0.96082474267614,0.354027810696084
200,2.44471685300794,3,-0.349128876434364,-2.37668893930882,2.44471685300794,-0.0109068919536231,0.0230333593094457,0.0254852100867549,-0.0132046516568039,-0.298535549414286,0.299699580192434,0.0193428350795571,0.174325764331585,0.176769289902544,14.9705946588263,1.65645181416681,1.35144449956505,0.0847857197447015,4.5253278325281,0.111031876246103,0.376503188427065,0.00756888550303156,0.129229594445416,NaN,NaN,NaN,NaN,1.97177383483815,-114.893051128023,1.83838379007735,unstable,unstable,0,0.687278352115958,0.12961099658912,0.128123126864263,0.933973669091185,0.350652499446177
201,1.77698192426137,2.51777172088623,-0.764969495297516,-1.58080092858858,1.77698192426137,0.0417670616201546,-0.0218951212092301,0.0471580721525877,-0.0346816377727941,-0.134338209077976,0.141185478938899,0.0091046999526907,0.125551182666765,0.128246129226578,15.4826637353953,0.893934022994615,0.552876326097417,0.17138948444593,0.240192007931324,0.109445739371123,0.239993676302012,0.158218257655725,0.035796352618787,NaN,NaN,NaN,NaN,1.87135485490829,-114.338554000358,2.46879457938014,stable,stable,1,0.499511072315013,0.175323350801902,0.188530091603649,0.902937462177026,0.35135744916839
202,2.20756271203359,3,-1.01706083186261,-1.90812621882604,2.20756271203359,0.00686876781734925,0.0385930801854759,0.0391995638946561,-0.0611440448372342,-0.201583358291245,0.217207811951592,0.0140140159239131,0.208843582762027,0.210492707251455,15.3998126043545,1.39168400908839,1.21723044628944,0.0326721293471922,0.0756163171334132,0.0948066509649294,0.322310468853428,0.00160927241568978,0.0066742807672515,NaN,NaN,NaN,NaN,2.45321237213052,-112.912057666969,1.99799507629381,stable,stable,1,0.630781931325915,0.185484976506463,0.11443322927672,0.963165321748435,0.357863710682254
203,2.38945866084238,3,-0.307282778883857,-2.32726617129969,2.38945866084238,-0.00343872689412994,0.0303566833170129,0.0305508275609978,-0.0111889982657108,-0.289334512579583,0.290443757307202,0.0187468888477362,0.196782653658226,0.199026142827825,14.4936200509446,1.67468542552215,1.56820236700978,0.0845458904444857,3.96406453769826,0.113133947494472,0.420220693088789,0.00166050781782012,0.247170519594412,NaN,NaN,NaN,NaN,1.87029192840855,-111.765439209843,1.50732456681883,unstable,unstable,0,0.6769942047902,0.142972786363314,0.176401864235997,0.932247222122149,0.349718245558013
