scenario_id,mean_wind_speed,max_wind_speed,wind_velocity_x,wind_velocity_y,wind_velocity,wind_acceleration_x,wind_acceleration_y,wind_acceleration,wind_body_force_x,wind_body_force_y,wind_body_force,mean_wind_body_risk,mean_wind_gust_risk,mean_wind_risk_raw,min_thrust_margin_n,mean_abs_roll_deg,mean_abs_pitch_deg,mean_abs_vz,max_abs_vz,mean_tag_error,max_tag_error,stability_std_z,stability_std_vz,mean_imu_ang_vel,max_imu_ang_vel,mean_imu_lin_acc,max_imu_lin_acc,wind_speed_cmd,wind_dir_cmd,hover_height_cmd,gt_safe_to_land,label,success,onto_wind_condition,onto_gust,onto_temporal_pattern,onto_drone_state,onto_tag_observation
1,2.05325019116304,2.69743466377258,-1.2682710505857,-1.59621156841383,2.05325019116304,-0.0682852222650855,0.0131131020887947,0.0695329060674389,-0.0870331723977729,-0.133907438140325,0.163623003032093,0.0105527726687003,0.127201068839982,0.129918790558151,15.470009262749,0.815970931820062,0.876076795859832,0.176376560072287,0.240288998929766,0.139255142316671,0.334393319586302,0.156500558418947,0.040586675965714,,,,,2.0716688985117,-127.374480982322,2.31472368639318,AttemptLanding,AttemptLanding,1,0.573517142421775,0.157689205782844,0.17892811847172,0.898517059246372,0.338108825637035
2,2.33644086852366,3.0,-1.3877097569206,-1.83822990226288,2.33644086852366,0.0045503961325483,-0.0209626532811953,0.0214508493433412,-0.108976652424096,-0.182824821487189,0.222771479006914,0.0143831914791275,0.229420129359424,0.231123086848608,15.4039678099245,1.87175500696155,1.81469552248894,0.0221693593418891,0.0922208314139743,0.203414279817681,0.575576628457912,0.001554288311654,0.0088400651124084,,,,,2.42882567996652,-126.095851442396,2.33524515102998,AttemptLanding,AttemptLanding,1,0.669275515642697,0.153233460295123,0.0958454401140384,0.959950351883373,0.309593653414364
3,1.66762584301051,2.6443874835968,-1.0284798944161,-1.29566860641665,1.66762584301051,-0.0473707953761684,-0.0102816778354588,0.0484737573712105,-0.0633378257723337,-0.0989352103309722,0.120755360273991,0.0077876055066076,0.141835011830685,0.142722019027941,15.4604815637082,0.581867108716889,0.886558397165394,0.168719118657942,0.245981341828644,0.253735223569836,0.462971053785026,0.169892526299926,0.0049358482753965,,,,,1.87319628751653,-127.297520073929,1.76707097207549,AttemptLanding,AttemptLanding,1,0.473244628608392,0.22865822464997,0.214497578174942,0.90410281169624,0.287228789524517
4,2.33334088559244,3.0,-0.696071700703791,-2.19816057835171,2.33334088559244,-0.0255558526031736,-0.0152952497945157,0.0297833219865039,-0.0329478125596041,-0.258842315718217,0.262508288445578,0.0169395440052063,0.222396068017307,0.223443722072089,15.4323134545869,1.37933306064422,1.12074667420417,0.0644446898053542,0.240225304940054,0.170045312963486,0.654800642562542,0.0018294877128335,0.0080281999948005,,,,,2.46779887999601,-105.553838771394,1.75128690527315,HoldLanding,HoldLanding,0,0.666912980572402,0.155458576439226,0.0970075969663388,0.948134171466371,0.324424305349562
5,1.82792531450589,2.54641222953796,-1.06654477398264,-1.46849573306957,1.82792531450589,-0.0480845796022761,0.0155593530940111,0.0505392942593359,-0.0616882422576574,-0.114067125254476,0.132499001185418,0.0085456087346385,0.132096065133885,0.134397763691108,15.4386130046058,0.929379502950535,0.775170183713242,0.180688135856513,0.240197939961338,0.136891762652995,0.373057872369857,0.159420581116449,0.0366213862779141,,,,,1.88084050141636,-125.058018224367,2.42995751484506,AttemptLanding,AttemptLanding,1,0.514326303273127,0.170925093163094,0.18672551524259,0.896263041676528,0.339159216598669
6,1.8823828139034,2.68730688095093,-1.03942314933355,-1.54867335357402,1.8823828139034,0.0044263993929791,0.0025185760706551,0.0050927631998594,-0.0600275185139847,-0.126597440579174,0.143618331638227,0.0092733656348506,0.150620576631715,0.151780473291697,15.4105983992874,1.9914244213428,1.71387928680736,0.0252108269667499,0.050731114918288,0.125302937946298,0.434150132014373,0.0067328324492117,0.0054342422421505,,,,,1.9161886291726,-122.783489357006,2.0165652678643,AttemptLanding,AttemptLanding,1,0.532324845032579,0.182041588339001,0.114193411068883,0.958281485952588,0.344309805357201
7,1.91016830866401,2.88938784599304,-1.08010601067407,-1.54292440155862,1.91016830866401,-0.0862558285130371,0.0065863005402196,0.0865069205744637,-0.067932152468301,-0.130698546697083,0.153308616070637,0.0098888081688139,0.187369594909164,0.189803561268884,15.4510417876035,0.906450325895968,0.986388681721577,0.17590819175735,0.240311040895791,0.156103480795551,0.437901060186336,0.158966009655986,0.0351126135441998,,,,,1.96867067391655,-123.586570068552,2.3020971235136,AttemptLanding,AttemptLanding,1,0.547338927897513,0.23618399800435,0.225130181756697,0.897173597632901,0.330620675201977
8,1.92311224583033,2.79823803901672,-1.11972248557475,-1.53914633232008,1.92311224583033,-0.0727084760768359,0.0135244444030938,0.0739556156747288,-0.0695917086557937,-0.126347489943491,0.148806972970482,0.0096012311389672,0.152761434866478,0.155098780721483,15.3904030246435,1.07347216987654,1.2016946416089,0.176690574262327,0.240221043638623,0.184448409013783,0.519656529230482,0.156107565685854,0.0400186934485996,,,,,1.96461919299708,-125.030810267647,1.65667415651983,AttemptLanding,AttemptLanding,1,0.543849688365718,0.210461833007306,0.210210492272334,0.893778402207165,0.318022929327208
9,2.61417042048986,3.0,-0.807612511653485,-2.45131615738245,2.61417042048986,0.0029868732543572,0.0024944487629579,0.0038914889783496,-0.0432523170241304,-0.312944452532762,0.318137464792056,0.0205532978241813,0.198527412647034,0.201005417539515,15.3191412530061,2.28602751586092,2.06776968216568,0.0293176195661935,0.0728346852421129,0.136819995887404,0.519777380003282,0.0170759480113009,0.0057164348015738,,,,,2.98365709536118,-106.900241715489,1.82278659059161,AttemptLanding,AttemptLanding,1,0.737313195638531,0.0875250950358134,0.0621830708129416,0.95113278366098,0.339191112938932
10,1.89844088986416,2.66474175453186,-1.14682507157438,-1.49844896965688,1.89844088986416,-0.0541149267671973,0.0058988730582044,0.0544354847721221,-0.0713819718900041,-0.119745035346209,0.142214675551772,0.0091750201274886,0.129349049468679,0.131520489750011,15.3765217779976,1.09173568544007,1.05767156952329,0.176466568082122,0.240277672673102,0.147806731030749,0.448664697650843,0.155536113613727,0.0408397967163123,,,,,1.92399487038037,-126.353098118705,1.54056507555475,AttemptLanding,AttemptLanding,1,0.532555001913778,0.182397533425122,0.193416516830742,0.894878516098513,0.334308119541889
11,1.84505319998071,2.7255380153656,-1.1456159027348,-1.4206626881875,1.84505319998071,-0.0707726559015777,0.0100799338318571,0.071486879141684,-0.0729092237923271,-0.108504705004135,0.135812033645134,0.0087608726359513,0.144754544989904,0.146882658052388,15.3972894033643,0.88543870090916,1.11395071233164,0.176939444718619,0.240223009876703,0.161789612651881,0.523533591016223,0.156391234373888,0.0417485600056925,,,,,1.90759543141243,-127.844704273722,2.16536660938615,AttemptLanding,AttemptLanding,1,0.521390718272,0.211215011304242,0.211417516607353,0.895820789393798,0.328093505488053
12,2.61807540627228,3.0,-0.780942502126738,-2.46723636076245,2.61807540627228,0.0081012813264561,0.0027453732945867,0.0085538198284168,-0.0402973882278154,-0.317079494627962,0.321523234790543,0.0207598058029404,0.197667874419277,0.200235216711603,15.3875727545122,1.94864035014244,1.85613830649563,0.0271849331572058,0.0510786371780043,0.127107513768837,0.443721637191004,0.0090506394289151,0.0052083399770875,,,,,3.0,-106.299635778902,1.94211324998103,AttemptLanding,AttemptLanding,1,0.738200485014928,0.0875012338906143,0.0584171885570698,0.956512843976384,0.343507771658295
13,1.95067266314416,2.90393233299255,-1.03732974589623,-1.62174999651993,1.95067266314416,-0.0808011529608759,0.0028943303918245,0.0808529743931781,-0.0641052871889171,-0.144159907521745,0.163107812090689,0.0105211675570113,0.195232248994293,0.197839114144977,15.4050808555068,0.882545839765977,1.06245288641324,0.176257172319922,0.240346994190524,0.155381598934517,0.460212400772824,0.156588634820132,0.0397233738617848,,,,,2.02726066309477,-121.319262228342,1.76801870037228,AttemptLanding,AttemptLanding,1,0.559747199667439,0.229306471021304,0.221623694644197,0.896589280991488,0.330941511584659
14,2.63758706012404,3.0,-0.737426295257628,-2.49415514556881,2.63758706012404,-0.0284622369655698,0.0054173492741546,0.0289732049701519,-0.0364070400018719,-0.328947578452392,0.332797054947699,0.02148482922782,0.206468137791456,0.208524494654516,15.3816722469341,1.84249766199219,1.47670704457081,0.0627983393919828,0.240274026982481,0.136122721304196,0.493386049886103,0.0018763236440315,0.0106619586878473,,,,,2.96211416560549,-104.652706865072,2.00166965281464,HoldLanding,HoldLanding,0,0.745061448297314,0.0868546657166186,0.0568237969360306,0.942521364752442,0.339501012753691
15,1.72257954727959,2.61022686958313,-0.926464183766422,-1.42217247157134,1.72257954727959,-0.0736621800965133,0.0065085009796491,0.0739491538935588,-0.0511211502806587,-0.111197432335288,0.127084291869726,0.0081977189684997,0.178579551898518,0.180499604807103,15.420611776044,1.04539753047594,0.95060529626325,0.17608811974817,0.240222646649024,0.1633653848678,0.453833801165412,0.158933515030233,0.0349915721309109,,,,,1.78867162897179,-121.8764556945,2.08828058308308,AttemptLanding,AttemptLanding,1,0.495454466902644,0.213277992398782,0.211328121278088,0.896273060772964,0.327393162280978
16,1.76744036411362,2.509432554245,-1.00177796837784,-1.44238472442021,1.76744036411362,0.0059120041344172,0.0006217686742089,0.0059446100939921,-0.0541720592276554,-0.109153272535575,0.124112802756769,0.008013099933123,0.113688295801122,0.114712049513691,15.4172624796884,1.98198237291626,1.8258421287646,0.029537781529602,0.0582490399725081,0.131583936125116,0.474266473692993,0.0212658657982348,0.0073845109721239,,,,,1.79698325918466,-123.928221238646,1.68941752613879,AttemptLanding,AttemptLanding,1,0.494259840333037,0.168038087963458,0.112959625405537,0.955312488150564,0.341518250611059
17,1.86004446084435,2.78616619110107,-1.01145862395993,-1.54496322576742,1.86004446084435,-0.0447102014421132,0.0155461867827863,0.04733588529308,-0.0557439184981423,-0.127749463258694,0.141966975602748,0.0091571651194187,0.139665970851108,0.141912984014985,15.449326252882,0.929304948212799,0.988370162413685,0.175908158289034,0.24027242787506,0.158494505801993,0.433571004591382,0.15948702243902,0.0340247110669243,,,,,1.90606506718967,-122.683382350962,1.75051649881512,AttemptLanding,AttemptLanding,1,0.524394453028157,0.217055634944828,0.21348912425706,0.896978473557704,0.329557997421336
18,1.81982787235363,2.52445125579834,-1.04057579661856,-1.47792720656139,1.81982787235363,-0.0456215225592614,0.011197727293601,0.0469756577087224,-0.0595503633286675,-0.116635830464167,0.13357290401521,0.0086186981477711,0.128326033191397,0.130491464501167,15.3540003010591,1.08833847586333,1.17857691292439,0.177292986655725,0.240243300964474,0.188161414251823,0.493950704629451,0.155822779680449,0.0418891041254917,,,,,1.87952489310621,-124.36494621675,2.17536572700163,AttemptLanding,AttemptLanding,1,0.511385725527868,0.167152465188325,0.18477844936004,0.893542028617377,0.316372704776967
19,2.61376463130964,3.0,-0.780226543393497,-2.45898260109144,2.61376463130964,0.0082938260659355,0.0022024557961881,0.0085812797615597,-0.0411889701223499,-0.314954030262353,0.319809846558317,0.0206607466019705,0.200030259977564,0.202449436266495,15.3709507977472,2.31890632930636,1.99920690181371,0.0232859897957882,0.0594145222267149,0.144078504878196,0.422641489248653,0.0005568803254969,0.0050244352905947,,,,,3.0,-106.031594526481,2.1097423409534,AttemptLanding,AttemptLanding,1,0.737493788935869,0.0884761925782843,0.0551602852922562,0.954428972571877,0.335965108943024
20,1.89867377361736,2.66383218765259,-1.01363412902561,-1.59095514486868,1.89867377361736,-0.0484788412292875,-0.0032271647869637,0.048586136289035,-0.0560777463692177,-0.133958224914536,0.14750029304557,0.0095165087014282,0.124225327101428,0.126565881574343,15.3648049915444,1.09472881011737,1.15881820499701,0.176451250698838,0.240269705304664,0.186058288456987,0.502043758540749,0.155754590901333,0.0407483214354628,,,,,1.95533603544456,-121.682915799118,2.05340098204112,AttemptLanding,AttemptLanding,1,0.531626182612831,0.181068101477583,0.192682694940442,0.89406793381754,0.31730742735245
21,1.91969160856427,2.80880689620972,-1.05431929103622,-1.58133474895842,1.91969160856427,-0.0645754515841555,-0.0098513821264776,0.0653225740238357,-0.063029283185812,-0.134895567322947,0.152826792977901,0.0098578793776142,0.157312858368755,0.159614560353109,15.4195373544588,0.934743981270562,1.02758422516931,0.17648161374413,0.240244009543145,0.15823353599281,0.492937797265423,0.159090599088139,0.0355886394184362,,,,,2.01006102178809,-122.843348050567,2.34105581661838,AttemptLanding,AttemptLanding,1,0.543840674354428,0.212026744957928,0.210864303327704,0.896340900077336,0.329673984003195
22,2.63286397768104,3.0,-0.738229920628534,-2.49456305959977,2.63286397768104,0.0076696564202922,0.0028428591010071,0.0081795768517392,-0.0371546542346058,-0.3239112155054,0.327695803980395,0.0211586473405576,0.196318671321625,0.198834949921036,15.390387555852,2.14354626198748,1.76008405590827,0.029382146625469,0.0512703309919298,0.13324648884052,0.431963268331054,0.0156015358343539,0.0060028486221474,,,,,3.0,-105.373889448931,1.81387577698419,AttemptLanding,AttemptLanding,1,0.74186405069915,0.0841051941112525,0.0595799864375483,0.954637545618085,0.340779338293102
23,1.66732362355735,2.65625953674316,-0.816653037653486,-1.42836409654459,1.66732362355735,-0.0620113017613751,0.0013520633273971,0.0620260398653792,-0.0404430837453727,-0.112422728160303,0.122653106702707,0.0079120427598966,0.176051542959937,0.177920217413829,15.373423802868,1.01542651319704,1.06316494794305,0.176851343959712,0.240240069624828,0.166408573633192,0.471938972661401,0.155193228248336,0.0416989734932911,,,,,1.75191981509009,-118.497538474994,1.89491709730033,AttemptLanding,AttemptLanding,1,0.480203676431392,0.233882021108795,0.224467243864118,0.895242537968329,0.326040633940804
24,2.64032120930521,3.0,-0.558668737222745,-2.547040388626,2.64032120930521,-0.0069277503808737,0.0107847299151755,0.0128181170490434,-0.0267394855281932,-0.337970956454829,0.340092279911234,0.02195256631019,0.193355816414209,0.195140045510771,15.3531891914636,1.67351593897242,1.35409453391197,0.0757635206482698,0.241827719031674,0.169269910363054,0.503961111465159,0.0682239888886352,0.125044397806498,,,,,3.0,-102.185830974197,2.23398732061928,HoldLanding,HoldLanding,0,0.743113664916877,0.0832777160319855,0.125759092570038,0.938329871674631,0.324768928727532
25,1.72892167344189,2.5810980796814,-0.945876757245435,-1.42964846373604,1.72892167344189,-0.0584215814404092,0.0022961851795961,0.0584666883308552,-0.0500921094833521,-0.109101137340235,0.122741124690281,0.0079159420594579,0.134549104009563,0.136521363158042,15.4645487858156,0.775712264722996,0.80635506646923,0.175517036236349,0.240205046822551,0.12840966356218,0.384462210889947,0.156406600283305,0.0406212954477674,,,,,1.79680657025774,-122.144595008979,2.42932796052028,AttemptLanding,AttemptLanding,1,0.488350052216113,0.202458584264545,0.205760575291909,0.899810952851029,0.342929038416809
26,1.86099546210822,2.62636661529541,-1.03416858982961,-1.53238902747569,1.86099546210822,0.0043362337220374,0.0044201397445297,0.0061919753111027,-0.0579237583504876,-0.123676268926362,0.139048060673393,0.0089783579893166,0.13039979956476,0.131535396494564,15.4195687368447,1.97194031279276,2.00723455406281,0.0226386729802714,0.050013168864743,0.13595068311566,0.427987966501809,0.0005563471885749,0.007492768071959,,,,,1.89015622586425,-123.159855511628,2.14529053715208,AttemptLanding,AttemptLanding,1,0.522572535861104,0.173343704940821,0.106978131316895,0.957415718127428,0.339577474170818
27,1.72119119038453,2.518718957901,-0.840010751309458,-1.4825623858309,1.72119119038453,-0.0611944339429696,0.0019562992132554,0.0612256960124771,-0.0409566497247101,-0.117806005699841,0.127127135190083,0.0082020153307675,0.135906830677538,0.137920294774124,15.4007240285412,1.07732293766372,1.0603636745118,0.175946942452145,0.240208253426692,0.167158085119886,0.461387835771285,0.160306055797349,0.0363539562463623,,,,,1.77620387229689,-117.832865156267,1.54266028833732,AttemptLanding,AttemptLanding,1,0.486568376390699,0.190668458626827,0.198867831539251,0.895230419678263,0.325707517724495
28,1.73786099617546,2.4579553604126,-0.978733077620633,-1.42228303928661,1.73786099617546,-0.0440141027364639,0.0068295614790399,0.0445408144255579,-0.0523936497933212,-0.107318284860628,0.12163295723955,0.007846516126665,0.121092634491565,0.123065830314724,15.3777124813549,0.98080703215191,1.05763227192988,0.177740647372216,0.240198756045491,0.148149389176303,0.490243252713258,0.159064650553214,0.0360901152915497,,,,,1.77693740749085,-123.63065316624,2.01988230176974,AttemptLanding,AttemptLanding,1,0.488042765043066,0.170187047931376,0.185931307292535,0.895113367496106,0.334155827032754
29,2.63259438009166,3.0,-0.522383000257772,-2.54477963390541,2.63259438009166,0.0060894791674383,0.0064744616871473,0.0088882175192219,-0.0238528646245998,-0.3363477400143,0.338073609086925,0.0218300071309277,0.198192256761568,0.200919059959681,15.4161540091369,1.82406006370559,1.87063619565074,0.0260612149426994,0.0482586490774563,0.1368372608831,0.448386219186152,0.0067033755531817,0.005169535054302,,,,,3.0,-100.208461528465,1.98896456044341,AttemptLanding,AttemptLanding,1,0.74220898001638,0.0842957710245663,0.0554365715672132,0.957939636205136,0.339183439607511
30,1.85922507337622,2.49830746650696,-0.937703073942691,-1.59188207188545,1.85922507337622,-0.049403449153117,-0.0007438895312383,0.0494090493721475,-0.0484676824671382,-0.13425246988042,0.144581074446772,0.009326299967711,0.129237073562928,0.131598793362842,15.4199356254825,1.06156244438141,0.921250764524792,0.176607921063508,0.240229199854229,0.155894437379666,0.444990122235519,0.159291107769619,0.0380128163754361,,,,,1.90894849737311,-119.745808657761,2.24886667694046,AttemptLanding,AttemptLanding,1,0.522113111572893,0.152851864172644,0.176330008719535,0.89611679282684,0.330713583386815
31,1.90523516571762,2.9743378162384,-0.958316155426526,-1.61402743975847,1.90523516571762,-0.0939262599998889,-0.0082412394471886,0.0942871165387543,-0.0557753254480847,-0.142923659231553,0.158331555067053,0.0102127757621433,0.193060685237419,0.195419137451528,15.4356928050955,1.02708953633612,0.944605316325785,0.176220827900856,0.240280801049015,0.131033080163659,0.449604633585111,0.15617455707144,0.0380699654158285,,,,,1.95935225919259,-119.13516242978,2.04422730417368,AttemptLanding,AttemptLanding,1,0.547146538348337,0.257834067732615,0.237954978681116,0.896397697921514,0.341763075482818
32,2.6205031377416,3.0,-0.645216087525252,-2.50523821740338,2.6205031377416,0.0069248588425755,0.0059326026286729,0.0091186316922734,-0.0313148255465531,-0.327244510404696,0.330119236221664,0.0213202850984108,0.194827907430266,0.197423814063165,15.3648777078628,1.97578703246093,2.03826681412951,0.0167223317138163,0.0680460875993369,0.138435694971173,0.50556111469107,0.0001377084256657,0.0060958186294972,,,,,3.0,-103.01941117063,2.3826125652149,AttemptLanding,AttemptLanding,1,0.738285599543726,0.0870585431517236,0.0545129909555917,0.960099839634167,0.338473024457257
33,1.89169168632303,2.75892901420593,-0.834665895184476,-1.68601109700704,1.89169168632303,-0.0515716059745466,-0.0059115918351161,0.0519093195950294,-0.0390538822034868,-0.150368067277893,0.156511292463005,0.0100934130292667,0.125396148665118,0.127985099915581,15.471553146438,0.784781476742989,0.749063669622577,0.175922749495819,0.240224417481889,0.146478662649484,0.380580452265502,0.155433172592773,0.0396430459799549,,,,,1.93692079365451,-115.089103932968,1.61281685407268,AttemptLanding,AttemptLanding,1,0.530048136335923,0.204645107366076,0.206284127544498,0.899986984816361,0.334898372155785
34,2.67455553194372,3.0,-0.570035560263007,-2.58055960352832,2.67455553194372,-0.0248195571664305,-0.0113238380956903,0.0272807574520049,-0.0243137582273184,-0.340476854877487,0.342272592094221,0.0220937575235069,0.202896588352598,0.205028526153039,15.343859837507,1.78344335584803,1.44250303622118,0.062890850185307,0.2403954623248,0.128685420077055,0.471998838450392,0.0018407747924427,0.0084862876195885,,,,,3.0,-101.157933097739,1.5326423627461,HoldLanding,HoldLanding,0,0.754220513748932,0.0782264775121979,0.0508399314080528,0.943207853255374,0.342806479965753
35,1.81287057576953,2.46734547615051,-0.819979612612307,-1.60437966643574,1.81287057576953,-0.0461381798492957,-0.0011317663199495,0.0461520588360793,-0.0377510745185145,-0.136186243908997,0.142692053241639,0.0092032513805284,0.122940020891755,0.125268773427095,15.4192422735911,0.835015711500237,0.873041442472839,0.17619209660374,0.240209987167961,0.132972985807838,0.49792118662465,0.159275855524888,0.0349472806624333,,,,,1.86137587595629,-115.841095627455,1.61136008018957,AttemptLanding,AttemptLanding,1,0.50848590822396,0.155718063372336,0.176928209204641,0.898483502631199,0.340900895196516
36,1.98531403230584,2.76323962211609,-0.892731360584087,-1.76039502143521,1.98531403230584,0.0046538968607973,0.0030206904295721,0.0055482724033925,-0.0440356499511766,-0.162137624126459,0.169500931850039,0.010946547595475,0.132496252480837,0.133825882779847,15.379081159208,2.11457829467956,2.07887159733826,0.0253112433820191,0.0645295133876625,0.141451028319142,0.512054185587782,0.0038284329928373,0.0086005213888152,,,,,2.00134863438598,-116.022448666907,2.04353717707858,AttemptLanding,AttemptLanding,1,0.556182251837527,0.176050440981261,0.110459252686556,0.954395843443136,0.337132876302604
37,1.80800615532978,2.47540688514709,-0.809007920446695,-1.60134135709748,1.80800615532978,-0.0469896903319205,-0.002816794219099,0.0470740409053922,-0.0372040576187779,-0.136522547033638,0.143219016586706,0.0092363653535192,0.130175478074958,0.13233408761114,15.4602766301537,0.921615331168528,0.686896634550866,0.176645148116076,0.24022490297383,0.141100274651986,0.36285311653312,0.159299593526752,0.0351280912000057,,,,,1.84847057739295,-116.145839673518,1.93012991522005,AttemptLanding,AttemptLanding,1,0.508601792276836,0.158795405041551,0.17885091371561,0.899039117639881,0.33728876682134
38,1.95679635776056,2.79602694511414,-0.772386952617051,-1.78328385541844,1.95679635776056,-0.0539416861651376,-0.0126774611176646,0.055411402497393,-0.0345327159146468,-0.167721046693852,0.172477455124204,0.0111254540351196,0.148268547404782,0.151059388299851,15.4156105714696,1.06728516996658,0.838193990997217,0.176960669172641,0.240256786004945,0.170138892637303,0.462421008787061,0.160166143226411,0.0369056935046448,,,,,1.9993932608471,-112.620106358339,1.74914702808564,AttemptLanding,AttemptLanding,1,0.552024239729452,0.198985639279077,0.203996588296025,0.896548043434678,0.324382714383421
39,2.62550826774393,3.0,-0.633812881771412,-2.50825568820711,2.62550826774393,0.0082634036051621,0.0037029475084444,0.0090551454649884,-0.0317267761942295,-0.327335453406505,0.330335940478693,0.0213272031683632,0.20373947569271,0.206376724705631,15.4304000550248,1.92350645236926,1.83159423535241,0.0205277585206898,0.0560617950274671,0.132627128675719,0.407269661062326,0.0002132294544302,0.0049738454557036,,,,,2.9987372183553,-102.731971335258,2.20994161448247,AttemptLanding,AttemptLanding,1,0.741410883006174,0.0859207497595302,0.0534558895769329,0.960231758193271,0.341054609477458
40,1.92181449161993,2.62451386451721,-0.288796329674571,-1.88707792857031,1.92181449161993,-0.0461424512861564,-0.0124826903211289,0.0478010812466467,-0.007070069919837,-0.186549843242236,0.186818072912587,0.0120504148851007,0.123097298008289,0.126127481196856,15.4189081731302,1.06970105275165,0.758894911371192,0.176018616050694,0.240234823657985,0.166718322238143,0.377966182485006,0.156429463556703,0.0400056992446164,,,,,1.96262077332345,-97.9255988407311,2.33883152522156,AttemptLanding,AttemptLanding,1,0.537709360671354,0.166870890463773,0.184194267301507,0.897623152256545,0.325902967894159
41,1.88981308486011,2.72006368637085,-0.277198666098168,-1.85333379190985,1.88981308486011,-0.0546588305187483,-0.0159574582265046,0.0569405674956607,-0.0075850454377383,-0.181736804424601,0.182090121038863,0.011745902617614,0.142513881227615,0.145461237583738,15.3669146537044,1.13201363850465,0.752162839327733,0.177125021216234,0.240258495747504,0.154623657904409,0.462913695466155,0.158819121329249,0.0374328205167688,,,,,1.94919332297993,-97.076725643542,1.80074752129822,AttemptLanding,AttemptLanding,1,0.533042403479443,0.197245489380788,0.202545504508177,0.896633245637485,0.331278374264707
42,2.60117283034883,3.0,-0.625982912781865,-2.48851776891838,2.60117283034883,0.0022672615086865,0.0054050144088112,0.0058612844589073,-0.0304907017627317,-0.323705825062012,0.326498891029475,0.0210792992350474,0.201031099964989,0.203486792931666,15.4001905544922,1.88633128895669,1.80839744563335,0.0218809484158718,0.0503948551870969,0.127278984302795,0.409114051439084,0.0004404947137393,0.007044472725169,,,,,2.97766096785849,-102.83550377438,2.15911092157049,AttemptLanding,AttemptLanding,1,0.734343446679354,0.0908106819889801,0.0572438110672327,0.960029514306,0.343431562532091
43,1.82514010410051,2.6551570892334,-0.252099468937832,-1.78887041929602,1.82514010410051,-0.0545766517646017,-0.0110312491620838,0.0556803320384368,-0.0068235888318245,-0.169700593247352,0.17004417888713,0.0109686405881002,0.133757982179792,0.136397510567453,15.4224725448653,1.08922554475809,0.763808554657912,0.176610328744935,0.2402374553032,0.157970318322987,0.402147847677788,0.158572434312099,0.0361812188032842,,,,,1.87761184680711,-96.9149867627548,2.31095262776996,AttemptLanding,AttemptLanding,1,0.513983529873627,0.196961882528613,0.20181057382677,0.897135281989264,0.329790969634228
44,2.56459944745869,3.0,-0.647332839168123,-2.44360938891043,2.56459944745869,-0.0339110473710841,-0.0131092419034379,0.0363567236847156,-0.0287098778607378,-0.308304996694932,0.311039669372502,0.020077272199585,0.222793195411535,0.224560523792575,15.4155281197427,1.72268287093495,1.45077251926227,0.0628917233487507,0.240228391345904,0.12690008029327,0.414942117893786,0.0019159884887402,0.0082653620553545,,,,,2.70268226585959,-102.84402520654,1.91189803843457,HoldLanding,HoldLanding,0,0.7288052907475,0.104630523663992,0.0666354508397824,0.943619845974075,0.343599964314102
45,1.71137020011876,2.49675035476685,-0.259731793541587,-1.67500007072873,1.71137020011876,-0.0572524251745709,-0.0199085190382133,0.0606150915091674,-0.0067773855619385,-0.149554709565523,0.149893324440139,0.0096688428415042,0.134894926489797,0.137409892293697,15.4130212159302,0.966154364283188,0.815424999774135,0.175528113385236,0.240194779538615,0.14846719967914,0.494476017857122,0.154942633656719,0.0408074788480886,,,,,1.74484723470437,-96.8322370152764,1.60033661810299,AttemptLanding,AttemptLanding,1,0.483847365157076,0.187823301572499,0.196396456897306,0.898237819732646,0.334014577920382
46,1.66006314276054,2.47077822685242,-0.228328568704327,-1.62012183594929,1.66006314276054,0.004296487740518,0.0035169058118991,0.0055523358502698,-0.0067560627629876,-0.141350995051785,0.141740233024042,0.0091524206531354,0.171384516385264,0.172442933861867,15.3759248383005,1.97043819976883,1.80068486687316,0.0275909248357022,0.0701649555802194,0.130058714008804,0.461489097493913,0.0105631118040838,0.0081010738027697,,,,,1.71876069037497,-96.5690723186371,1.94043665059485,AttemptLanding,AttemptLanding,1,0.477172091508518,0.183428822159888,0.117697854672492,0.956574284915676,0.342196127107198
47,1.78894298028626,2.47086977958679,-0.133642993269994,-1.77376589985108,1.78894298028626,-0.0463540986366067,-0.0212891303004305,0.0510091122189062,-0.0025240478788182,-0.165527373750958,0.165585615925207,0.0106809434756232,0.112182354178541,0.114824743029791,15.4291009179751,1.01635035486422,0.733373239266463,0.176326109853001,0.240220734559294,0.135304851245691,0.402232630308187,0.156904440914045,0.0402654250248221,,,,,1.8330973949862,-93.5355183886098,2.15376701090775,AttemptLanding,AttemptLanding,1,0.500016410015627,0.162785200416086,0.182048400058859,0.898089116833901,0.339864510557471
48,1.71278993250097,2.57472467422485,-0.228433904194855,-1.68019506928098,1.71278993250097,-0.0509914078495951,0.0236367698571297,0.0562033856966168,-0.0056391763380272,-0.149716354840316,0.149959511974096,0.0096703570968137,0.136109067122057,0.137835755835391,15.480604017803,0.741342274346964,0.52379727021359,0.147525477417603,0.240292634677304,0.162823457718259,0.354939009621639,0.12766420387201,0.004839898125313,,,,,1.76093856199151,-95.8152911333806,1.5793061680979,AttemptLanding,AttemptLanding,1,0.484311133167337,0.204239270932254,0.181043171679349,0.916296879155366,0.327634018791885
49,2.60821426114111,3.0,-0.677447135526704,-2.4856210489633,2.60821426114111,0.0086595708086215,0.0011281406267953,0.0087327468681598,-0.0331129063548363,-0.323447483433852,0.326592709894282,0.0210857272582069,0.196604718015473,0.199233628774607,15.4113827051134,1.89064539101139,1.83028124360696,0.0214738599137228,0.0537990516508005,0.129084968372533,0.368762758549473,0.0002594359534215,0.0062965370674036,,,,,3.0,-103.690253195533,2.19138016586015,AttemptLanding,AttemptLanding,1,0.735370528725884,0.0897527948357461,0.0562566316123273,0.960027217913994,0.342628902945541
50,1.68043303167498,2.6707751750946,-0.165385314649766,-1.65577204149784,1.68043303167498,-0.0481214633421319,-0.0202851614859268,0.0522222463199188,-0.003764272643366,-0.146105930062041,0.146251407441769,0.0094348180645073,0.139626993792621,0.142025039466864,15.4148952924567,1.05847937907071,0.842874976361665,0.176387508483363,0.240216893743888,0.147133985021323,0.443148370882778,0.158293203195095,0.0366337244759067,,,,,1.72627812567413,-94.411640590645,1.94384279374712,AttemptLanding,AttemptLanding,1,0.4765204830067,0.232401060761401,0.223114525565091,0.896867032965635,0.334607117768301
51,1.57805294724735,2.26663374900818,-0.12135328582383,-1.56230830393339,1.57805294724735,-0.0393337982658781,-0.0162655371272479,0.0425642500704368,-0.0022763197176415,-0.129524250837527,0.129587634046752,0.0083584664265168,0.12318298025715,0.125311725085539,15.4492161313592,0.998865989027991,0.640368717160231,0.176222629357853,0.240163901102373,0.15048368514608,0.389114812802741,0.1583818043984,0.0360451381577198,,,,,1.64198518080473,-93.7945426045898,1.83051632951185,AttemptLanding,AttemptLanding,1,0.445876464283068,0.162734126242433,0.181139711777859,0.899008984058166,0.333118362157298
52,2.62073569393477,3.0,-0.632183907812449,-2.51025670348341,2.62073569393477,0.0069308759713762,0.0040761050572782,0.0080406264786128,-0.0300005542972124,-0.327883091759197,0.330509122389853,0.0213468857021343,0.199877921860026,0.202476903107761,15.3608745521155,2.0944882992878,2.07380251201115,0.0163896595952952,0.0582762505706588,0.1416443246872,0.368111902522441,0.0001171756183893,0.010237231215022,,,,,3.0,-102.899260755177,2.42129223879249,AttemptLanding,AttemptLanding,1,0.739358232337491,0.0868085837190893,0.0558598578168064,0.959054313827861,0.337046966805689
53,1.73118616117013,2.43485069274902,-0.147837569504422,-1.71310560990352,1.73118616117013,-0.0426264620179047,-0.0268952595099465,0.0504020857531833,-0.0029528203097024,-0.155084135969119,0.155163203194461,0.0100077378585124,0.121696046962217,0.124277895785959,15.4083837244736,0.971441990811405,0.598213900245484,0.176439636928746,0.24021411931271,0.145772995537336,0.451223485810958,0.158467683775532,0.0357833784400531,,,,,1.76767167051157,-93.7767495596924,2.21760084440973,AttemptLanding,AttemptLanding,1,0.486505222135894,0.167564901993334,0.183981160488579,0.899447170963037,0.335212001983406
54,2.68287822902931,3.0,-0.589862296528343,-2.5815132379355,2.68287822902931,-0.0283938141691483,-0.0093561965635064,0.0298956033089666,-0.025735954256302,-0.34082090840084,0.342887346366774,0.0221347602012208,0.200296620797258,0.202381955391877,15.4245931947917,1.85137784944168,1.39138765644817,0.063252995050144,0.240254984762168,0.12912181482336,0.452382305411685,0.001861428919186,0.0083552754024688,,,,,3.0,-101.106544404973,1.6645452340007,HoldLanding,HoldLanding,0,0.755910585486192,0.0768332590750486,0.0499655391514237,0.942894630642936,0.342612526745173
55,1.62005523627236,2.58909177780151,-0.157827431578945,-1.59112795130721,1.62005523627236,-0.0671638741353617,-0.0256712727963379,0.0719027136890862,-0.0043342754467155,-0.138373187182304,0.138578189317226,0.0089379896762104,0.158539218640092,0.160755064729675,15.4104763971656,0.953296486181806,0.683176595266752,0.176510587199964,0.240187821612392,0.119890714707241,0.496187860993163,0.156260760642401,0.0401805377232917,,,,,1.6954412846166,-94.4207914550518,1.78855845637166,AttemptLanding,AttemptLanding,1,0.464165742618565,0.231215386020391,0.222789563191064,0.898886703617208,0.346715237907893
56,1.70250326713989,2.46676564216614,-0.0933672855276084,-1.68858358934399,1.70250326713989,0.0013939023541147,0.0065777083675019,0.0067237795279672,-0.0017384587865687,-0.149801568981654,0.149849729840957,0.0096760022985399,0.117958895323792,0.11920833050286,15.3766107823567,1.94421462129217,1.86227519393418,0.0270986514590758,0.0581024202261539,0.127491828467814,0.40956826759736,0.0094123146599386,0.0059302132963161,,,,,1.73280982852964,-92.1431804697514,1.92566349817974,AttemptLanding,AttemptLanding,1,0.477842537337877,0.173191727294365,0.110254728535252,0.956542540007969,0.343336965125416
57,1.59676220932522,2.41979384422302,-0.206270770216606,-1.56153593577865,1.59676220932522,-0.058621655476558,-0.0180029416195553,0.061323766989393,-0.0057153721952929,-0.133995637615334,0.13429184460801,0.0086622893941167,0.169508559651913,0.17172505945791,15.4393351482423,0.924678043141891,0.786685264641479,0.175458590894185,0.240204847945109,0.142893650056414,0.372056195649648,0.158883978291857,0.0351701353415081,,,,,1.65239533729994,-95.8334835366937,1.7936671804318,AttemptLanding,AttemptLanding,1,0.460148267711642,0.196424808466727,0.201259126667269,0.898824278563181,0.336491711086038
58,1.62518701937375,2.600670337677,-0.118713955411355,-1.59647218851017,1.62518701937375,-0.0631708952902408,-0.0341583851404033,0.0718147428260429,-0.0032092116400159,-0.138804806951569,0.138977442259966,0.0089645039966416,0.173397046271159,0.175722351853054,15.4464148463947,1.00081077466372,0.680537695479691,0.176267080303783,0.240198635581188,0.152974513702218,0.409212267841926,0.156242626679264,0.0433598795681797,,,,,1.68060545220575,-92.4282145747537,1.62755275935493,AttemptLanding,AttemptLanding,1,0.468527675536943,0.232649782803007,0.224798266028694,0.898655864725553,0.332011327243458
59,2.52630421549181,3.0,-0.5079374123303,-2.44416558647262,2.52630421549181,0.0082768455965196,0.0059856934303647,0.0102144358077643,-0.0219054329018575,-0.313297275087464,0.314820099143679,0.0203268478251577,0.209069008924724,0.211540078848459,15.3871523536219,1.98857003269798,1.68588287198303,0.024915337861702,0.0691247108143118,0.12062560625423,0.456098348624245,0.0089448506016172,0.0099344179730986,,,,,2.78982386220964,-100.41262924442,2.02588112084671,AttemptLanding,AttemptLanding,1,0.715989139900842,0.108454198079098,0.0726605236303147,0.958671629675227,0.346388619442564
60,1.63856962725923,2.52245736122131,-0.0878050762949571,-1.61483444913246,1.63856962725923,-0.0569326544545751,-0.030946536948968,0.0647998093544872,-0.0022678518539422,-0.143573659813812,0.143702710606025,0.0092686922939901,0.170679529795245,0.173139846957506,15.4105151128601,0.955930115431413,0.713104086858018,0.176800832910851,0.240231077861377,0.140453901523535,0.416011244371478,0.159256753976829,0.0367892791640138,,,,,1.72864210057146,-91.9462754292346,1.62668876207231,AttemptLanding,AttemptLanding,1,0.471579869993962,0.210754705189792,0.210611522355137,0.898485743383729,0.337576043767318
61,1.60631613312541,2.29519820213318,-0.191091404308259,-1.58413032827717,1.60631613312541,-0.0351168052635013,-0.017359857808511,0.039173392437296,-0.0038389375346179,-0.133272197879293,0.133400514735589,0.0086057567463005,0.111573058838757,0.113875674950116,15.3985773492248,0.979850964989771,0.792259785266527,0.1767528299141,0.240191173042702,0.144136043441789,0.479332411817992,0.157357369000814,0.0373695993642152,,,,,1.6541677253945,-95.777639022521,2.25175209694244,AttemptLanding,AttemptLanding,1,0.451126103823465,0.162180254140253,0.180833706152309,0.897699857719508,0.335939536248094
62,2.6093941998721,3.0,-0.531358876245776,-2.52325833805213,2.6093941998721,0.0080613176554331,0.0045298065362351,0.0092468367346631,-0.0234459693682383,-0.331683872374188,0.333312050386782,0.0215264211353681,0.197618079639968,0.20031394228993,15.3800343492463,2.11107463287244,1.98159614001749,0.0295985016168872,0.0662782678943907,0.13301948985942,0.450354175489819,0.0218785012976663,0.0068683446187389,,,,,2.96888331606625,-100.576107342626,1.73377983732859,AttemptLanding,AttemptLanding,1,0.735901241757212,0.0895815584301332,0.0659702932739579,0.953044050261707,0.340880226729147
63,1.55377418482864,2.19430613517761,-0.0864879325865095,-1.54205915218046,1.55377418482864,-0.0355009031368718,-0.0230845309767142,0.0423463067332729,-0.0013976187668169,-0.125598188711348,0.125629396307992,0.0081030189699212,0.10105295221051,0.103083933590974,15.4213411442185,0.950317278186218,0.649299268045783,0.175882500480833,0.240161541749884,0.122619345149394,0.425971697310048,0.155930324430029,0.0429614859207044,,,,,1.60300708299886,-92.1234906695166,2.16491837859975,AttemptLanding,AttemptLanding,1,0.434956569339164,0.151883178396286,0.176054631967738,0.899490334039189,0.345502513266936
64,2.659687343015,3.0,-0.622796098911672,-2.55161962907257,2.659687343015,-0.0291716074868418,-0.0116901666140728,0.0314267828266138,-0.0270542388350874,-0.334707854109617,0.336886565193206,0.0217461712235265,0.203476284397232,0.205489374127848,15.3699689730805,1.65890388109949,1.39884653116059,0.0632464980204694,0.240265708765678,0.126745046965007,0.435053790798814,0.0019242050900125,0.0107803269988346,,,,,3.0,-102.201792877698,1.83710157915473,HoldLanding,HoldLanding,0,0.750347832962902,0.0823319246731714,0.0541744759747977,0.94435156917915,0.343668868015552
65,1.52170658192119,2.17404437065125,-0.143840590372211,-1.49898527853807,1.52170658192119,-0.0463700395024945,-0.0163881307102101,0.0491808030804483,-0.0031156634304974,-0.119005813605726,0.119131866293386,0.0076848435557642,0.115948950805738,0.117964123788384,15.4363576871728,0.913386210958164,0.788924496531622,0.175844044455363,0.240166818478505,0.144404312586612,0.429941180794763,0.158971465670878,0.0352689613296698,,,,,1.55228808798252,-94.2268777224065,1.96657024752123,AttemptLanding,AttemptLanding,1,0.429381246603328,0.155792483029011,0.176954551407172,0.898702679356327,0.335820305517061
66,1.57699216528481,2.29797792434692,-0.118751310891374,-1.55714596501909,1.57699216528481,0.0031226088945139,0.0043185955414384,0.0053292545218473,-0.0025063615292325,-0.12862433632305,0.12871394594763,0.0083099790973785,0.136690972469948,0.137738308103045,15.4262396240936,1.9641730704914,1.80593854994043,0.0241347129503163,0.0495119841064381,0.12172674576626,0.398569710859244,0.0035620905944942,0.0090278784892554,,,,,1.60696450398557,-93.5145725727472,2.08567279768512,AttemptLanding,AttemptLanding,1,0.448078905696559,0.163198825784647,0.102785311751303,0.958310337935735,0.345899224103885
67,1.66076233883032,2.53369736671448,-0.126514804766798,-1.63205013847402,1.66076233883032,-0.0705046219712776,-0.0352134036297898,0.0788091715126308,-0.0035611512369566,-0.145149977476114,0.145345228532384,0.0093747153291963,0.163186366199956,0.165398865733427,15.4516795915248,0.943820364793724,0.651222860765373,0.176055911640468,0.240215016166184,0.159232833632933,0.387501274389193,0.154975041027869,0.0414511000628948,,,,,1.70472744872138,-93.0615211949791,2.05705769639922,AttemptLanding,AttemptLanding,1,0.475949730168104,0.210858729384584,0.210466160938735,0.89943956169323,0.329229851718697
68,1.59529049895905,2.30431342124939,-0.145539452663076,-1.57294189940925,1.59529049895905,-0.0458218830014813,-0.0134958346620918,0.0477680072331677,-0.0031678402252108,-0.132357983882231,0.132486008542759,0.0085446513346215,0.127678797021737,0.129827869012518,15.4738778130937,0.974678383774789,0.546570587617921,0.175522677304709,0.240212193764993,0.145285237719533,0.371505653990833,0.158330556126814,0.0361235869860745,,,,,1.6346567991892,-94.1375227104005,1.57583162232298,AttemptLanding,AttemptLanding,1,0.451376373524917,0.168287625508073,0.184477561174324,0.900285990858131,0.335428783235763
69,2.61482815519224,3.0,-0.399050751989555,-2.55341024573378,2.61482815519224,0.0062451704710543,0.0064144266388694,0.0089524869906617,-0.0164921929589467,-0.339406688659559,0.340300336539493,0.021976660294171,0.196224788466299,0.198925572691122,15.3880591413367,2.08244621365761,1.92774713723745,0.0210252259355021,0.054370302500906,0.136618418298945,0.380463010283521,0.0001839967999587,0.0057928416817061,,,,,2.97762147861884,-97.4745863886534,2.20737541145744,AttemptLanding,AttemptLanding,1,0.73707262258949,0.0883049543633663,0.0551712368578138,0.957978724989502,0.339280702978247
70,1.69406475811391,2.45575475692749,-0.0834090514836701,-1.67529138291483,1.69406475811391,-0.05448827612958,-0.0197723210551795,0.0579647903082764,-0.001833460957362,-0.14874220846836,0.148823211629402,0.0096001046240603,0.148636621327537,0.151069941921459,15.4413564594683,1.11597753549784,0.721215310378252,0.175598510798952,0.240197933294038,0.153211700362545,0.392828319202586,0.158569828516701,0.0362409885777595,,,,,1.74106956136438,-91.9626622500687,2.26487999568387,AttemptLanding,AttemptLanding,1,0.481964590548002,0.182007127956239,0.192858297415503,0.897765657954355,0.33190591094998
71,1.62739942484611,2.42860198020935,-0.197231854053622,-1.60042285352026,1.62739942484611,-0.0473895199347011,-0.0247240829808766,0.0534513505805673,-0.0046686432201242,-0.137271821425974,0.137461647888722,0.0088695857626684,0.134987700031341,0.13726490756454,15.3836677720001,1.1500956942542,0.863639714583437,0.176270949197534,0.240206458716263,0.159478350397374,0.426736537763829,0.156240736179276,0.0403191208780602,,,,,1.67774962146967,-95.9395937551425,1.66916214112527,AttemptLanding,AttemptLanding,1,0.46142616147187,0.190069989229834,0.198143819229802,0.896042318617509,0.329120733156723
72,2.6386971058699,3.0,-0.582229684710075,-2.53979853589929,2.6386971058699,0.007395981431638,-0.0063122291559797,0.0097234139197473,-0.0267590656927069,-0.33572266678684,0.337867813291513,0.021798812972182,0.188659004884626,0.191321867254529,15.4117845872928,1.34459715830385,1.16884355583379,0.0204008499997566,0.0749435277404736,0.253854283828854,0.563995127973498,0.0018921549190057,0.01185201209008,,,,,3.0,-102.28205700878,2.45757689259459,AttemptLanding,AttemptLanding,1,0.741916935016214,0.0830757770645584,0.0549962465587263,0.970051112246183,0.287175873853843
73,1.65630195994635,2.41234254837036,-0.161225755612084,-1.6364963437338,1.65630195994635,-0.0424647382526286,-0.0172564870562988,0.045837106588314,-0.0031799957481023,-0.141520046168667,0.141614680516183,0.0091336453584211,0.126094913788364,0.128457095507798,15.4300970652546,1.05354377705721,0.477141559247787,0.175938085058544,0.240216471591474,0.131165814318565,0.348739924516403,0.15957659056886,0.034473819868377,,,,,1.730743683828,-94.7490683234343,2.15921817978747,AttemptLanding,AttemptLanding,1,0.467371941753919,0.178512601936594,0.190566424801263,0.900004144114046,0.341704082525082
74,2.67039711900912,3.0,-0.602426859567553,-2.56222496107828,2.67039711900912,-0.0304020417952071,-0.009732142885641,0.0319217598271783,-0.0271255978485767,-0.336311203214584,0.338613412938786,0.0218622267036461,0.207416496247486,0.209447535914705,15.3699453179039,1.8268388017557,1.5677898119105,0.0634752366321956,0.24039369038386,0.134699292461472,0.457746779030362,0.0018728029920236,0.0099736065610579,,,,,3.0,-101.440236798872,1.5,HoldLanding,HoldLanding,0,0.753995405585372,0.0800129708579316,0.0524669054223057,0.941590299719382,0.340133647794901
75,1.67141697575917,2.49736404418945,-0.181398345722307,-1.63653642642228,1.67141697575917,-0.068080842116376,-0.0307536109642564,0.0747046561508434,-0.0052192814257086,-0.145049054616971,0.14533780930506,0.0093756902029384,0.168731994783553,0.17114080971622,15.4347245376277,1.00332532015085,0.805731941384917,0.176188894894375,0.240241973902822,0.171676903081433,0.493896132750874,0.157375289624783,0.0365346772366247,,,,,1.72844746755899,-95.0560971705178,1.54614688366285,AttemptLanding,AttemptLanding,1,0.479939355479023,0.199533944024468,0.202950276758206,0.897691531212174,0.32369915418603
76,1.76079749582603,2.55499482154846,-0.218097943994521,-1.73539853260064,1.76079749582603,0.0033083213005142,0.0055435023513476,0.006455649320311,-0.0046796224178111,-0.158648038470299,0.158803360636784,0.0102554456435606,0.128148550293334,0.129427261234721,15.400794740575,1.91938198951804,1.96225639852088,0.0293738380587772,0.056497821460673,0.122150846181592,0.402557851150882,0.0227971704276068,0.0066354633595241,,,,,1.80133462105751,-96.2777836497926,1.62146530258358,AttemptLanding,AttemptLanding,1,0.495431451133886,0.17987793399627,0.120471731910465,0.95481449363602,0.345710735030403
77,1.68725877320206,2.40612745285034,-0.137735948157806,-1.671210804274,1.68725877320206,-0.0438749015796082,-0.0069005369067955,0.0444142364363315,-0.0024702520491468,-0.147245622120528,0.147304998832443,0.0095008051145525,0.12312797773447,0.125452866034065,15.4444467444252,1.04223296577024,0.579783609118198,0.176932974588197,0.240199279525715,0.139870242221459,0.343972677281625,0.15870637485281,0.0337736318597157,,,,,1.75923009576763,-93.8331549635916,2.02433980419228,AttemptLanding,AttemptLanding,1,0.475026246060697,0.16988806293419,0.184750325038023,0.898789096760349,0.337835447901574
78,1.80137544350336,2.51671171188354,-0.221187762563302,-1.76994764743659,1.80137544350336,-0.0601736348171762,-0.0120175360246312,0.0613619385222972,-0.0057570235474839,-0.166091081924202,0.166325260487089,0.0107267819211139,0.130993296827284,0.133724838296512,15.4482557567646,0.894373300543279,0.576904732779252,0.176119256853256,0.24021496758717,0.132487906757188,0.408800786904593,0.155091108833747,0.0400957992344731,,,,,1.84421771642335,-95.6415120879709,1.84359671108435,AttemptLanding,AttemptLanding,1,0.507111752593532,0.172200349114629,0.186829881803383,0.900380329882981,0.341116485885694
79,2.61638866938077,3.0,-0.409557006516496,-2.54932415108268,2.61638866938077,0.0082630184792869,0.0081301205577356,0.0115920806877952,-0.0176885978494197,-0.338098525248727,0.339151747694628,0.0219003697518784,0.202470139984069,0.205275862238724,15.4033825706661,2.03002425147253,1.84235791617943,0.0224940362093689,0.0483689376317095,0.136527794417223,0.410802047026856,0.0007565761641015,0.0052314368400713,,,,,3.0,-97.5958361626102,2.13429012973914,AttemptLanding,AttemptLanding,1,0.738758817615951,0.0884377641820881,0.0553012552513037,0.958327122006622,0.339320980259012
80,1.80098511077262,2.46642255783081,-0.232959577671009,-1.7753098301206,1.80098511077262,-0.0397759066899468,-0.0252947842033393,0.0471375525552702,-0.0049393879037427,-0.167106058574345,0.167256672323689,0.0107895875862633,0.12020270392987,0.122926365933014,15.4198033462123,0.967250502428127,0.794005622422381,0.176210558404568,0.240228768626753,0.14861268227721,0.369642343149152,0.158726389350598,0.0371876196868075,,,,,1.84269174465958,-96.4089816842801,1.9414798919312,AttemptLanding,AttemptLanding,1,0.504847969392635,0.158365310223225,0.179087018862737,0.898056279816748,0.333949918987907
81,1.84688941933013,2.72654795646667,-0.205087723805963,-1.81053355584584,1.84688941933013,-0.0696327460137428,-0.0206849295055324,0.072640110311475,-0.0065283756553907,-0.178357652518859,0.178682813416788,0.0115266781356289,0.180363663354958,0.183255304132325,15.3930906361651,1.04933783719314,0.89569403396078,0.175705434457185,0.240268672306821,0.142410459037838,0.426980022733464,0.156394818388113,0.0421189988489885,,,,,1.90149022471625,-95.3637271300002,2.3798424095866,AttemptLanding,AttemptLanding,1,0.529154905981167,0.211240524412826,0.211569122401641,0.896864889498055,0.33670646264985
82,2.58171464248644,3.0,-0.400115393837837,-2.51995429531358,2.58171464248644,0.0091352025054058,0.0052652796685409,0.0105439601100689,-0.0165209626990325,-0.331735756103192,0.332644240999056,0.0214771166884971,0.203187134922955,0.205815293671939,15.4219901639907,1.96592049070818,1.77365798701461,0.0290473672472015,0.0509064430194585,0.126822961738004,0.404321700286383,0.0232714450310068,0.0069743690513373,,,,,2.91783086718893,-97.7855854258006,1.50446591118177,AttemptLanding,AttemptLanding,1,0.729620296730773,0.0960472647940625,0.0705073575351491,0.956093914051435,0.343634239227554
83,1.68888049397693,2.34096789360046,-0.30282164370589,-1.6490770736124,1.68888049397693,-0.0515704350616568,-0.0156497818307792,0.053892721621751,-0.0073081846575863,-0.144282026366698,0.144623636036012,0.0093284801935856,0.113383871657991,0.115745802433895,15.4210148851199,0.857297754123565,0.753099148509745,0.176202936728376,0.240186621815024,0.122215859299246,0.39520283669551,0.156377059055286,0.0403119246823529,,,,,1.75027764965131,-99.5200046041142,2.31623719861547,AttemptLanding,AttemptLanding,1,0.473517292213959,0.156599997212617,0.178119795165927,0.899245413115122,0.345681840311446
84,2.65086846485045,3.0,-0.447093285319791,-2.57759969278358,2.65086846485045,-0.0264671387665133,-0.010029337648545,0.0283036578582061,-0.0182720360051583,-0.341698306205912,0.342834509482808,0.0221329522501152,0.207234086183565,0.20930597107972,15.3825291663523,1.83806169195661,1.51569426086121,0.0634770291260815,0.240475430341135,0.128384665536634,0.45756222285237,0.0018359901892881,0.0076862809419293,,,,,2.95681470906161,-98.270421652992,1.55986651991546,HoldLanding,HoldLanding,0,0.748759451509398,0.0837435993493196,0.0538571665008861,0.941910545807676,0.342940148650385
85,2.05754335667636,2.83059406280518,-0.445833045390519,-1.99405739847895,2.05754335667636,-0.0532903526473193,-0.0069541717534316,0.0537421825947912,-0.0138057273905041,-0.211424701024619,0.212226843667599,0.0136922285194649,0.141369908597953,0.144799374094342,15.4023678059173,1.19204828779282,0.954997397130945,0.176472049121845,0.240324844629517,0.174573745179905,0.484760952359972,0.15815167994991,0.035761944314714,,,,,2.10680641889481,-101.731697741666,2.14924706557019,AttemptLanding,AttemptLanding,1,0.577638103265898,0.183789142354695,0.193567464333279,0.894894330771819,0.322411668808931
86,1.97839789805205,3.0,-0.573042559747561,-1.86537413164004,1.97839789805205,0.0062171551134919,0.0064323254630814,0.0089458274389921,-0.0242129351984543,-0.187768597902823,0.190605390424538,0.0123082777861444,0.209228261457565,0.210688422965862,15.3710182328733,1.98159671577346,1.85191115153332,0.0257150928880998,0.0524541636968113,0.134647941268914,0.435171873577313,0.0096952341658563,0.0069426570505736,,,,,2.01104491577433,-105.279667622794,1.98479959703641,AttemptLanding,AttemptLanding,1,0.569710457407052,0.231500541302104,0.14573392030771,0.95702203459854,0.340156470547149
87,2.0050017447085,3.0,-1.14171911388819,-1.61518199344186,2.0050017447085,-0.0836488257309142,0.0066719258417329,0.0839144840930243,-0.0756912686151007,-0.144168410325375,0.169288507072368,0.0109205791128611,0.209843843337227,0.212412460298464,15.4220953579926,0.980332507054665,1.08709110426999,0.176643122543206,0.240285749963685,0.17600183511664,0.386114037824052,0.158469378056062,0.0354353970212859,,,,,2.06469467336038,-124.238920485483,1.78022294437264,AttemptLanding,AttemptLanding,1,0.577149623981959,0.239258929524309,0.226871791322999,0.895434396067989,0.321776962170382
88,1.94753689298759,2.78692984580994,-1.09847487522557,-1.58547032750606,1.94753689298759,-0.0605103452520932,0.011076046449618,0.0615156946435754,-0.0672282091631918,-0.13452570413524,0.154513928738985,0.0099705803912422,0.151902483955304,0.154406936460453,15.3655171277833,1.13865241352023,1.19815115997269,0.176883593627482,0.240299783109566,0.179714805424561,0.476631289584884,0.15699680028862,0.0368981089159619,,,,,2.00959748573364,-123.70580417537,1.86132379458581,AttemptLanding,AttemptLanding,1,0.550224558755447,0.200141291736351,0.203278624876901,0.893197603680243,0.32012675314464
89,2.61142095793848,3.0,-0.249142936677794,-2.56513407277342,2.61142095793848,0.0065134946263519,0.0056292551876176,0.0086089561629059,-0.010045273314723,-0.342605008822606,0.34307561259418,0.0221562507879862,0.205309459374642,0.20813281587247,15.34469094997,2.0367241614922,1.88327900329838,0.0290896133713463,0.0687086517113085,0.126127689413485,0.488293885855458,0.0207746089137481,0.005205021234271,,,,,3.0,-94.0907171926139,1.6160601416208,AttemptLanding,AttemptLanding,1,0.738005485291423,0.0890085930937071,0.064531050367726,0.954655168448115,0.343943249149562
90,1.96270895004272,2.80154490470886,-1.07185465277931,-1.61987425948461,1.96270895004272,-0.0725467571691629,0.0100034748012729,0.0732331993283182,-0.0645812087070384,-0.140450468988434,0.158712552451574,0.0102350728561302,0.15341627083748,0.155853394739462,15.4780176540981,0.742632236580922,0.790906074771172,0.175847383683379,0.240268716387868,0.116705515378478,0.336176392807029,0.15552766124677,0.040108978081212,,,,,1.99637079272466,-122.311062912018,2.10087496519491,AttemptLanding,AttemptLanding,1,0.554559732292619,0.202164176343406,0.20500699374323,0.900027078569116,0.34813088205401
91,1.88036402737772,2.68606352806091,-1.11774610118586,-1.49585907919816,1.88036402737772,-0.0502792905922746,0.0041181952754954,0.0504476619358073,-0.0679073221556452,-0.118559667560726,0.139726726485747,0.0090128211607482,0.131072894249382,0.133334613944266,15.4619088559802,0.907960076911115,0.929830772316631,0.176700254087871,0.240241014717286,0.148640769007881,0.442244495126796,0.158809630686464,0.0356777279956453,,,,,1.94546366280019,-126.251978914843,2.38382855491094,AttemptLanding,AttemptLanding,1,0.528097330089579,0.190531125675283,0.197874452759186,0.897210087712132,0.333937435996497
92,2.62748388622118,3.0,-0.472280669621776,-2.552695112668,2.62748388622118,0.0074224695281145,0.0067548557597789,0.0100359917412883,-0.020507211356515,-0.33876994347942,0.340033107532719,0.0219602926706275,0.195423450277574,0.198103287774508,15.3688178948111,2.15766248205387,1.85948756338133,0.0271030135751974,0.0641249728044978,0.132869750649944,0.515213129445524,0.0105204189843082,0.0075891425030632,,,,,3.0,-99.2513675644137,1.93024249330495,AttemptLanding,AttemptLanding,1,0.740283027213883,0.0856560574194705,0.0588290644054181,0.954885171426839,0.340946777488914
93,1.70951211452484,2.34688210487366,-1.04031548829232,-1.3423148955874,1.70951211452484,-0.0531101538406858,-0.0033484347989329,0.0532156035067162,-0.0589744924288544,-0.0951743824156813,0.114501664688652,0.0073876157472286,0.118323405083907,0.120250746817936,15.3325894573509,1.05452810035129,1.13823898218703,0.177199384228756,0.240179953117271,0.166740450774061,0.457231808757719,0.159500627844589,0.0369179766355016,,,,,1.74681180591764,-126.657123786368,1.94014089664474,AttemptLanding,AttemptLanding,1,0.479920046570212,0.153164441804715,0.176212551790304,0.894171423665678,0.325893132989306
94,2.67570991904776,3.0,-0.289102464454993,-2.62119077448572,2.67570991904776,-0.0324412802911562,-0.0123130722612392,0.0346994007936716,-0.0101106645167038,-0.351714933719536,0.352233277596791,0.0227342528753846,0.204761904941585,0.206936208805042,15.4007263568169,1.61533703069995,1.44326159379991,0.0634695942445858,0.240225305066477,0.121975710649045,0.479493861680338,0.0018498211830459,0.0079222743160126,,,,,3.0,-94.2734617915732,1.57784097560248,HoldLanding,HoldLanding,0,0.754909886840412,0.0793268250264267,0.0512990647878811,0.944233356542351,0.345788573044869
95,1.82515369166027,2.57582378387451,-1.15028508354684,-1.40256383709161,1.82515369166027,-0.0051986083431697,0.0206591127297985,0.0213031562799552,-0.0710091538149634,-0.104091621998481,0.128859159595517,0.0083103334790256,0.121398836636854,0.122678251598727,15.4611054780861,0.738331578496387,0.787020811052985,0.133813150233537,0.242979738690326,0.170554632502904,0.427902957894948,0.161435672852034,0.0053210116598071,,,,,1.86493072097439,-128.583435678336,1.92438165397237,AttemptLanding,AttemptLanding,1,0.511243301429152,0.172806349399529,0.177367910904794,0.921108513251058,0.32419794110982
96,1.68240800230798,2.54592370986938,-1.03634017054006,-1.30410005053699,1.68240800230798,0.008371355285715,0.0049352397132757,0.0097178279644766,-0.0609002911408117,-0.0938948855207972,0.115759205823818,0.0074737779800832,0.150636339762921,0.151628202487527,15.3907452279002,1.83677740044791,1.81876634712618,0.0136128091663121,0.0494361131240529,0.137464265326956,0.426669014553854,0.0001811006664982,0.0065776686052356,,,,,1.76269102467469,-127.19753908103,2.48757329781599,AttemptLanding,AttemptLanding,1,0.4789677744463,0.196072635994803,0.120115950274805,0.964471465971619,0.338904770965798
97,1.77168366755988,2.66338276863098,-1.10044410673312,-1.35772683688512,1.77168366755988,-0.0825494183180784,0.0107016595435063,0.0832402065208768,-0.0702382690855052,-0.101766551302542,0.129588064268618,0.0083585003973021,0.179385296940396,0.181451164647761,15.4152264698614,0.841538050668489,0.985087546177205,0.176591369904572,0.240238930012271,0.141586828807249,0.395903356418231,0.159794231059492,0.0351341816183336,,,,,1.81622668042125,-127.513201967813,2.11694487895167,AttemptLanding,AttemptLanding,1,0.508739210945521,0.215893002269825,0.213331525653588,0.897352256786784,0.337072520530111
98,1.88034474527514,2.55437111854553,-1.19457489603886,-1.43666735654823,1.88034474527514,-0.051128188428099,0.0130581639789786,0.0527693784162851,-0.0766454466881158,-0.109178234220632,0.136559683877799,0.0088105224563958,0.12478045379089,0.127037162297662,15.3882885621113,1.01217441531939,1.08307861171338,0.176858861389858,0.240248426858938,0.171022189059306,0.418182430464292,0.154693439200271,0.0356918717124309,,,,,1.91962505408224,-128.853168090004,2.43898371666336,AttemptLanding,AttemptLanding,1,0.526832697866236,0.161330320028825,0.178529694102744,0.895107866949813,0.323990138195864
99,2.62960247451246,3.0,-0.150609923625073,-2.59207550925186,2.62960247451246,0.005139921951108,0.0080661414637086,0.0095645928180995,-0.0055041329362296,-0.348912038677402,0.349203886698963,0.0225452141934976,0.196171399719158,0.199035268057484,15.4055523268806,1.92133245844695,1.6126515666579,0.0209355135957833,0.0466316079581549,0.111651873649042,0.433026327709633,8.40149132117429e-05,0.0065394037519665,,,,,3.0,-92.2002194325483,2.19305529155458,AttemptLanding,AttemptLanding,1,0.741034380148154,0.0850929519180139,0.0534710761129509,0.961765225861999,0.35037694504487
100,1.60778172837721,2.43095970153809,-1.01737820370738,-1.21705207746109,1.60778172837721,-0.0718189457134383,0.0053146587548829,0.0720153217105267,-0.0593118472474376,-0.082688344248275,0.106771808290484,0.0068862098830107,0.167553468518944,0.169135854088464,15.4433968998562,0.803574991288442,0.82648593713258,0.176298278432634,0.240200521629568,0.109892383488401,0.41034113141664,0.159210678450261,0.0366919264551627,,,,,1.68546986904653,-128.540481584722,2.23345370250539,AttemptLanding,AttemptLanding,1,0.462568965051616,0.19841785294146,0.203153532009294,0.899043239203232,0.351158940671822
101,1.65393224278012,2.54666233062744,-1.07121893489557,-1.23225793186808,1.65393224278012,-0.0627427073508583,0.0111473893809082,0.0637252823903122,-0.0656472741819524,-0.0846322070310637,0.112253593321489,0.007240701057788,0.169269680343983,0.170992282476509,15.4295346035006,0.856267144532581,1.06680536547678,0.176940663477516,0.240234979226128,0.165429284376172,0.447786642377473,0.158015631960113,0.0358879590582032,,,,,1.69807149429304,-129.55767099295,1.5,AttemptLanding,AttemptLanding,1,0.47524705457,0.212547238203872,0.210807679612629,0.896419812825454,0.32647587361059
102,2.62651405765061,3.0,-0.134873861307033,-2.59106355923699,2.62651405765061,0.0063891669476186,0.0061137106059864,0.0088430148511858,-0.0049100635515258,-0.348996252300821,0.349251419313041,0.022559791843356,0.193578560699687,0.196377773036962,15.3784036690292,2.29655002314086,2.03036163307463,0.0217648177930923,0.0522280007513009,0.147928233280235,0.448567181578584,0.0005379680462844,0.0146785295798175,,,,,3.0,-91.8482151525671,2.17170756648359,AttemptLanding,AttemptLanding,1,0.739679303314223,0.085655556417996,0.056970077880191,0.955120428090332,0.334254118542118
103,1.6990005518939,2.30970978736877,-1.07198331593273,-1.30298988561339,1.6990005518939,-0.0379007582449993,0.0208193549023873,0.0432424908405777,-0.0619070433588237,-0.0904922454401516,0.112352073484938,0.0072476549460634,0.126286777391104,0.128095601380008,15.4388473646392,0.933166057266196,1.01871065038042,0.175362154567138,0.240202666214355,0.170905639742907,0.396724890323958,0.157359882271936,0.0401787485506636,,,,,1.75398132014352,-128.600052606655,2.18045225039109,AttemptLanding,AttemptLanding,1,0.478685934114376,0.145337367969285,0.171750600254188,0.896982748584922,0.324041937892041
104,2.59579060655652,3.0,-0.343217998197322,-2.54153282881622,2.59579060655652,-0.0156479416470043,0.0172281525312247,0.0232737473868563,-0.0145910983302854,-0.34732741081075,0.348094151684962,0.022472008149278,0.201067515342284,0.203084305197817,15.4015355075798,1.82411856803198,1.43648247827466,0.0627499467213511,0.24039607445243,0.127806587921675,0.413255492562227,0.0019494133099984,0.0113724508338619,,,,,3.0,-96.2939600424606,2.34086798052971,HoldLanding,HoldLanding,0,0.732827689454634,0.0952139672123741,0.0621302229098382,0.943006018418344,0.343197072034811
105,1.70963864954742,2.6613917350769,-1.09601434003819,-1.28187443961957,1.70963864954742,-0.0672841201605229,0.0138039878549134,0.0686855363702889,-0.0686820748269264,-0.0911139351180155,0.119920710252022,0.0077351976284062,0.170787298981157,0.172673181739339,15.4522442290875,0.861974616340477,0.944755901350728,0.176155648471954,0.240239783936967,0.177519153839549,0.429234579614838,0.159251707995118,0.0369668320421182,,,,,1.78074250763471,-129.221424924807,2.33017777251864,AttemptLanding,AttemptLanding,1,0.490438276227181,0.226736792578686,0.220263096812883,0.897726435982163,0.321102598293534
106,1.85974052438768,2.53055620193481,-1.07945383337578,-1.49940980201643,1.85974052438768,0.008298270189347,0.0034684940474207,0.0089939834941142,-0.0628831856365547,-0.117851792996383,0.136256541579083,0.0087960014909689,0.1279027149503,0.129002922066859,15.4020469995612,1.81302697366327,1.70969018851973,0.0237967691858103,0.0488025304185814,0.125171765503548,0.477362549161934,0.006619538790774,0.0064790352962836,,,,,1.88415857146299,-124.959215831678,2.07531550456667,AttemptLanding,AttemptLanding,1,0.521731390916753,0.152582424422027,0.0968474847285722,0.960423123418514,0.344368104220645
107,1.68548123095487,2.6081714630127,-1.02014581945445,-1.32721133279738,1.68548123095487,-0.0502617132521533,-0.0025702145307656,0.0503273863992145,-0.0571574341300331,-0.0933666965168327,0.112062662316629,0.0072276517585698,0.121238331673045,0.123083378783092,15.4190374868719,0.842819705156428,0.902790365113001,0.175999416537367,0.240175114592318,0.138238512291241,0.491469672852045,0.157248982527684,0.041280581738892,,,,,1.72726488943798,-126.550224489005,2.17360790297546,AttemptLanding,AttemptLanding,1,0.474078337344583,0.216831989719534,0.214998751143016,0.898284784036343,0.338560661203893
108,1.65937526000513,2.6825156211853,-1.02365868157498,-1.28705667661535,1.65937526000513,-0.0502976521961492,0.0099303404464296,0.0512685622757922,-0.0580396209217035,-0.0891256888082065,0.109725122457764,0.0070766897587577,0.13180821387269,0.133557042807372,15.454501260201,0.679206771240417,0.924104578834,0.176456630200847,0.240200473171083,0.152199616697098,0.46595236394534,0.16011231604619,0.037435258500697,,,,,1.72684939224008,-126.925173742408,1.83589348259457,AttemptLanding,AttemptLanding,1,0.469211477896175,0.239605817682768,0.228537341236504,0.899174238577563,0.332355725912401
109,2.63073463184778,3.0,-0.305924180970638,-2.57923706352175,2.63073463184778,0.0063832398448322,0.0024895745534493,0.0068515496330272,-0.0125341414286869,-0.345581603575508,0.346212406413149,0.0223536765252674,0.199273537591063,0.202145103348007,15.4205451965478,1.93917120250644,1.74148871226694,0.027153473552971,0.0480663190222729,0.12466918329446,0.443088385074188,0.0118590641663204,0.0053465362082625,,,,,3.0,-95.4171668207032,1.89489926069353,AttemptLanding,AttemptLanding,1,0.741958255829009,0.0843408252669718,0.0578193853300371,0.957503792464581,0.344591474091351
110,1.60912030210366,2.32483816146851,-0.935997765817277,-1.29544782028727,1.60912030210366,-0.050066363012214,0.0006300250698075,0.0500703269098513,-0.0481865974341973,-0.0891624699170495,0.103434873966608,0.0066731816562435,0.116228941627413,0.117938542365574,15.3804469226582,1.0439767918783,1.05878773381559,0.177382396531696,0.240183736775749,0.15203141970176,0.452724589395334,0.157988557141802,0.0375860832578565,,,,,1.65985778043302,-125.136897277648,2.35763374379653,AttemptLanding,AttemptLanding,1,0.452686455700758,0.170216078290563,0.186014450121026,0.894787080460843,0.332430480132551
111,1.54905504948341,2.19591212272644,-0.933155127844039,-1.22474973432859,1.54905504948341,-0.0431252138593481,-0.0043373912154247,0.0433427852470299,-0.0475952670860522,-0.0800333803568661,0.0949996383978582,0.0061272126338477,0.112411590655092,0.113888076711333,15.4504130321919,0.830334154250685,0.855492832482991,0.17523809244042,0.240162853642697,0.153160322123446,0.442449183358575,0.158365516970082,0.0407548258946366,,,,,1.59306398738573,-126.486183134521,2.03054097724155,AttemptLanding,AttemptLanding,1,0.435858961871175,0.153489018774971,0.177298022162867,0.899135170312597,0.331928745722913
112,2.63889008160406,3.0,-0.242219742933971,-2.59759433191315,2.63889008160406,0.0044528459546869,0.0030126813211713,0.0053762520252594,-0.0091114166671748,-0.350057069775865,0.350447785692637,0.0226272958148609,0.190540018645083,0.193381044521011,15.403197491429,1.95436899055072,1.80322967943758,0.0283647772122378,0.0567955272290973,0.135241858061065,0.4070017672694,0.0210207480211946,0.0068287122099924,,,,,3.0,-94.1056534981467,1.60994831962019,AttemptLanding,AttemptLanding,1,0.742380230665283,0.0822353778437185,0.0611669494586785,0.956293621843973,0.339892507528415
113,1.72169158345944,2.51391696929932,-1.00741156525354,-1.37571391072053,1.72169158345944,-0.0578205771535042,0.0127075738609997,0.0592005200635695,-0.0567278818924251,-0.101700474781096,0.119870820046709,0.0077320099613902,0.13198002111813,0.133933144163006,15.4489187680363,1.02769135299133,0.732147236751853,0.176089348120775,0.240185754616796,0.152220050154055,0.326014548238212,0.158347843852792,0.0372485109398446,,,,,1.77528590773906,-124.910768203071,1.66709949858341,AttemptLanding,AttemptLanding,1,0.485904384421786,0.189104140492293,0.19738421685454,0.898128022734488,0.332346644375975
114,2.63805890632665,3.0,-0.397697310628708,-2.57753164276243,2.63805890632665,-0.0091940152113022,0.0073297841902629,0.0117582163605491,-0.0172845457153854,-0.346799567021155,0.347777266251264,0.0224532937220177,0.194109002388853,0.196155106507816,15.377782377374,1.8086885435045,1.51664309741583,0.0625984706216141,0.24045241540468,0.1369383104776,0.484550302046503,0.001883989435182,0.0087346093737197,,,,,2.9979851142919,-97.9705526263991,2.45552351221054,HoldLanding,HoldLanding,0,0.742713396322002,0.0835924190759387,0.0541690016738654,0.942573158939105,0.339138528676622
115,1.85046771007615,2.61773037910461,-1.04220533854513,-1.51450249140514,1.85046771007615,-0.0470738499309378,-0.0012981036315567,0.0470917447155944,-0.0589504861726186,-0.122130268071094,0.138077036131229,0.008907648493025,0.135053044452914,0.137378191096512,15.4086679011309,1.00934871084559,1.07705259193883,0.176067222672739,0.240240553861682,0.175123617037869,0.411807865202222,0.159834246114813,0.037137313096352,,,,,1.89315516909655,-124.179562229341,2.4351698185937,AttemptLanding,AttemptLanding,1,0.520933694239609,0.181267587062596,0.193302472444835,0.895573235570324,0.322167281316503
116,1.64610590424426,2.34771418571472,-1.00192758006829,-1.29219289182902,1.64610590424426,0.0070454496487479,0.0016912489745426,0.0072455975493352,-0.0541857691495533,-0.0881323423992188,0.105828564256427,0.0068339390894247,0.1137849247579,0.114668867058822,15.4089450683087,2.05931208400263,1.94883463842944,0.0217175128419936,0.0491719008391406,0.139880131275878,0.427032119882149,0.0003249219339639,0.0095338867144951,,,,,1.69700248239393,-126.66944677606,2.16825703964671,AttemptLanding,AttemptLanding,1,0.4618953478769,0.159190222881565,0.0991254113735476,0.957648662188466,0.337831052766276
117,1.6413942951484,2.2706937789917,-0.961670248247389,-1.31699958130339,1.6413942951484,-0.0433329310431862,0.007803489145294,0.0440299597505409,-0.0506398460353042,-0.0925108590210126,0.107579235098956,0.0069394179827611,0.114143568469227,0.115825134372505,15.4383854280471,1.01861480122398,0.856458482942832,0.175915369742053,0.240167893189725,0.135784374835627,0.430200916337245,0.156063288051954,0.0404446725657503,,,,,1.6721231422542,-125.43586516234,1.8140371152297,AttemptLanding,AttemptLanding,1,0.460870172247408,0.149664543152341,0.173867340908101,0.897309596467663,0.339651388961944
118,1.76932188996508,2.51645302772522,-1.09915727017562,-1.36459382417785,1.76932188996508,-0.0760964481202496,0.0176091154237004,0.0781073003151628,-0.0668303198886732,-0.0998222214778299,0.12427639158246,0.0080157777583276,0.138803176631429,0.140567150795954,15.4329368231086,0.900988654784166,0.940247364435078,0.184915196137188,0.240211466671686,0.148720130480315,0.439168129352981,0.129289240469441,0.0049462106215646,,,,,1.78141492798702,-127.597402747289,2.04658349742279,AttemptLanding,AttemptLanding,1,0.499932600816546,0.182424177720478,0.168715013329577,0.893075547494683,0.333902164230971
119,2.38722043805203,3.0,-0.322444136215594,-2.3356389977311,2.38722043805203,-0.0382498792583414,0.0270330231245011,0.046838420154052,-0.0133038350238236,-0.30839760656147,0.309087651421941,0.0199398657844639,0.202126229308238,0.203797293089965,15.457990634288,1.25087707948466,0.91420406801996,0.0263158258522606,0.0946034801998537,0.185216129215781,0.648423180711671,0.02123970510944,0.0044170852665267,,,,,2.88139783872518,-96.8469577847742,1.68292614606481,AttemptLanding,AttemptLanding,1,0.677351575431868,0.146462445133202,0.0989235488416418,0.969830735200619,0.317681720348542
120,1.70858160441354,2.5792670249939,-1.02346238001176,-1.33856954741771,1.70858160441354,-0.0781398501065471,0.0053089410600378,0.078319991252889,-0.0614424337949869,-0.0999339630172243,0.122630769171882,0.0079091136902114,0.190825463232667,0.192699296585911,15.469072140314,0.778863235361886,0.899239035358583,0.175569519408348,0.240212231284701,0.15296860256892,0.363830831936059,0.155788900646858,0.0426564833594434,,,,,1.76744363452008,-125.864521808831,2.17184635098212,AttemptLanding,AttemptLanding,1,0.494161620494126,0.21026288469361,0.210908690709113,0.899030151025879,0.332013954413813
121,1.71707099116089,2.50839400291443,-0.997621334184375,-1.37764445473143,1.71707099116089,-0.0576467889686373,0.0135014288556182,0.0592067636299935,-0.0554036479740004,-0.10187402935787,0.119361091798067,0.0076998262169484,0.145542498419833,0.147529730861396,15.4284786267943,0.93456863200403,1.01363513717017,0.176740750995584,0.240216997102318,0.186415729195421,0.451117572795237,0.155958107750408,0.0408830457446217,,,,,1.76448514358837,-124.664357217421,1.54459486179701,AttemptLanding,AttemptLanding,1,0.487391543815182,0.188902250976713,0.197522627230718,0.896322309172982,0.317148564802035
122,2.62813668665679,3.0,-0.383879346236477,-2.56600590084093,2.62813668665679,0.0070185475156352,0.0081684395080287,0.0107695595650683,-0.0160511386321014,-0.342543906469545,0.343420824401265,0.0221777452255237,0.197805505061824,0.200494498023362,15.3912015511253,2.00470178254648,2.1423530002649,0.0139231072335666,0.0546769580338192,0.147789575818735,0.442385866324678,0.0002462654124435,0.0088540401386774,,,,,3.0,-97.1526305433791,2.48284028502471,AttemptLanding,AttemptLanding,1,0.740935349379815,0.085643664755819,0.0547153011074298,0.96045444451827,0.334315744080562
123,1.61060935738903,2.47839522361755,-0.925131019131003,-1.29224890701425,1.61060935738903,-0.0659311018527543,0.0069354335658797,0.066294874841612,-0.0499310715296742,-0.0920935265805886,0.108967408077037,0.0070284254839351,0.16697089419638,0.168664205986725,15.424644835522,0.910150021824647,0.820760038585361,0.175367866804495,0.240208616037944,0.106246607620282,0.387261700473229,0.156654023106649,0.0415663853219281,,,,,1.66518818535526,-124.488998271363,2.06283301573193,AttemptLanding,AttemptLanding,1,0.463228669834419,0.207405880289047,0.209182587651024,0.898716058980245,0.352779285502097
124,2.66921502982195,3.0,-0.547031590150437,-2.57809546083358,2.66921502982195,-0.0253101903565224,-0.0101051313114672,0.0272528790168193,-0.0239664845645981,-0.341445351895772,0.343239053342436,0.0221560234370584,0.20302661633807,0.205063414010047,15.3877179021473,1.66539825243497,1.48353785070963,0.0629093834800307,0.240298319824537,0.137542651067849,0.472517003874178,0.0018938511909722,0.0071423390749528,,,,,3.0,-100.530616564359,2.00697688346761,HoldLanding,HoldLanding,0,0.752803357421195,0.0794229794431457,0.0510927135153933,0.943803667449563,0.338869932858734
125,1.54985543521675,2.18582820892334,-0.799513040855512,-1.31601379381905,1.54985543521675,-0.0426541230486555,0.0023769641050425,0.0427203016305656,-0.0351008590947659,-0.0918604725590022,0.09974988091293,0.006434239618551,0.112938079421451,0.114476231355901,15.4171173759616,0.873491340432739,0.939532147457832,0.176294546173348,0.240151451856509,0.148091617132117,0.431117624250776,0.15895364399211,0.0351404511105352,,,,,1.59718321662841,-120.692341177793,2.232560903533,AttemptLanding,AttemptLanding,1,0.436190028995647,0.15092592938292,0.173979967484622,0.897607542365614,0.334181503496837
126,1.55123252693227,2.23313164710999,-0.862908899845672,-1.277139858972,1.55123252693227,0.0027942760960157,0.0028473816925771,0.0039894312130914,-0.0404639357869894,-0.0859300494637877,0.0966623895893821,0.0062454224354851,0.105994575391475,0.106762280006425,15.3745752313212,2.3604693526317,2.30855934606742,0.0218380948079192,0.0617132183103184,0.146299395524038,0.433649807030299,4.61049091903369e-05,0.0069778892893771,,,,,1.57811714801433,-123.111297136965,2.17164074190915,AttemptLanding,AttemptLanding,1,0.435014463183224,0.154158697762385,0.0950531240152287,0.952395727106262,0.334978046433761
127,1.50011156149359,2.09799957275391,-0.761754789571197,-1.28057792580216,1.50011156149359,-0.0421745813556055,0.0081735436955096,0.0429593078280248,-0.0320108545236487,-0.0870062972204465,0.094022196006832,0.0060644698642092,0.101839394574813,0.10328045913227,15.4412951484637,0.859094862792467,0.86019152709252,0.176469363688673,0.24015239871973,0.121811827934867,0.421551669454235,0.155679771379146,0.0407512739447485,,,,,1.53181850141805,-119.504479623187,2.16793586515844,AttemptLanding,AttemptLanding,1,0.420685841558077,0.142400675635377,0.169450059953887,0.898256639377996,0.345861409806726
128,1.62179504214106,2.37997698783875,-0.864491047135052,-1.35792919524834,1.62179504214106,-0.0390296452953321,0.0046912888739415,0.0393105762254665,-0.0410963213189869,-0.0974407160354272,0.107650300166697,0.0069441620965013,0.106534643402421,0.108332228029928,15.433269421471,0.911890154827233,0.948815777287925,0.17697488399117,0.240179769290915,0.153548214011697,0.455152131036588,0.158861031445989,0.0364878203783012,,,,,1.67347133841587,-121.814224359451,2.23622693686427,AttemptLanding,AttemptLanding,1,0.454145123510269,0.177797876756647,0.190551927238254,0.896892725680653,0.331756349328135
129,2.62777253736222,3.0,-0.517689319930895,-2.54338303613032,2.62777253736222,0.0050487759077613,0.0017094041793891,0.005330309635969,-0.0230838743011552,-0.336243695419676,0.337889132803418,0.0218224133563042,0.196384308491048,0.199158782674372,15.4195383004038,2.1354777286192,2.02181022177935,0.0245691803937061,0.0490941195827682,0.138876112805698,0.403106989248675,0.0068257372914245,0.0085871908855573,,,,,2.98812679975473,-100.15154225882,2.06338348145974,AttemptLanding,AttemptLanding,1,0.740571099831466,0.0847284025267622,0.0569933174019436,0.955051004478587,0.338277283197467
130,1.62409276172921,2.35809826850891,-0.914958324462638,-1.32522296103969,1.62409276172921,-0.0470695374010567,0.00153277226118,0.0470944873839191,-0.046631430451324,-0.0942505183248242,0.107676794062455,0.0069472690557427,0.131491763490259,0.133211664916049,15.3760789997885,1.00648909999026,1.11554877250432,0.177429145786077,0.241679670616084,0.149069330962939,0.393115856997269,0.159860153526284,0.0349532984597368,,,,,1.67291748571223,-123.514973806059,2.25621581411599,AttemptLanding,AttemptLanding,1,0.459733736111,0.17378522837915,0.188030384499278,0.894612272394504,0.333746964016472
131,1.49705020853337,2.29579496383667,-0.755899002612118,-1.26993830475851,1.49705020853337,-0.0698376895215212,-0.0027606008611422,0.0698922298601134,-0.0347048168731493,-0.0894117324155069,0.0985128659623685,0.0063546438254436,0.157511874133472,0.158967234494291,15.4002419502109,0.757342122301415,1.00283386741796,0.175493196909096,0.24018428085036,0.133205125614499,0.473149090343062,0.15644972898856,0.0405301311433537,,,,,1.54515709711904,-119.107877075441,2.26964284236165,AttemptLanding,AttemptLanding,1,0.43100683584109,0.192531145417597,0.199790129641036,0.898423447340514,0.340797721949112
132,2.6252226283319,3.0,-0.461880385295936,-2.55073604766778,2.6252226283319,0.0038497784341351,0.003476462753293,0.0051871559902287,-0.0202448064915768,-0.338524914661645,0.33979222535356,0.0219427992828734,0.202318300058297,0.204927200575802,15.3297021305264,2.15160323748637,1.78336984739847,0.0274381360746489,0.0697911797139858,0.127107973471188,0.474168835484851,0.0207189259390845,0.0082027636938469,,,,,3.0,-98.8062245222683,1.82736686606543,AttemptLanding,AttemptLanding,1,0.741044807670334,0.0852758872235306,0.0633567670239993,0.955363286295723,0.343507567346139
133,1.63997504517839,2.20970487594604,-0.845343216864372,-1.39422701141683,1.63997504517839,-0.045893934743863,0.0003598293283577,0.0458953453350064,-0.0391079065366653,-0.102824510385498,0.111447914462138,0.0071892253457021,0.101597561089339,0.103308737707015,15.4196850065608,0.967976136446783,1.01924414967554,0.175968464929812,0.240187040524729,0.165100429357521,0.459650080418852,0.156733320127368,0.0406390248689094,,,,,1.68330103474598,-120.509023497779,2.06175836803271,AttemptLanding,AttemptLanding,1,0.45798842625564,0.136603358567474,0.166399095755484,0.896401893858419,0.326622031396657
134,2.68239127142915,3.0,-0.637921287675624,-2.57174558560988,2.68239127142915,-0.0283927475767265,-0.0106991119016804,0.0303417057931882,-0.0283195317363479,-0.338481570674603,0.340877184974798,0.022004628946114,0.201143434971268,0.203243957328674,15.3968736064569,1.69762966699115,1.49798829481553,0.0629492752861423,0.240288842191919,0.126986843172744,0.436510853152357,0.0018739444526629,0.0096533078371935,,,,,3.0,-102.269542710179,1.52935944765573,HoldLanding,HoldLanding,0,0.755953130513509,0.0770246099905247,0.0505579239544778,0.943416935514162,0.343561403034336
135,1.6735020659914,2.43314123153687,-0.871333712409284,-1.41547130259452,1.6735020659914,-0.0572237616345115,0.0001840697761735,0.0572240576793178,-0.042263140960856,-0.105880895736794,0.115751251080561,0.0074687099509099,0.116418098072656,0.1183714993558,15.3361555911429,1.1013268802945,1.11358044822056,0.177066630520056,0.24017449335481,0.158056045971798,0.456634004782409,0.156688745648289,0.0396980496606532,,,,,1.71044333906111,-120.370167332204,1.97574095850282,AttemptLanding,AttemptLanding,1,0.469941517468865,0.181409889488939,0.19292103062577,0.894063841444497,0.329752868456979
136,1.6361066553505,2.31263208389282,-0.750627228860821,-1.44242681993631,1.6361066553505,0.0057237627689057,0.0047138012426507,0.0074149431818408,-0.0312734743347505,-0.109115978745903,0.114619951101213,0.0074013471799129,0.109671571243603,0.110546821537106,15.4296678307262,2.027685652823,2.06986127266561,0.0250142700030174,0.0477538969571606,0.129996100412769,0.387093931703079,0.0088947483392212,0.0086969920965022,,,,,1.66149639163359,-116.91481150861,2.01243249960334,AttemptLanding,AttemptLanding,1,0.458404472400887,0.153577627672027,0.099262340667861,0.955297853441081,0.342223955372103
137,1.46898647642776,2.05625247955322,-0.708558318228745,-1.27384141488138,1.46898647642776,-0.0467299775678603,-0.0035135910545455,0.0468618835045211,-0.028236145477684,-0.0857568681899347,0.0916068318486452,0.0059078214422587,0.100165501186488,0.101605502583902,15.4606900985403,0.63648442404229,0.806992787272305,0.175589708320561,0.240129018650229,0.139100223634709,0.434712050874579,0.156920225241955,0.0419426279531466,,,,,1.50463962214456,-118.009747287404,2.37789454383524,AttemptLanding,AttemptLanding,1,0.412050827564182,0.140726196012392,0.169429904647428,0.90086353917939,0.338177678384574
138,1.58441316881436,2.48036575317383,-0.725193842283087,-1.38450186200056,1.58441316881436,-0.0682328591122299,-0.0071553789595568,0.0686070150253185,-0.0320663608598707,-0.10467279040783,0.111893481553519,0.0072162281550924,0.16235387974183,0.164093449863444,15.463306924354,0.799095552780628,0.711289360615361,0.175942444039376,0.240213576831945,0.139614476579884,0.435626886315386,0.156318104423774,0.0410958527133337,,,,,1.62198882751374,-116.427624599585,1.53752786005568,AttemptLanding,AttemptLanding,1,0.455328868323184,0.214167284235522,0.212919030059759,0.900161467946487,0.337949121520052
139,2.63303715010551,3.0,-0.525462841918961,-2.5465898410797,2.63303715010551,0.0078426156076852,0.0047490938304958,0.0091684519838826,-0.02357844673542,-0.336700649825804,0.338437337629245,0.0218525503057003,0.196049718889935,0.198750059622003,15.3954497333319,1.98930902344626,1.82867622332161,0.026917878391047,0.052254151043185,0.136634583380966,0.477007896845222,0.0165886658211203,0.0066338584777503,,,,,3.0,-100.33835635475,1.6415676756676,AttemptLanding,AttemptLanding,1,0.741893251952535,0.0842475240899731,0.0603335669926536,0.956542605294158,0.339273518497348
140,1.55883116738216,2.48669648170471,-0.754772792818672,-1.33627049202482,1.55883116738216,-0.07059842451324,-0.0082810745438305,0.0710824432567714,-0.035092839348078,-0.0974849442298506,0.106733599567753,0.0068842030226252,0.156521560558377,0.158101759757806,15.445821420819,0.95516294304834,0.862798964007275,0.176469438717786,0.24018330067806,0.150623794312193,0.419523461986667,0.156126728486715,0.0366756470223775,,,,,1.62484937329115,-117.662804067615,1.55637603845675,AttemptLanding,AttemptLanding,1,0.447308663253471,0.221801476986315,0.215807142214224,0.897481294228527,0.333056091416803
141,1.55163431328696,2.14318752288818,-0.778674244887276,-1.32797986736078,1.55163431328696,-0.0404909016880399,0.0047984151698229,0.0407742309265608,-0.0335589610913374,-0.0934178677251992,0.100890266474372,0.006508724257985,0.102591142487229,0.104148106489522,15.4261603952255,1.02822681504998,1.01858368437112,0.176584104828251,0.240177043404467,0.152324310423698,0.429177821874709,0.157799205655923,0.0362743832264614,,,,,1.58700801541868,-119.377240163094,1.55837282971428,AttemptLanding,AttemptLanding,1,0.434598771507761,0.140574747830144,0.16766851379923,0.895625865090423,0.332300306478357
142,2.51644168784018,3.0,-0.628717408914546,-2.40501021572629,2.51644168784018,-0.0282560445295923,0.0262614614983963,0.0385754897893735,-0.0306094343592936,-0.315443583757343,0.318073158742681,0.0205169145236762,0.18239131741775,0.184299422684092,15.468052311193,1.12818573114577,0.909547106251172,0.0215598138244946,0.0886285914794745,0.312442080571797,0.673097976325794,0.0111891353669155,0.0047615069461637,,,,,3.0,-102.460692774955,2.15117783757454,AttemptLanding,AttemptLanding,1,0.707911001294201,0.115872793364011,0.0762280821417011,0.973209335079634,0.261136853079201
143,1.43336551898235,2.14601254463196,-0.633578503680305,-1.27107296321689,1.43336551898235,-0.0447399473380125,2.22152894192722e-06,0.0447399473931667,-0.0237541286389946,-0.0867024701166447,0.0911273892661783,0.0058771157404328,0.120909363779867,0.122346642444584,15.4265874113076,0.861693432010727,0.758922906479004,0.177119395201491,0.240137775605529,0.140859969529808,0.394637095126063,0.158192411969143,0.0349581449500726,,,,,1.50542716708844,-115.316950545559,2.46829594651903,AttemptLanding,AttemptLanding,1,0.406700133550876,0.16854790445991,0.184148534038016,0.898706888311121,0.337395569097863
144,2.59537174932237,3.0,-0.548341156806626,-2.50489159980567,2.59537174932237,-0.0146914883274125,0.0145662495285642,0.0206885343754191,-0.0254064455312225,-0.337941936404087,0.339846040311832,0.0219456722264415,0.198920199996336,0.200950163459295,15.3869144942566,1.88919566521457,1.62934653837065,0.0627148353025052,0.240437863136666,0.143485605783257,0.478430730824983,0.0019170928242879,0.0101765129468853,,,,,3.0,-100.955060334027,2.21896963155197,HoldLanding,HoldLanding,0,0.732289165844491,0.0948342543712937,0.061453144040519,0.940996893606292,0.336228619651886
145,1.63599526721078,2.25206732749939,-0.746503155680307,-1.44402671628987,1.63599526721078,-0.0498604236084678,-0.0084525947920335,0.0505718123180707,-0.0311206053620198,-0.110043318018502,0.11548607126533,0.0074501658591138,0.112210509639893,0.114099683632349,15.4140537193997,1.14178055302177,0.819975792533985,0.176675689573223,0.240175221231078,0.139978192303686,0.404275769046993,0.158596030355867,0.0369763767622222,,,,,1.68254359450145,-116.590495520199,2.38935533333154,AttemptLanding,AttemptLanding,1,0.459085341316011,0.147887712489917,0.17266570728282,0.89624835535545,0.337787470087251
146,1.74460558309204,2.60627508163452,-0.821985327961989,-1.52636039295957,1.74460558309204,0.0073973425651519,0.0051553618170167,0.0090165643396231,-0.0373534351220686,-0.122319895628576,0.129271828840597,0.0083523605657542,0.120318423413518,0.121374963851912,15.359365339659,2.32337091907091,2.26969603240974,0.0173938180667991,0.0528447229960515,0.155884564042881,0.414243714185607,0.0004055337226674,0.0099613669075124,,,,,1.779143412243,-117.297381887505,2.37384969604741,AttemptLanding,AttemptLanding,1,0.489503148261594,0.195528673967655,0.121119756829763,0.955214707776395,0.330717971536497
147,1.46916300338387,2.00429844856262,-0.730598819080207,-1.26322877414616,1.46916300338387,-0.0435945195143498,-0.0002056455459494,0.0435950045507234,-0.0297203706657056,-0.0842528227471102,0.0905347909170739,0.0058395679010481,0.0966924380567397,0.098151704870279,15.4257058041976,0.849714193793559,0.791083852109317,0.175883771983694,0.240124279520051,0.119696099395687,0.366539541200925,0.155766199710278,0.0395351897626326,,,,,1.48754464037965,-118.732441752547,2.15006180046922,AttemptLanding,AttemptLanding,1,0.41140714187642,0.128397892666186,0.160644590334126,0.899166129361773,0.346801733601917
148,1.6867635602119,2.24954771995544,-0.757678541473557,-1.49434028767521,1.6867635602119,-0.0485839847874842,0.0040926512822163,0.0487560598525795,-0.0323556333151326,-0.118361707868208,0.123939152734874,0.0079938634643706,0.120862512164025,0.122802369345276,15.4638087383787,0.96418414125933,0.752676318910416,0.176879507901405,0.240200028501113,0.148710451656115,0.393415368425054,0.158503862776294,0.0368997473702101,,,,,1.75445964810256,-115.915142708198,2.48105439285271,AttemptLanding,AttemptLanding,1,0.474364089925561,0.135565046915271,0.165203279335875,0.898070628147964,0.333906465930616
149,2.5744466614165,3.0,-0.604622355784829,-2.46751806115125,2.5744466614165,0.0088026783578172,0.0039238809453246,0.009637633939109,-0.028684834900954,-0.318269620215847,0.32078142630892,0.0207122743380709,0.209464703184022,0.211976826884673,15.4039887545676,2.02443570556734,1.70012071736248,0.0274459898079464,0.0491753102247188,0.134039567398792,0.458183533085229,0.0200577076966709,0.0054837476237385,,,,,2.89228411426449,-102.374592577792,1.77151898760093,AttemptLanding,AttemptLanding,1,0.728914475088002,0.0975164007367901,0.0694184672411459,0.957012633201578,0.34042685893387
150,1.51940711366164,2.22453761100769,-0.649387049314688,-1.36329324875636,1.51940711366164,-0.0375406116275663,0.001647615952994,0.0375767502546498,-0.0239146622349198,-0.0990416540822061,0.102714176451706,0.0066262679210825,0.105624688319359,0.107273191225538,15.4142126697015,0.980809142054551,0.933813939178256,0.17606967245386,0.242479263628425,0.152326534515432,0.374681359042733,0.1565738098867,0.0400609820871876,,,,,1.57055207434036,-114.528428258895,2.08584656638967,AttemptLanding,AttemptLanding,1,0.426629868554878,0.165543432782881,0.183482049469259,0.896921696706241,0.332299317993141
151,1.49764215946198,2.10808229446411,-0.65579688456489,-1.33627491258748,1.49764215946198,-0.0380188417700288,0.0060440800529261,0.0384962755759654,-0.0239327640876199,-0.094796162940644,0.0985886294043851,0.0063577929121272,0.108663444369248,0.110225237648232,15.4555363692627,0.697583712584697,0.66764661392082,0.175390499867084,0.240165984239657,0.132481165870793,0.432685227966209,0.155818450376334,0.0412244696962477,,,,,1.53043490962982,-115.371127707452,1.85163736225378,AttemptLanding,AttemptLanding,1,0.42141629005284,0.144406680897741,0.17088736940353,0.9015779403582,0.341119481835203
152,2.61372721195221,3.0,-0.654340702704936,-2.49693759206446,2.61372721195221,0.0055267524689336,0.0045062150738095,0.007130986407524,-0.0315584535117937,-0.325452689364748,0.328341571296694,0.0212128612478181,0.195462110038122,0.197944364071633,15.3054489415991,2.35787666671816,2.11873934792938,0.027715349305893,0.0713735654924461,0.143948133789719,0.423529152883908,0.0207542954614966,0.0062552718908239,,,,,3.0,-103.235441300153,1.60850322115642,AttemptLanding,AttemptLanding,1,0.736582796001582,0.0882187248187989,0.064430010531436,0.950968913803394,0.336023051649014
153,1.48959189933418,2.22651791572571,-0.712273091155744,-1.29734758930175,1.48959189933418,-0.0403739926691777,0.0027956204121806,0.0404706656424109,-0.0283515136363074,-0.089859010546209,0.095356084801031,0.0061498780230145,0.114106567731445,0.115554140593337,15.4606326973201,0.85495094422737,0.771811326582185,0.17704984814316,0.240185669033154,0.14069240419711,0.397672620349902,0.15618331030005,0.0409634749925204,,,,,1.53053947457772,-117.277382087191,2.4516756784479,AttemptLanding,AttemptLanding,1,0.420335334607783,0.173227975722535,0.18824739909951,0.898693372372059,0.337470042579062
154,2.68152486958933,3.0,-0.669899152310972,-2.56038812283571,2.68152486958933,-0.0302585013096923,-0.0079213185228665,0.0312781743177149,-0.0301533330946296,-0.336419120620517,0.339082925913107,0.0218886232579093,0.200516085250992,0.202657050281833,15.4111480211347,1.73542312569905,1.52607872183076,0.0632456946194504,0.240314140831964,0.126071796249149,0.413823336374459,0.0018890303166707,0.0080179898316929,,,,,3.0,-102.931426400997,1.71565734265852,HoldLanding,HoldLanding,0,0.755604708613521,0.0773912363006485,0.0501899434760907,0.942751066745398,0.343968090555934
155,1.64455368027494,2.67180442810059,-0.778881186336966,-1.42187207248056,1.64455368027494,-0.0673310606611527,-0.0093260077542212,0.0679738637300221,-0.0370423700436312,-0.110052950920558,0.119055314987975,0.0076801146108664,0.161278107784915,0.163143368498983,15.3643384555622,1.03687023902517,0.989318204988751,0.177062506895932,0.240181503267245,0.14579751474903,0.484146109142494,0.158614726564616,0.0367927846849078,,,,,1.68981233095603,-117.495671617653,1.7116424440219,AttemptLanding,AttemptLanding,1,0.471176321773113,0.243593293277942,0.230030604426359,0.895548694491925,0.335201104555987
156,1.62008335040166,2.27453923225403,-0.703080756940424,-1.44031817740033,1.62008335040166,0.0076123639279462,0.0051818567793263,0.0092086765744566,-0.0288184018937929,-0.109714716205665,0.115121373906917,0.0074338083568222,0.12958524355798,0.130447006991802,15.3905122331638,1.93384626917541,1.78742931827106,0.0277568337164058,0.0499876049250144,0.132285758222732,0.43618659674641,0.0196539590938178,0.0056135393691929,,,,,1.64682358488304,-115.230680905002,1.72624029751731,AttemptLanding,AttemptLanding,1,0.458111628172136,0.148940830788767,0.100140878447189,0.956882989240432,0.341206329678786
157,1.65842073795779,2.3761043548584,-0.743401302944959,-1.46926328720155,1.65842073795779,-0.0519181001533364,-0.0107717462891925,0.0530237648762383,-0.0313948522009255,-0.114432398090217,0.119951621781378,0.0077367063966114,0.121000547232394,0.122897867527642,15.4507890317148,0.747272399760365,0.935342674401303,0.175201492646644,0.240183568788624,0.131734365401207,0.417405821841171,0.156888159959773,0.0419678921849798,,,,,1.69535374865113,-115.407012304463,2.26261795554796,AttemptLanding,AttemptLanding,1,0.466825103627607,0.17119983736328,0.187709025214829,0.899178706665408,0.341451393155019
158,1.63451635757008,2.30907297134399,-0.767148845729673,-1.43157674545333,1.63451635757008,-0.0434833219353452,-0.0042238886027553,0.0436879905862167,-0.0329619563230728,-0.108045513599351,0.114261290178362,0.0073699757601753,0.111176324965884,0.11302035106731,15.4502793607251,0.896061912562787,0.848805085889206,0.1762518550123,0.240190639694558,0.161190326226731,0.44139998152643,0.158699731567253,0.0359199023983815,,,,,1.65925020896733,-117.23842078182,2.32119776389784,AttemptLanding,AttemptLanding,1,0.458475098898817,0.159784703039937,0.179465818544173,0.898164403220299,0.328359855010342
159,2.5787374861663,3.0,-0.736974470244224,-2.43941893812412,2.5787374861663,0.0058681651538136,0.0058188180744983,0.0082640187594499,-0.0368680540005972,-0.310719183811632,0.314576063023421,0.0203109886939598,0.197116072620874,0.199581955221931,15.4299990921623,1.95361607726332,1.84801176097476,0.0259378161794659,0.0426534566632017,0.137122618850017,0.428537892410668,0.0125773773534885,0.0062991510184088,,,,,2.88835322200788,-105.56852442763,1.93038321732651,AttemptLanding,AttemptLanding,1,0.727579720688733,0.0962991357184816,0.0656600272918588,0.957161158895539,0.339056613844437
160,1.51238825577217,2.37846922874451,-0.669180124089304,-1.33344059728527,1.51238825577217,-0.0604596183989369,0.0006044830127911,0.0604626401727366,-0.0276722653240777,-0.0973584286255724,0.103162549277052,0.0066544665302628,0.161080399700508,0.162730577000136,15.354525056997,0.998559362660235,0.884251138124815,0.176515367225314,0.240184490606635,0.158157416408181,0.4361638373146,0.155805040123942,0.0404582794367697,,,,,1.56544004446909,-115.546181583882,1.84409227381847,AttemptLanding,AttemptLanding,1,0.435849650272607,0.205953036283776,0.207530607883166,0.896948805309746,0.329707814929697
161,1.66142118537186,2.33328318595886,-0.777074343987571,-1.45603572373262,1.66142118537186,-0.0508867563885962,-0.0080914922091815,0.0515260538167206,-0.0341382669471006,-0.112653882728876,0.119006718626783,0.0076771737395346,0.113597685156677,0.115500481879329,15.4066723029979,0.954004430003969,0.982589462410139,0.175789788975703,0.240207305581786,0.194088842850502,0.426546458733446,0.156071135624526,0.041023720145786,,,,,1.70136515468512,-117.053321105748,1.74008311696355,AttemptLanding,AttemptLanding,1,0.466145745808362,0.160615393331808,0.18065190158219,0.896889010643181,0.313738292066444
162,2.5688886646443,3.0,-0.718730027840864,-2.43267792591246,2.5688886646443,0.0090696094437498,0.0033382599871714,0.0096644604197081,-0.0361574619361743,-0.30935972756492,0.313184721225901,0.0202269197461284,0.207981617801768,0.210375158713734,15.3583394029549,2.08602619388839,2.05289473804221,0.0175662123155615,0.0736262527166712,0.13462110351841,0.481505918964316,9.50296717798113e-07,0.0128746091797245,,,,,2.85921158454158,-105.062668776886,2.36357330104982,AttemptLanding,AttemptLanding,1,0.727112008981226,0.098771868198646,0.0639452193386388,0.958696800805622,0.340168398436262
163,1.67556990873094,2.5488646030426,-0.775837941410088,-1.45711796223517,1.67556990873094,-0.0781303695497575,0.0001726397856147,0.0781305602851871,-0.0366422895699176,-0.116526582756973,0.125178454110904,0.008074862134382,0.167573615333218,0.169407993255536,15.3968199000607,1.04302261140733,0.853766821555447,0.176121355045838,0.240207765472483,0.137981969057274,0.372414716041139,0.155641610865332,0.0409006228128451,,,,,1.71874998102098,-116.787170824054,1.50131728729064,AttemptLanding,AttemptLanding,1,0.480700240979357,0.210815242272409,0.210536148387052,0.897035976932373,0.338674680418989
164,2.47771960752716,3.0,-0.735328900113255,-2.32897704981838,2.47771960752716,-0.0104319817199067,0.0105129886188799,0.0148104413271571,-0.0397588330355512,-0.289612698852769,0.294689374301369,0.0190215882393028,0.231863278627899,0.233366754809311,15.3915950799859,1.62303953680452,1.5006246901534,0.0762179380558764,0.244734251714674,0.213570972713153,0.574853488650828,0.0574926323481385,0.118686302655069,,,,,2.64390369362176,-106.697557678757,1.55172594919416,HoldLanding,HoldLanding,0,0.707398579635773,0.120228335883034,0.140847938084371,0.937347954903107,0.305079567683043
165,1.63397296538224,2.24546265602112,-0.696722025661118,-1.46462178044047,1.63397296538224,-0.0459828566872564,-0.0048070171191033,0.0462334351168515,-0.0274195929798702,-0.113122496705678,0.117502485363384,0.0075782770195163,0.109324698568192,0.111255562648871,15.4628376210289,0.903197928863394,0.691397196792984,0.176016566814145,0.240164103630794,0.126907783780311,0.387514231133594,0.158561430786248,0.0380090168123594,,,,,1.65443912380199,-114.70021335318,1.97587003838277,AttemptLanding,AttemptLanding,1,0.457977236631705,0.14606131016517,0.171929993774252,0.899462754891342,0.343596540542084
166,1.66429794612138,2.36938405036926,-0.721058655916159,-1.48832429410413,1.66429794612138,0.0057646804618697,0.0036044781473921,0.006798808979703,-0.028993474090932,-0.116318971055438,0.120888334241041,0.0078052981806152,0.113626988989978,0.114589584198073,15.4084944072855,1.79056658654313,1.95842811062309,0.0272784026391434,0.0523584452914917,0.138744099925507,0.453215728049752,0.0169909030372833,0.0055924615463263,,,,,1.6985678915868,-115.061450151433,1.78888157246078,AttemptLanding,AttemptLanding,1,0.466730702471983,0.159890821768719,0.105519627902728,0.956904411774122,0.338335955588664
167,1.48081480776704,2.06116271018982,-0.701799782689069,-1.29295094026328,1.48081480776704,-0.0402875529023524,0.000827944576288,0.0402960594981848,-0.0273968679500308,-0.0886209539492423,0.0938234035897294,0.0060517692718278,0.0983466580265128,0.0998068299862185,15.4360955309794,0.909728197530169,0.879380019441677,0.176826363939861,0.240174347902299,0.118006914242198,0.468948743763993,0.15835097719111,0.0363523683149972,,,,,1.53242316823457,-117.234742424214,1.97843106371197,AttemptLanding,AttemptLanding,1,0.41484531473512,0.137965888953127,0.166376788480449,0.897529539182434,0.347552482559023
168,1.70310481899493,2.47116494178772,-0.855462415393904,-1.4519551746872,1.70310481899493,-0.0681984634518874,-0.0169071979131494,0.0702629614980242,-0.0420884384033781,-0.112867318000448,0.123201615164721,0.0079481996571539,0.145184068946343,0.147163204121196,15.4134963571534,0.913502133169239,1.06301411676753,0.176958311105848,0.240213997646927,0.148856989723359,0.426257889519944,0.158780635698724,0.0384532990369238,,,,,1.76822611766951,-118.998443980142,2.34940363539707,AttemptLanding,AttemptLanding,1,0.483593925889555,0.185695070569681,0.195969231595072,0.895991073911859,0.333841337900729
169,2.47414137009394,3.0,-0.77411135805811,-2.31705363357101,2.47414137009394,0.0084980195220298,0.0060793049908829,0.0104486499113032,-0.0403986257561248,-0.284136349724582,0.289062132537925,0.0186746066644929,0.216691003556796,0.218888778045136,15.3922104085868,2.30222441770854,2.23078854160831,0.0212487069070098,0.0518984416905518,0.150008838418089,0.441170412948397,0.0015102411520081,0.0067605236372809,,,,,2.66549340284327,-107.193726307889,2.19930999711571,AttemptLanding,AttemptLanding,1,0.703548787634078,0.120233777545935,0.0752698570490811,0.953759116151863,0.333329405147516
170,1.74834026986321,2.45116448402405,-0.76412158038133,-1.55874816409733,1.74834026986321,-0.0544717750432137,-0.0034299841350663,0.0545796580011756,-0.0330231102140212,-0.128168800062984,0.133681581105953,0.0086230093332554,0.113487559115631,0.115760469053075,15.425572101455,0.942334136466886,0.924707654818126,0.175936089708777,0.240198479746375,0.124287083439752,0.446595056628488,0.156028383004145,0.0426968736626632,,,,,1.77840570795084,-115.675983280215,1.60383551597014,AttemptLanding,AttemptLanding,1,0.489376165774136,0.168141718819738,0.185757115171017,0.897362341071229,0.344761296248999
171,1.63746854985082,2.29461526870728,-0.792706734978507,-1.42132046225497,1.63746854985082,-0.0416089791071836,0.0026473880160045,0.0416931146072025,-0.0346299177297733,-0.107383638353737,0.114140621420579,0.0073617936010665,0.114360473396099,0.116125631145669,15.4102398102998,0.896945528721398,0.862413998533202,0.176891801473354,0.240182230620027,0.129341796153351,0.485274133182907,0.15855669568263,0.035641370387412,,,,,1.68221562017466,-118.331726157389,2.48445098628587,AttemptLanding,AttemptLanding,1,0.459883406189354,0.155501749420689,0.176731190500722,0.897730560120608,0.342514757265177
172,2.42260241787569,3.0,-0.855391413127596,-2.23351363102541,2.42260241787569,0.0062075482505286,0.0044363670213306,0.007629875990512,-0.0473923888828732,-0.265859467933723,0.272857924499126,0.017623850365363,0.226630692472992,0.228708087303244,15.3780603175202,2.02581798010991,2.0796994255796,0.0273507051605866,0.0537026293074584,0.144063847927349,0.472892464794059,0.0168115148685971,0.0054163301693587,,,,,2.5789773418386,-109.450212225276,1.83279216867026,AttemptLanding,AttemptLanding,1,0.691768928894167,0.13131326657623,0.0882293189388206,0.954067010660718,0.335971623143401
173,1.56783093782079,2.24236440658569,-0.734364584584094,-1.36891720685672,1.56783093782079,-0.0557230489370827,0.0007250432359555,0.0557277657056024,-0.0310774994142687,-0.0996792759283076,0.106131242035496,0.0068463986734837,0.126388371651805,0.128059211839849,15.4231015693426,0.964109806189295,0.991648162608376,0.176226899964811,0.240181320547067,0.143198589205185,0.459666632479948,0.15585924481442,0.0408202181293161,,,,,1.60572032516396,-117.151648626796,1.96622367344805,AttemptLanding,AttemptLanding,1,0.443700092453515,0.16198678751813,0.181306563667341,0.896519880262756,0.336356182575473
174,2.25039421292238,3.0,-0.722527574367315,-2.10225709505396,2.25039421292238,-0.0076566627531626,0.0171854462582034,0.0188139322739629,-0.0370334432635608,-0.246580838131768,0.251454655263565,0.0162316124034666,0.230155881073298,0.231599923049444,15.3925953167535,1.64222639065192,1.55953648386725,0.0629326288107959,0.240394462693749,0.134195484757818,0.452852561280736,0.0019284694645962,0.0078125488407213,,,,,2.36078838964489,-107.709824257803,2.35078996025078,HoldLanding,HoldLanding,0,0.646425108055858,0.172110523009357,0.106964338196606,0.943376977294809,0.340357562329859
175,1.63070154512251,2.29985404014587,-0.788887901861234,-1.41488330580118,1.63070154512251,-0.0387088957373506,0.0042811310609619,0.0389449186976454,-0.0343492910581957,-0.105341388892157,0.112174097090775,0.0072365619038819,0.101465997864186,0.103271398962718,15.3769920006364,0.978562202983203,1.03836291873816,0.176679613864941,0.240185772894731,0.153553252801746,0.453106103975887,0.15872996780277,0.0352598840354335,,,,,1.70036876942666,-118.357386427334,1.8877793212785,AttemptLanding,AttemptLanding,1,0.455508025158546,0.157699213141492,0.177987956254567,0.895812924254005,0.331754109865891
176,1.74580533727754,2.63640022277832,-0.890289837576667,-1.47198993444169,1.74580533727754,0.0064386428249154,0.0063297712911174,0.0090289604066409,-0.0476898610141946,-0.118306294433926,0.1317157382221,0.0085072628736432,0.185049138905403,0.186084583460424,15.4048006145792,2.23561571848863,2.1138654530753,0.024358084105618,0.0550174976933145,0.145452062905584,0.485492054001024,0.007434937333277,0.0072009428148707,,,,,1.79740384781532,-119.424856454763,2.05518410799018,AttemptLanding,AttemptLanding,1,0.502765006632763,0.202039158645559,0.127146436439856,0.95364646302776,0.335354638708629
177,1.9392653695689,2.86308646202087,-0.985389946698173,-1.6459067200132,1.9392653695689,-0.0737641198075516,-0.0032215147299161,0.0738344332147129,-0.0557429812288891,-0.144468064295365,0.158542003820225,0.0102281414833732,0.153308697018978,0.155850142119295,15.3972840419135,1.06651957248262,1.08564194292384,0.177254085861202,0.240291399695248,0.169113670503545,0.463905410104411,0.155723575723406,0.0407665969904636,,,,,2.00389774569212,-119.82849383685,1.63181399187433,AttemptLanding,AttemptLanding,1,0.548307460308898,0.221396058557726,0.216872330321368,0.894463116591206,0.324838368665091
178,1.83333293489508,2.65624618530273,-0.987194671892773,-1.52313268676851,1.83333293489508,-0.0678098492499191,0.0100381407278397,0.0685488141733223,-0.0549175588146885,-0.123340091185852,0.138390605339711,0.0089277258610563,0.146930863337442,0.149127208547557,15.3485799164639,0.997792753646117,1.08418018501749,0.176684014390101,0.240223194745689,0.144991697131038,0.488124499152535,0.158888977170792,0.0365633411971056,,,,,1.88108853169074,-121.75609313085,2.23536469153964,AttemptLanding,AttemptLanding,1,0.518714224348199,0.197722763940165,0.202546741986429,0.895299634001164,0.335559245719539
179,2.50732500816269,3.0,-0.6627695712708,-2.38376549897419,2.50732500816269,0.0085046128388326,0.0069130583436639,0.0109598729555291,-0.0323287867649277,-0.298880550677119,0.302135173657167,0.0195087562505708,0.216609822655566,0.21895068187044,15.40478560736,1.93985174671241,1.88248040582445,0.0167233969179155,0.0510837709041394,0.127918728484084,0.41663665933866,0.0006537939979714,0.005074450095299,,,,,2.73243854491602,-104.018907315581,2.36456514628618,AttemptLanding,AttemptLanding,1,0.712410138550804,0.112861183205242,0.0698525396134638,0.96160569177111,0.343147231784852
180,1.81666883342975,2.48856234550476,-0.911742087302383,-1.55642277900628,1.81666883342975,-0.0468701231966392,0.0006855944871844,0.0468751372080018,-0.0466002276364553,-0.128148340498529,0.138341047703361,0.0089242780695502,0.122952876567406,0.125128377076586,15.4314104732258,0.932989492441869,1.02199064192055,0.176197680140386,0.240218614646147,0.169424879469195,0.393729842215994,0.158935756415409,0.0349117105323031,,,,,1.85620598441334,-119.444845846151,2.27487672769874,AttemptLanding,AttemptLanding,1,0.50947069766325,0.159769815371678,0.179195170651703,0.896540601731245,0.324700053569247
181,1.834777482404,2.6951470375061,-0.898018558821865,-1.58013936935606,1.834777482404,-0.0667066587863912,-0.0080944532419045,0.067195970859341,-0.046616427458286,-0.134209681351221,0.144597155389609,0.0093292072683281,0.155418188371135,0.157653547901983,15.391615352855,1.09136063014395,1.06639852788921,0.176757911514101,0.240596004215729,0.19211027557217,0.42939812436649,0.154888213029834,0.0429822200762707,,,,,1.8944468966032,-118.434379956689,2.05711684921966,AttemptLanding,AttemptLanding,1,0.520804704888131,0.205902411222185,0.208010550733901,0.894667222286974,0.314617655301258
182,2.42202726215822,3.0,-0.446423915319829,-2.34916192591306,2.42202726215822,0.0060566299130874,0.0043775285816312,0.0074729861760278,-0.018993078508205,-0.293345401249838,0.294611660481904,0.0190206519619461,0.223161450946294,0.225457297864567,15.3904478071653,1.87949395664975,1.9108002296508,0.0204573893747341,0.0553940502960059,0.120211259362274,0.468650469422385,0.0002016762795587,0.0083381606330372,,,,,2.61222307005049,-99.3162222201901,2.21340535838793,AttemptLanding,AttemptLanding,1,0.690965396148438,0.131413913480006,0.0819700404020432,0.959990422420272,0.346572773616767
183,1.81440956240532,2.44283437728882,-0.960460932141718,-1.5236410141869,1.81440956240532,-0.0533896012161903,0.0066893181557353,0.0538070301671862,-0.0508449117080049,-0.1226988184205,0.135125455289087,0.0087145303277873,0.126557487116835,0.128705206467619,15.4706641905423,0.800709949559828,0.784444188049768,0.175251779821131,0.240215651124685,0.140126136212263,0.374959028699675,0.155559831880306,0.0411982429009846,,,,,1.87171872539055,-121.350351106356,2.20980280450478,AttemptLanding,AttemptLanding,1,0.509583591268277,0.151260205546104,0.174875005622297,0.899919327579645,0.337721717238994
184,2.44369975920324,3.0,-0.25684069763978,-2.40015272507314,2.44369975920324,-0.013593420230034,0.0214511988190082,0.0253955705650202,-0.0103498736316955,-0.318478198730248,0.318964380831031,0.0205910371200098,0.214022704209187,0.21594106200142,15.3884362362302,1.69244873653729,1.46545024931747,0.0629838211379461,0.240438730797094,0.137299585122121,0.472614702337998,0.0019630188616635,0.0091769135839697,,,,,2.70378156394852,-95.0700514349474,2.32766347749399,HoldLanding,HoldLanding,0,0.694841481521147,0.129823408782859,0.0821035575822011,0.94369602597074,0.338977962167946
185,2.10733503103256,3.0,-1.22137014057187,-1.69340264188003,2.10733503103256,-0.0641227029892872,0.0205291324286657,0.0673287926293501,-0.0826887751752001,-0.153794258351624,0.179520329048709,0.0115813890800486,0.169989175685649,0.172763096856831,15.4257899064532,1.05398577054488,1.17183389774088,0.176252267415245,0.240358948100915,0.149097834889805,0.433133234702057,0.155688271205625,0.0402798330652877,,,,,2.15708888634091,-124.745911655981,2.3466384527988,AttemptLanding,AttemptLanding,1,0.596508627646716,0.213193229999721,0.211757937226074,0.894385283184418,0.333734295604531
186,2.07690250073503,3.0,-1.16079237447949,-1.68577376434535,2.07690250073503,-0.0077366613428137,-0.0011165301523721,0.0078168131815046,-0.0787264249451914,-0.1542580385792,0.180120485792673,0.0116315514420363,0.211446298656046,0.212889593562427,15.3834851681675,1.93375189176903,1.97948288397381,0.0281624644406664,0.0739203398986921,0.134236657292287,0.52937935148782,0.0151157685110712,0.0148278884148119,,,,,2.10837557196529,-122.363616262261,1.5,AttemptLanding,AttemptLanding,1,0.596418585575161,0.209130019751227,0.137588090612558,0.955171923113116,0.34033926342565
187,1.89507218079689,2.7615077495575,-1.02065002166604,-1.57994696264875,1.89507218079689,-0.0281653636816801,-0.0107191170998552,0.0301361441249824,-0.0623919573806337,-0.14417481464281,0.160109370185921,0.0103259319722186,0.155641961958015,0.156926010888714,15.4623515552211,0.680205414611632,0.85959861770926,0.16780294170474,0.245940925374954,0.233864052217425,0.446737769874798,0.241172060241579,0.0056867075880693,,,,,2.09849345512064,-122.244984043751,1.59261002779379,AttemptLanding,AttemptLanding,1,0.536737783723581,0.200472962727382,0.229539253634409,0.90400006889368,0.2960604212367
188,1.98844314426989,3.0,-1.11827727803288,-1.61215164183416,1.98844314426989,-0.0828382917490799,0.0048282766824638,0.0829788818653764,-0.0728633474277598,-0.142915778906212,0.166488068129936,0.0107383949479313,0.195854064058252,0.198525690615108,15.4548832539066,0.950827143606001,0.872659791757346,0.176339084458804,0.240300042157888,0.154695727146705,0.445486914530114,0.159124268471023,0.0341346361389905,,,,,2.08252249604559,-123.526280590972,1.99564080925539,AttemptLanding,AttemptLanding,1,0.569956643261659,0.242813087547927,0.228822344586622,0.897503060421315,0.331246343490353
189,2.49722127970246,3.0,-0.772279623912625,-2.34356649822865,2.49722127970246,0.0085758891146237,0.0105960269569529,0.0136316419179347,-0.0396069489178587,-0.289182411774394,0.293823118926454,0.0189786647722663,0.211558846945272,0.21375481319883,15.3500535840821,2.0329609336109,2.13434109655747,0.0220276031274309,0.0571920094048806,0.142486296024146,0.539148138228697,0.0011202372385141,0.0095704541272275,,,,,2.71977714743149,-106.924123588306,2.16963671328126,AttemptLanding,AttemptLanding,1,0.708676637227088,0.115624346418568,0.073352656205432,0.95624311105639,0.336672757322602
190,1.97798584451611,2.79381084442139,-1.07373072770182,-1.6375889132456,1.97798584451611,-0.0692464929136643,0.0147676202819713,0.0708036679108833,-0.0651160160448261,-0.144550628525973,0.162651806111715,0.0104904586550968,0.15879122662113,0.161191227430698,15.4564258330082,0.927509218081361,0.922056854815823,0.176039544758065,0.240279290837447,0.146054181335575,0.398976538215459,0.156443038738627,0.0405021263749661,,,,,2.06580628279313,-122.281189709167,1.93926328512774,AttemptLanding,AttemptLanding,1,0.559701137357103,0.196541297429015,0.202183063851332,0.897447922762489,0.335087030517522
191,2.01860721799351,2.74029207229614,-0.997971435901429,-1.7308231003363,2.01860721799351,-0.0725266132515142,0.0022273355860807,0.0725608065938337,-0.0574263422553844,-0.159633288684527,0.17318319644546,0.0111711646165558,0.160628979698889,0.163352754448825,15.4215855415883,1.08846304428293,0.920113571022322,0.175964129038431,0.240280882384316,0.164370585998505,0.485423470044209,0.154524179624667,0.0402459458524877,,,,,2.07634549688122,-118.754548572983,2.33183792074344,AttemptLanding,AttemptLanding,1,0.570965809021368,0.175681906760295,0.1887214466236,0.896236262074815,0.326946406222887
192,2.47060744977715,3.0,-0.947100847279318,-2.24819692853429,2.47060744977715,0.0082596693942824,0.0028355218686576,0.0087328301695659,-0.0556012603409054,-0.267187205739341,0.276284076472853,0.0178374597437472,0.213425655253416,0.21549058940603,15.4196874736699,1.76145755011557,1.98584935464575,0.0257223004585261,0.052371836743467,0.12987609234665,0.42561551203328,0.0097294909887107,0.005683880606855,,,,,2.68099720733185,-111.612146549017,1.95120468445101,AttemptLanding,AttemptLanding,1,0.701926771155113,0.120714342664562,0.0788196894911618,0.957695724090469,0.342277292290378
193,2.0766135110151,2.83157324790955,-1.09052031866917,-1.75214139249407,2.0766135110151,-0.0590930157384801,-0.0004026574315713,0.0590943875683254,-0.0650333456530465,-0.161880376820709,0.176976219733407,0.0114150293873466,0.135261417383366,0.138084408275905,15.4558829557112,1.02181491600224,0.854704823644099,0.175824921512901,0.240322251073167,0.154148866349266,0.386429652524127,0.156112715099918,0.038989356902473,,,,,2.11900443077325,-120.570247299149,1.72151258811681,AttemptLanding,AttemptLanding,1,0.581380484592542,0.180699911855442,0.191981324011098,0.8973434555749,0.33148939273366
194,2.40870977006416,3.0,-0.941644643804529,-2.18436784436856,2.40870977006416,-0.0096237733433442,0.018255781136721,0.0206371160358206,-0.0573287905361081,-0.263923626874707,0.273861762446386,0.0176802087439707,0.224720265123199,0.226197230780317,15.3439777605977,1.67823168108989,1.60050674700798,0.0625185021081848,0.240367906302795,0.129411585822785,0.497225243760401,0.0019780887258398,0.0093051453469427,,,,,2.61715863552686,-112.220792726245,2.28916732814957,HoldLanding,HoldLanding,0,0.687562051506507,0.136823773008797,0.0863571035671659,0.942979232725139,0.342483739634318
195,2.00821650833697,3.0,-1.01827176763855,-1.69694631151252,2.00821650833697,-0.088843560244454,0.0037818595250618,0.0889240162069687,-0.0627821127160035,-0.158506970198268,0.176052199291456,0.0113594388256769,0.205684201621461,0.208311896913435,15.3860309432386,1.04874962152049,1.22200919544684,0.177104719921315,0.242943443151216,0.162157460235153,0.440069687116856,0.156172720152639,0.0404124023613149,,,,,2.08957514186263,-119.371133784789,2.30801112537217,AttemptLanding,AttemptLanding,1,0.577186781605879,0.239454021928793,0.227777930043371,0.893605963620314,0.327930017673266
196,1.94280855751357,2.76835131645203,-0.90971538498132,-1.7017000772882,1.94280855751357,0.0038310271887439,0.001429732240178,0.0040891201497998,-0.0458375878039583,-0.152122506311134,0.160722537083062,0.0103811036912968,0.138441483639273,0.13967018297665,15.4033864486803,2.07974687356731,2.18905775322096,0.0202230678772848,0.0522173570638945,0.141560813128503,0.479904597359914,2.70100332749234e-06,0.0076966215362356,,,,,1.98818975952798,-117.123132335998,2.23514638336735,AttemptLanding,AttemptLanding,1,0.546016318598948,0.186496792788617,0.114698047586816,0.95634785827945,0.337084083053999
197,1.88496994572198,2.59481382369995,-0.832395985146384,-1.67638528249924,1.88496994572198,-0.0578642129700394,-0.0101799197389328,0.0587528544713633,-0.0392712397605398,-0.148330828296806,0.155039430136306,0.0099999944980541,0.124656727886638,0.127171749724882,15.4372048109638,0.820239612734881,0.924653159559211,0.176160537186692,0.240274360315519,0.159085985199989,0.449522821304208,0.154968481162632,0.0401457623582491,,,,,1.96491164649544,-115.571452830696,1.98542923236016,AttemptLanding,AttemptLanding,1,0.528093002137504,0.170486229198127,0.185765077074965,0.898209859624343,0.329295117688894
198,1.82420922292245,2.5176944732666,-0.805381638963829,-1.62449902039728,1.82420922292245,-0.0472418166736092,0.0019003513064255,0.0472800230299303,-0.0362325796734068,-0.139104628613518,0.145013941189968,0.0093556711225644,0.117124933493633,0.119578013766154,15.3948863847537,1.06127471250464,1.03948965932818,0.177222722374096,0.240224578866693,0.164453859628502,0.487044689711843,0.159035463206515,0.0357131841288709,,,,,1.88489007794024,-115.359098105949,2.23473512066519,AttemptLanding,AttemptLanding,1,0.510371395532552,0.164702185549587,0.182490351832035,0.894882633034266,0.326909395720666
199,2.47302704790364,3.0,-1.11699147443333,-2.16826784128704,2.47302704790364,0.0068269083828004,0.004997473127953,0.0084605801061016,-0.0740846081750468,-0.248962556464284,0.265311213381184,0.0171343961790438,0.218426170215514,0.220419982858178,15.3849459392564,2.07115349837248,2.09488307355026,0.0280258247563513,0.0702411168397485,0.142112132827543,0.497876716083536,0.0203458580295717,0.0072532858670125,,,,,2.68563096804021,-116.007396076949,1.5,AttemptLanding,AttemptLanding,1,0.703557876012607,0.120120020574466,0.0837521744104735,0.953253943128146,0.336839052076648
200,1.9253141760026,2.67137956619263,-0.823672316701958,-1.71900480197907,1.9253141760026,-0.0701545091446374,0.0002024460345068,0.0701548012449747,-0.0396186928257726,-0.156942079509782,0.164021663031993,0.0105790189899039,0.150010642022745,0.152504629927269,15.4465629909975,0.929816655702786,0.814719795151461,0.176005974021983,0.240264052071834,0.135908479646284,0.385302457224382,0.156468818556488,0.0411126127712854,,,,,1.97177383483815,-114.893051128023,1.55740510009155,AttemptLanding,AttemptLanding,1,0.543918039586148,0.180726426354334,0.192927593956557,0.898289940875154,0.339596231268318
201,1.83666742250726,2.50752878189087,-0.769121756229385,-1.65471805031917,1.83666742250726,-0.0419231124077203,-0.0054351819339052,0.042273970201591,-0.0332485560305755,-0.144351869909438,0.149256261814585,0.0096288455094079,0.122771570131037,0.125196574957395,15.3921818531489,1.03527127559908,1.01472343595682,0.176927715851476,0.240218091523061,0.157355351404985,0.509074908270705,0.159500696397988,0.0371102142569616,,,,,1.87135485490829,-114.338554000358,2.02567324041679,AttemptLanding,AttemptLanding,1,0.514817294326748,0.158694033731604,0.179600242004236,0.89542904076918,0.330064288264451
