scenario_id,mean_wind_speed,max_wind_speed,wind_velocity_x,wind_velocity_y,wind_velocity,wind_acceleration_x,wind_acceleration_y,wind_acceleration,wind_body_force_x,wind_body_force_y,wind_body_force,mean_wind_body_risk,mean_wind_gust_risk,mean_wind_risk_raw,min_thrust_margin_n,mean_abs_roll_deg,mean_abs_pitch_deg,mean_abs_vz,max_abs_vz,mean_tag_error,max_tag_error,stability_std_z,stability_std_vz,mean_imu_ang_vel,max_imu_ang_vel,mean_imu_lin_acc,max_imu_lin_acc,wind_speed_cmd,wind_dir_cmd,hover_height_cmd,gt_safe_to_land,label,success,onto_wind_condition,onto_gust,onto_temporal_pattern,onto_drone_state,onto_tag_observation
1,2.04288955583964,2.69508004188538,-1.26033439224735,-1.58923486301198,2.04288955583964,-0.0650083836770484,0.00939237343343157,0.0656833816654972,-0.0861530242417989,-0.13304732962797,0.162415486082365,0.0104736880397417,0.12872477860824,0.131474598429859,15.4725780399749,0.756577372682252,0.686616617680474,0.178023851276249,0.240299446586584,0.105265491233266,0.343796542181817,0.15887513666012,0.0352949715698322,NaN,NaN,NaN,NaN,2.0716688985117,-127.374480982322,2.31472368639318,stable,stable,1,0.571065467909877,0.158784812665631,0.178716594564623,0.899648693009025,0.353215337229659
2,2.16425789486278,3,-1.27683623802828,-1.70807598404418,2.16425789486278,-0.00649449656873473,0.0109278241952914,0.012712034743679,-0.0983885365278403,-0.170710669985722,0.206653451269909,0.0133311365490197,0.231135088062298,0.232007518098433,15.437965520853,1.04831281234042,1.14191071802883,0.0342899501396996,0.152516279664948,0.310944893729946,0.694696319405115,0.00612455793974332,0.0192508950635695,NaN,NaN,NaN,NaN,2.42882567996652,-126.095851442396,2.32706635135918,unstable,unstable,0,0.623536942249762,0.190372513358882,0.123945859243988,0.965646125762963,0.261802269453357
3,1.65456643236342,2.5762152671814,-1.02845422689007,-1.28028378317717,1.65456643236342,-0.0509680426742909,-0.0169039967170682,0.0536981049857348,-0.063979384412314,-0.0961642759743762,0.118564624939213,0.00764680978974132,0.144749362447639,0.145644995417319,15.467499554172,0.629332298373182,0.923304502717522,0.169807568256396,0.243346415009512,0.237949280197963,0.453845957562445,0.131408169590552,0.00507065165566855,NaN,NaN,NaN,NaN,1.87319628751653,-127.297520073929,2.33652802399846,stable,stable,1,0.470346714380377,0.217215640414762,0.190576888507325,0.902896926720375,0.294244764356461
4,2.35307772624998,3,-0.619277193754227,-2.23801220472473,2.35307772624998,0.00333480972391051,-0.0119025054893726,0.012360849194907,-0.0301324433401477,-0.267387177496162,0.270617321896291,0.0174539921325085,0.222274978455547,0.222878023894855,15.4564094248813,0.945818692715342,0.751456786616048,0.051801085423302,0.238456820578075,0.314821272827997,0.70482101766304,0.00272937257223781,0.0046147471639733,NaN,NaN,NaN,NaN,2.46779887999601,-105.553838771394,2.45358993780002,unstable,unstable,0,0.672062998445631,0.147823667279488,0.0915853447220516,0.960763721379317,0.260079434298668
5,1.84053531983127,2.65965437889099,-1.07191445667711,-1.47241770002585,1.84053531983127,-0.0602819614677837,0.00377969337853195,0.0604003390755307,-0.0643088118424074,-0.116396166061453,0.137267266451563,0.00885481509372749,0.149612921381946,0.15186046419141,15.4398254955327,0.969621041595855,1.02950025215938,0.178513053352404,0.240228896872284,0.165339965778367,0.44356972110078,0.155231639679669,0.040880439062927,NaN,NaN,NaN,NaN,1.88084050141636,-125.058018224367,2.23255824154921,stable,stable,1,0.521181511459955,0.195375183785617,0.201082564333702,0.895036091730007,0.32651557076517
6,1.86317310165801,2.87520170211792,-1.03087882391906,-1.52110569677059,1.86317310165801,0.0074919855029693,0.00256623143932847,0.00791930493016275,-0.0624790876611882,-0.126734679073688,0.146676361705249,0.0094691189115672,0.201993738262607,0.203088499280374,15.4123121770795,1.85876484186701,1.87437448095337,0.0278922873262368,0.0481979220947351,0.131666358732143,0.451162915279995,0.0134587717155704,0.00701847668837418,NaN,NaN,NaN,NaN,1.9161886291726,-122.783489357006,1.88507450683723,stable,stable,1,0.53746386029821,0.22915830767401,0.146028834263664,0.956722047371864,0.34148161834127
7,1.8938476435236,2.88795208930969,-1.07763490948528,-1.52498839465655,1.8938476435236,-0.082505432837544,-0.00342872945109817,0.082576647021778,-0.069053611651583,-0.128260366798146,0.1516714872195,0.00978512278414414,0.192044243719993,0.194368327888041,15.3760153297041,1.03987431326349,1.15120508622202,0.176567733277819,0.240279272141181,0.178813807623423,0.499401497444956,0.157697575018425,0.0358865095251952,NaN,NaN,NaN,NaN,1.96867067391655,-123.586570068552,2.10960542612188,stable,stable,1,0.543899703850569,0.238812552255863,0.226424982300161,0.89450050950799,0.320527196611812
8,1.9206296398833,2.66452693939209,-1.13321370714377,-1.5254955576074,1.9206296398833,-0.0657385007141682,0.00440488684490264,0.0658859127906952,-0.0722900445157716,-0.12426959382675,0.148625205116111,0.00958772204316948,0.154413849080017,0.156921551667372,15.421691372318,1.06718041241031,1.01387818426208,0.176244951549122,0.240241247590995,0.186114714110775,0.462110769577993,0.156460953901319,0.0418682112341662,NaN,NaN,NaN,NaN,1.96461919299708,-125.030810267647,2.04933984195892,stable,stable,1,0.543552214302354,0.179455976401105,0.192436591659734,0.895526349537299,0.3172823492841
9,2.62032696864749,3,-0.813839768913742,-2.45826984010962,2.62032696864749,0.00761881976924595,0.00301852680234355,0.00819499351633174,-0.0429862690528104,-0.314786907728287,0.319747435128911,0.0206449986048735,0.198649191833178,0.201146061466125,15.3735620894368,1.85240232070711,1.78424584317959,0.0295186293518478,0.069828832055789,0.119753005684215,0.548259429434598,0.0219431685773416,0.00616274024454385,NaN,NaN,NaN,NaN,2.98365709536118,-106.900241715489,1.61384370402076,stable,stable,1,0.738983070599222,0.086928847532309,0.0641508243396542,0.956667021179252,0.346776441918127
10,1.87981960660702,2.75703167915344,-1.13040854799091,-1.46936195068254,1.87981960660702,-0.0705708173784934,0.0155569268138954,0.0722651938166747,-0.0736210853663415,-0.118376638309812,0.145798853870333,0.00940730483116733,0.181998253476749,0.18436055606857,15.392379919933,1.05156491263143,1.20982104442609,0.176634214963393,0.240252346456425,0.193769921132106,0.442460685075464,0.156253055755858,0.0408000074590573,NaN,NaN,NaN,NaN,1.92399487038037,-126.353098118705,1.8821395792734,stable,stable,1,0.538157339642254,0.210621335189334,0.210654970020508,0.893914859998566,0.313880035052397
11,1.86149921691095,2.59940934181213,-1.15600070545061,-1.44358183597277,1.86149921691095,-0.0612938440792851,-0.000344954687842387,0.0612948147542056,-0.0725054575415864,-0.110351522393577,0.135031220091081,0.00871073771356782,0.126879068184703,0.129184582267277,15.4360131685802,0.925791405261174,1.08136121294547,0.176467757906617,0.240221271991018,0.159764966738203,0.432199737426153,0.158464095334312,0.0347879856902873,NaN,NaN,NaN,NaN,1.90759543141243,-127.844704273722,1.84558012656969,stable,stable,1,0.52223670762971,0.177267160807703,0.189438959914522,0.895995636189354,0.328993348116354
12,2.62991729508276,3,-0.787675076573757,-2.47513967213205,2.62991729508276,0.00719938942430942,0.0031007363608195,0.00783873548872307,-0.0412575744054301,-0.318746720489255,0.323412326222411,0.0208855314299486,0.194314145268635,0.196818546078592,15.4030829895266,2.15323184760244,1.87247585804649,0.0229224174890191,0.0492127695676127,0.133360500278774,0.451845824565034,0.000811463141254259,0.0062884062811138,NaN,NaN,NaN,NaN,3,-106.299635778902,2.13380873934403,stable,stable,1,0.740674987904453,0.0847057101126458,0.0534707695457217,0.956908230711106,0.340728666542767
13,1.97755597733163,2.98243188858032,-1.05672048090137,-1.63666310072223,1.97755597733163,-0.0851587413860486,0.00266154148031602,0.0852003229894544,-0.0661299187787005,-0.146931313596689,0.167172764493619,0.01078483033133,0.195703238439334,0.198214439646062,15.4160486971702,1.09723807775053,1.10756496043096,0.17626382087419,0.240316832127934,0.171519011548719,0.485686445996307,0.159471908030991,0.0356332595315258,NaN,NaN,NaN,NaN,2.02726066309477,-121.319262228342,2.18167415491612,stable,stable,1,0.566991148550979,0.24171713924569,0.228864236037298,0.894544637120051,0.323769328200569
14,2.58132492604657,3,-0.684930287812423,-2.45592866826054,2.58132492604657,-0.00736421242439019,0.0166053830593713,0.0181650865998486,-0.035596481501294,-0.325451305980028,0.329086058097858,0.0212418909494253,0.200877865119219,0.202726309571893,15.4302054137316,1.64827873344771,1.45222347679584,0.0633150992975472,0.240418720090331,0.132182648126917,0.438058770240673,0.0019446056118437,0.0096223196556972,NaN,NaN,NaN,NaN,2.96211416560549,-104.652706865072,2.3285064430919,unstable,unstable,0,0.728898575526797,0.0975321575161612,0.0628825889998606,0.943981361556456,0.341252156388037
15,1.75994758157922,2.69908714294434,-0.952241050524401,-1.45101014365776,1.75994758157922,-0.0777789022528706,0.0104839600479098,0.0784822977106797,-0.0532151750705579,-0.114931343114521,0.131184581977475,0.0084616789106401,0.170200801957725,0.172178990442784,15.4263596913027,0.917529759621541,0.88714179585789,0.176177198599783,0.240219860901169,0.151573617958861,0.374273348218829,0.156709572608758,0.0407559622800518,NaN,NaN,NaN,NaN,1.78867162897179,-121.8764556945,1.58192818308042,stable,stable,1,0.503755153176349,0.225694822554109,0.21988594238971,0.897731838478485,0.332633947573839
16,1.74904808312355,2.72082161903381,-0.998897256443642,-1.40555067708173,1.74904808312355,0.00467757475157592,0.00141482199423747,0.00488686267782906,-0.0583113696056613,-0.108421177062599,0.128309554409453,0.0082878680174572,0.188623772882272,0.189574643986176,15.3860643708834,2.06923642336126,2.13762811926743,0.0280971001762051,0.0656326260545071,0.141643844980669,0.515952337705718,0.0110324160852809,0.00588695851188028,NaN,NaN,NaN,NaN,1.79698325918466,-123.928221238646,1.89667758553368,stable,stable,1,0.504327750963516,0.219544970404077,0.138770990466487,0.952897514219815,0.337047180008592
17,1.8493236143317,2.62184906005859,-1.01565983791335,-1.52121307916771,1.8493236143317,-0.0723391340138234,0.0104050183675887,0.0730836145596245,-0.0585294007167993,-0.123762524306025,0.140945922099399,0.00909103757494286,0.144160540305498,0.146255594917646,15.4548064324899,0.974123170367846,0.863145789546267,0.176289498024016,0.240255172539879,0.146206542528191,0.376707333573039,0.157973838375197,0.0367419619268768,NaN,NaN,NaN,NaN,1.90606506718967,-122.683382350962,1.68842833497197,stable,stable,1,0.522404082805316,0.187216887957816,0.195901441036065,0.897419566302953,0.335019314431915
18,1.82733502323996,2.65922021865845,-1.06167396191796,-1.47337982724064,1.82733502323996,-0.0539135170757548,-0.0055629420521237,0.0541997568975451,-0.061264044161283,-0.115078912725921,0.132846800561617,0.00856945929004095,0.125739630956449,0.127901024757253,15.4103267658047,0.915806441793708,0.993948791408927,0.176888874381165,0.240249022083932,0.139472874598824,0.498959873053838,0.156620699492722,0.0406296802393439,NaN,NaN,NaN,NaN,1.87952489310621,-124.36494621675,2.42137916602027,stable,stable,1,0.512869544482105,0.197110791067044,0.202650103592713,0.896550343119968,0.338012055733856
19,2.61597218129459,3,-0.779218038008522,-2.46339058504225,2.61597218129459,0.00596603420670231,0.0054776704074804,0.00809928621845954,-0.0408657575828737,-0.316027905605852,0.320677574688721,0.0207055183026386,0.197886187073012,0.200383538554965,15.4335121646878,1.97628129146122,1.80156229097406,0.0291743739249582,0.0496584725281015,0.132923986787431,0.457203995882895,0.0133739297743476,0.00759413937574739,NaN,NaN,NaN,NaN,3,-106.031594526481,1.83890109908593,stable,stable,1,0.73766928938955,0.0878911283487685,0.0614401510254046,0.955729756318386,0.34092267253892
20,1.90593726122939,2.69663953781128,-1.03488885752019,-1.58603460150833,1.90593726122939,-0.0497683497092387,0.00387896649653313,0.0499192849894938,-0.0588496132975668,-0.13305741802749,0.147826198010597,0.00953472516449666,0.12812338662844,0.13060586208211,15.4038631982365,0.914717136747047,0.885398174401104,0.176340377325697,0.240247919198265,0.126305380873767,0.491085238635633,0.155875275999837,0.0402239323700919,NaN,NaN,NaN,NaN,1.95533603544456,-121.682915799118,2.02716910625478,stable,stable,1,0.53437110874426,0.187059881145665,0.196140713629986,0.89768604817813,0.343864275167215
21,1.94285033522425,2.92294096946716,-1.07345923861891,-1.58917649253787,1.94285033522425,-0.0870515516420323,0.00418229515552155,0.0871519605978736,-0.0678894721542626,-0.139516078271073,0.160645288882562,0.0103615667255636,0.193833742938517,0.196273939929071,15.4514621505984,0.761941780574827,0.99288729557938,0.176463519675889,0.240311965180293,0.164703066181273,0.434399311323826,0.158609019676219,0.0361570509799189,NaN,NaN,NaN,NaN,2.01006102178809,-122.843348050567,2.05430216491778,stable,stable,1,0.557348210712282,0.236498252147598,0.225539867460586,0.897980297420844,0.326798637252768
22,2.62383893421262,3,-0.731029233550602,-2.48594816219841,2.62383893421262,0.00887948043615681,0.00297865134042113,0.00936576407047947,-0.0369271396976483,-0.321685355870065,0.325530734651782,0.0210291426489152,0.195600361964893,0.198189292944319,15.3910989042745,2.21684389631169,2.18307179495246,0.0215729635820009,0.0593612248816934,0.14313015075736,0.463285690077631,0.000449469865993229,0.00744751552807288,NaN,NaN,NaN,NaN,3,-105.373889448931,2.20715100652696,stable,stable,1,0.739328241045563,0.0863532965484142,0.0547199297786882,0.954642752063353,0.336386599663396
23,1.71380658649109,2.40975332260132,-0.842230947329297,-1.47889515400482,1.71380658649109,-0.0414435949489509,0.0111681974874383,0.0429220246191991,-0.0393445142562851,-0.115699402256456,0.123913758344549,0.00799349320150178,0.110334674817965,0.11230726773267,15.3709053109421,0.994755859157892,1.0047663392736,0.179429877480029,0.240207011278679,0.148463624135702,0.484614081810553,0.148212344657189,0.0232500343154748,NaN,NaN,NaN,NaN,1.75191981509009,-118.497538474994,1.68274076279154,stable,stable,1,0.479476543277493,0.164457053471653,0.173000943196865,0.894574529700881,0.334016167050799
24,2.55789782206217,3,-0.561084591352036,-2.45945619967544,2.55789782206217,-0.00674220257424252,0.000216335464273569,0.00674567243388121,-0.0270417132145808,-0.323253749797079,0.325627105119228,0.021003820417147,0.202912356319665,0.204064797204197,15.4420221222983,1.10079395158511,0.73506274678847,0.0690007554427926,0.246402897133423,0.311542907743608,0.64676535184178,0.062344365311139,0.125139934434595,NaN,NaN,NaN,NaN,3,-102.185830974197,2.34237385272484,unstable,unstable,0,0.722919045324086,0.100709696648889,0.133639855497773,0.95107503393424,0.261536485447285
25,1.72024951593296,2.58293676376343,-0.937995184303033,-1.41830135333604,1.72024951593296,-0.0676115437429845,-0.00279250123267238,0.0676691873044445,-0.0516544347441306,-0.110396519303486,0.125665328625139,0.00810644604034184,0.165656955706939,0.167566345704601,15.4424679147279,1.02738474921613,0.964733692511892,0.176123268432143,0.240220221862812,0.183279772150218,0.426048285847219,0.15652774067233,0.0412450594542334,NaN,NaN,NaN,NaN,1.79680657025774,-122.144595008979,2.05896164658331,stable,stable,1,0.492246473389709,0.206510648434337,0.208472477241763,0.896286006598923,0.318542323488792
26,1.84116893508363,2.69438171386719,-1.02932731737182,-1.50383858944583,1.84116893508363,0.00448838053645446,6.16800196451777e-05,0.0044888043246333,-0.0594140178816649,-0.120711605347122,0.138379870964834,0.00893802047796014,0.16084315624962,0.161933905847587,15.367209826695,2.19689263321881,2.26446678474378,0.0158011713922284,0.0724269710861887,0.143401778950204,0.526422710092095,5.34966368007094e-05,0.0101172112162182,NaN,NaN,NaN,NaN,1.89015622586425,-123.159855511628,2.48085889558644,stable,stable,1,0.523365163858484,0.192795822685818,0.11938025579132,0.957045876019894,0.336265876022131
27,1.73369855648719,2.64566326141357,-0.829443887816352,-1.49561201474677,1.73369855648719,-0.0798005695961806,-0.00415645863311634,0.0799087420514406,-0.0416506128083621,-0.123298863915325,0.13329049717947,0.00859569681850586,0.182481045382354,0.184428884869051,15.4744270186672,0.709208033528822,0.69682887608222,0.175487011704458,0.240244409566714,0.110931178998856,0.402444875691823,0.15643846444156,0.0405975763996587,NaN,NaN,NaN,NaN,1.77620387229689,-117.832865156267,1.61806319026896,stable,stable,1,0.499205392037061,0.2198419946512,0.216196158263612,0.901209061286542,0.350697253778286
28,1.72316555960758,2.41567134857178,-0.965561544907481,-1.4159293471944,1.72316555960758,-0.0348338045178352,0.00868397196016131,0.0358999346265648,-0.05042006927924,-0.106173590451563,0.119310686927898,0.00769949946930559,0.118868613146852,0.120787646890497,15.3506188026107,1.14406411827138,1.28223293278184,0.177335499699856,0.240213301685538,0.165746048211075,0.502430222662379,0.158423120238112,0.0356222493969669,NaN,NaN,NaN,NaN,1.77693740749085,-123.63065316624,2.22157699969434,stable,stable,1,0.483668345273455,0.162395457198481,0.180801095215732,0.892268487606082,0.326335089683967
29,2.62127996368153,3,-0.516777926738051,-2.53683776433718,2.62127996368153,0.00660986712785549,0.00495120208565555,0.00825861644229253,-0.022990570555513,-0.335072431567339,0.336674057941508,0.021742351359627,0.196589992476904,0.199181994949433,15.3900700947107,2.04874197143426,2.0662322523405,0.0183157798312005,0.07627511987594,0.142106357719723,0.506870101333752,0.000195267114441168,0.0077286703361725,NaN,NaN,NaN,NaN,3,-100.208461528465,2.32398819601379,stable,stable,1,0.738844389304961,0.0867260878527426,0.0549328636726316,0.958510169754741,0.336841618791234
30,1.83407917054924,2.68997740745544,-0.938156301292618,-1.55591379734087,1.83407917054924,-0.0580842746182208,0.00365951655950635,0.0581994417445236,-0.0504975092772317,-0.13062040921215,0.142924621491416,0.00921984882238928,0.149698445641429,0.151909942620314,15.368896040911,1.03295532863027,1.05074164668973,0.176441250712065,0.240259565594452,0.14938516666313,0.439414708763113,0.156822441402718,0.0419557274672758,NaN,NaN,NaN,NaN,1.90894849737311,-119.745808657761,1.60690360374368,stable,stable,1,0.519469767337193,0.203247000957059,0.206903691589807,0.895407469837882,0.333606592594165
31,1.90371363146885,2.58404970169067,-0.951794921064367,-1.63441243963072,1.90371363146885,-0.0420596572421104,0.0127811335564698,0.0439587550132181,-0.049778958868861,-0.140592737720542,0.151129677120574,0.00974789620021017,0.11655857980341,0.11911475700609,15.4280366840049,0.863609535570218,0.949795431949014,0.176895264556567,0.240271634592246,0.163314565675896,0.489864715892556,0.159256674419248,0.0371297400813797,NaN,NaN,NaN,NaN,1.95935225919259,-119.13516242978,2.0775961999055,stable,stable,1,0.531479919792911,0.161134720885667,0.180963300383689,0.897304185834066,0.327415748588491
32,2.61512923120652,3,-0.640276567080851,-2.49968404253696,2.61512923120652,0.00419444840969662,0.00167131252498348,0.00451516146087525,-0.0312445127096196,-0.325379545673879,0.328319291975542,0.0212051853470739,0.202982684075103,0.205551588344324,15.378550956383,2.24685042728031,1.92055602444015,0.0254064682072856,0.0601743205944246,0.143394903307969,0.467085562368333,0.00705279691792268,0.00835039702745564,NaN,NaN,NaN,NaN,3,-103.01941117063,2.01963850626124,stable,stable,1,0.738478112657271,0.0874237025796928,0.0586253059657652,0.954552858061411,0.336268931863125
33,1.89103412789267,2.58416342735291,-0.817876866811503,-1.69000624244332,1.89103412789267,-0.0522635677227544,-0.00127971333613324,0.0522792327538729,-0.0375859494404597,-0.150898077178477,0.15696031728029,0.0101237660404867,0.12591173105559,0.128403736619645,15.4482046316627,0.973416887967854,0.868897366191798,0.17656195970118,0.240267053880484,0.163251960622801,0.415147825355149,0.15751393993226,0.0343808973697166,NaN,NaN,NaN,NaN,1.93692079365451,-115.089103932968,1.77628225272954,stable,stable,1,0.529956514761975,0.165538618383429,0.181831511053585,0.897243693866727,0.327443573056533
34,2.57887823598368,3,-0.537863934867292,-2.4861030750821,2.57887823598368,-0.00906663826612598,0.0221790836405821,0.0239607111869559,-0.0268053318290112,-0.337083264343334,0.33933141501941,0.0219080872382229,0.202910740363558,0.204799769211018,15.3979947548313,1.82182108866743,1.58172072403568,0.0630520281220958,0.240460094641577,0.138095404282617,0.468086389007703,0.00195382409183963,0.00798277739843719,NaN,NaN,NaN,NaN,3,-101.157933097739,2.33290548902587,unstable,unstable,0,0.728660816771185,0.0991451939546135,0.0632583107806942,0.941731871696285,0.338624264763281
35,1.80701211014309,2.60907292366028,-0.801699727391074,-1.59746963846077,1.80701211014309,-0.0533438525048188,0.00698009019423183,0.0537985897508055,-0.0379738190075476,-0.136449432049283,0.14397246483822,0.00928721688438659,0.154087704255792,0.156351589436787,15.4320934830117,0.964489899230119,0.973205684404695,0.177007850090218,0.24023568514716,0.174327664011755,0.41470423818225,0.158175907007999,0.0361933703414149,NaN,NaN,NaN,NaN,1.86137587595629,-115.841095627455,2.30728399414391,stable,stable,1,0.513140213925516,0.190326757829014,0.197657683390771,0.896271323940617,0.322521038216998
36,1.97142848442231,2.81773662567139,-0.886904958542254,-1.7397147604203,1.97142848442231,0.00534458485246261,0.00328259590752995,0.00627216255667096,-0.0455287716328091,-0.159756291996441,0.168589396391727,0.0108851607813006,0.16047040694947,0.161786145801124,15.3804858985686,2.01662353433832,1.85033551342451,0.0225118935128377,0.0697296678575698,0.134919349227993,0.475072570832234,0.000551127989996005,0.00772946916926881,NaN,NaN,NaN,NaN,2.00134863438598,-116.022448666907,2.13645885990101,stable,stable,1,0.55807149167284,0.191569228249766,0.117997198784743,0.958360803582587,0.340035844787559
37,1.79485875368118,2.63482522964478,-0.809333098927159,-1.58945023419878,1.79485875368118,-0.0545051529460336,-0.00826389233789796,0.0551280655768265,-0.0365383724120792,-0.13356104185494,0.139810837649905,0.0090199496665152,0.127229291363521,0.129551765830783,15.4070347549781,1.04127122053123,1.04682765439644,0.176266767887499,0.240232477951178,0.162113519791855,0.477546303034689,0.156003784794297,0.0401132237325779,NaN,NaN,NaN,NaN,1.84847057739295,-116.145839673518,2.23578462530905,stable,stable,1,0.504539354147805,0.199099269114227,0.203381203744514,0.895460124896104,0.327949546759175
38,1.97341162771792,2.6488401889801,-0.784548281812601,-1.79678976641093,1.97341162771792,-0.0430016783925526,-0.0161447903902969,0.0459325440327786,-0.0353007924057799,-0.169995817292401,0.174880446381547,0.0112801226978949,0.1358245668142,0.138624022376072,15.4521835680993,1.0361061742617,0.812033724656407,0.176613197672634,0.240279403677447,0.157814428875837,0.409264938700017,0.158917320125625,0.0355534373905597,NaN,NaN,NaN,NaN,1.9993932608471,-112.620106358339,1.60342842288445,stable,stable,1,0.553967905199993,0.16039239269,0.17979387835731,0.897172301957898,0.329860253832961
39,2.61725432139177,3,-0.632352027196595,-2.50646045207415,2.61725432139177,0.00807313424477059,0.0032307515854282,0.00869558809631841,-0.0301109792082543,-0.326982519522925,0.329615719855483,0.0212812404503961,0.195292357313035,0.197808246925443,15.424128414067,1.53357173446904,2.00535815956476,0.0286730328356155,0.0571978917660269,0.125692747912186,0.451198678054275,0.0156871943412359,0.00622234320614184,NaN,NaN,NaN,NaN,2.9987372183553,-102.731971335258,1.83975150382133,stable,stable,1,0.737496135089559,0.0877119688378444,0.0618619379333681,0.957857605843355,0.344136556483473
40,1.90245571088147,2.54833078384399,-0.295871120550884,-1.86712180548358,1.90245571088147,-0.0547877790534839,-0.00596445078449069,0.0551114816238321,-0.00705381299155409,-0.183755711211694,0.184023656620227,0.0118713369289406,0.134146904144792,0.137168117783185,15.3832732611054,1.08251761870159,0.780424455151291,0.177344471698221,0.24024422446091,0.118470155311054,0.442581772884662,0.159044227336782,0.0363150176983435,NaN,NaN,NaN,NaN,1.96262077332345,-97.9255988407311,1.83265063244109,stable,stable,1,0.534755146458361,0.155425663047605,0.177147182070571,0.896690362142046,0.347346597639532
41,1.89690951882182,2.74635601043701,-0.263173669722521,-1.85804717358148,1.89690951882182,-0.0612454203331193,-0.0219190140869247,0.0650495556504675,-0.00774015883911052,-0.182813120916526,0.183198634617145,0.011816017638743,0.144114680400876,0.147045683588139,15.4371305655854,0.915000389840044,0.739454793331496,0.177079486912674,0.240269569647088,0.123083237995231,0.430572601642461,0.157920734749885,0.0362005747324764,NaN,NaN,NaN,NaN,1.94919332297993,-97.076725643542,2.40069081268997,stable,stable,1,0.535251675070113,0.203051212482671,0.205181566069038,0.898460965818744,0.345296338668786
42,2.61189766871092,3,-0.627606311742951,-2.50253862309432,2.61189766871092,0.00366639060094851,0.00575370462848237,0.00682257553937976,-0.0296566265035147,-0.32639591264654,0.328943710145279,0.0212477854520994,0.199665788234679,0.202266887693031,15.4021230128044,2.14830488308109,2.17606706558641,0.0150638544024999,0.0694545229308997,0.140987323312154,0.474393372072327,0.000200486288167659,0.00797130688924589,NaN,NaN,NaN,NaN,2.97766096785849,-102.83550377438,2.46684403743525,stable,stable,1,0.736959422528185,0.0885738300555962,0.056132060100956,0.958490864630648,0.337338967416821
43,1.82295651371415,2.50628423690796,-0.238657095599905,-1.79437830366802,1.82295651371415,-0.0431316154006575,-0.0322596116600309,0.0538611064825653,-0.00546706451400477,-0.17143512264647,0.171630598421431,0.0110703631251364,0.131341405001377,0.134205755059433,15.4032515185935,0.940963474946023,0.70330434563223,0.176638120635507,0.240226115191473,0.121204243359491,0.438961784497093,0.156366773807461,0.0439118714710318,NaN,NaN,NaN,NaN,1.87761184680711,-96.9149867627548,2.09878005244263,stable,stable,1,0.512962888002325,0.163623273907078,0.183638261520867,0.89876169252056,0.346131447395782
44,2.52875135572636,3,-0.641271800761766,-2.41002376204858,2.52875135572636,-0.0278271725110631,-0.00297837909789873,0.0279861085542679,-0.0299096991964545,-0.306219554298926,0.309139039910037,0.0199545814154139,0.225655188150643,0.227489227267315,15.3977649275381,1.8368377423299,1.40479150236874,0.0626480114430581,0.240253713727814,0.132666743469516,0.4925491804135,0.00191868589854846,0.00855405072513419,NaN,NaN,NaN,NaN,2.70268226585959,-102.84402520654,1.98925376164669,unstable,unstable,0,0.719831540313826,0.111161731529851,0.0706603521062032,0.943206050212982,0.341037002902437
45,1.68237712254395,2.39666128158569,-0.228455293052402,-1.65504641155897,1.68237712254395,-0.0410175075836264,-0.0224924016391769,0.0467797398439848,-0.00469586371485686,-0.144516067280416,0.14467327772094,0.009330892823698,0.116279467636286,0.118623329763455,15.4098984733579,0.876905302801072,0.605304232336482,0.175819634193635,0.240208902150698,0.136769007789082,0.469973716934626,0.158909927031251,0.0337151361850189,NaN,NaN,NaN,NaN,1.74484723470437,-96.8322370152764,1.58427197421035,stable,stable,1,0.472358565297745,0.169290221422455,0.18446081661141,0.900444250841387,0.339213774315963
46,1.68735886537112,2.38775491714478,-0.216085912222842,-1.66208280876714,1.68735886537112,0.00373795243318054,0.00120881355948229,0.00392855171969373,-0.00441680563599996,-0.144336749543623,0.144482120422174,0.00932670052307601,0.113048732811306,0.114182681150049,15.3945515330881,1.80235913452678,1.59487457122699,0.0254530235944579,0.0736319792553258,0.117056872949815,0.459645596505655,0.00565953466578819,0.00524782460797421,NaN,NaN,NaN,NaN,1.71876069037497,-96.5690723186371,2.02469303673747,stable,stable,1,0.472798900328974,0.158309346131017,0.0994092562764056,0.960580937657563,0.347974723133415
47,1.67089035700668,2.46213030815125,-0.123296714106078,-1.65510956776239,1.67089035700668,-0.0337670785743565,-0.0239558642587037,0.0414016790460025,-0.00245656984053584,-0.154496603836181,0.154561110611963,0.00996834003571732,0.131369605331243,0.133012961955647,15.4290405792954,0.674109786418287,0.671419758799215,0.169875665901546,0.240593309978288,0.227007217243801,0.395881355542126,0.155155769117029,0.00470165494340239,NaN,NaN,NaN,NaN,1.8330973949862,-93.5355183886098,2.08075779436209,stable,stable,1,0.472173354259578,0.185619296832628,0.182039390413837,0.904490149193947,0.299107903447199
48,1.66526824758764,2.40856337547302,-0.192904443516763,-1.64337525817394,1.66526824758764,-0.0413138691326895,-0.0245526985351212,0.0480590344063375,-0.00396198658911183,-0.149363232236632,0.149488646574265,0.00964167729291219,0.124778363292119,0.126461730337694,15.4470909986543,0.874132712581561,0.717463798229798,0.172201459437377,0.240830740261778,0.202484771309826,0.395865960596868,0.133249095741831,0.00501225879167801,NaN,NaN,NaN,NaN,1.76093856199151,-95.8152911333806,1.67737635358051,stable,stable,1,0.469363878757576,0.176052226748707,0.166675795939537,0.901393869124936,0.310006768306744
49,2.62460751916254,3,-0.684870834040432,-2.49888408607569,2.62460751916254,0.00422236315238966,0.00329357392395647,0.00535499577807714,-0.0338561655831358,-0.324703375652216,0.327980755598954,0.021179375307789,0.198515312927301,0.201025172729961,15.4084400021363,1.98478990797435,1.95003643183927,0.0204729792788324,0.0461846454678491,0.135330393949908,0.393103017834179,0.000492309081471105,0.0074237879407168,NaN,NaN,NaN,NaN,3,-103.690253195533,2.22470776232008,stable,stable,1,0.740100372989336,0.0854450574144097,0.0541853977360249,0.95884701769062,0.339853158244485
50,1.65631013625377,2.26485729217529,-0.141330024382432,-1.64074677022511,1.65631013625377,-0.0383748700201938,-0.00719034169821941,0.0390426902608404,-0.00250515476868039,-0.141360857038422,0.141422157893189,0.00912267828827283,0.108697554834365,0.111015363229,15.3963604551593,1.06496413330073,0.732370517287909,0.176558853687367,0.240200881910983,0.156057430504392,0.464841754030291,0.156399325734559,0.039591212258768,NaN,NaN,NaN,NaN,1.72627812567413,-94.411640590645,2.31276932036842,stable,stable,1,0.463885775646805,0.144080936630164,0.170356177873414,0.897598658044549,0.330641141998048
51,1.6044479264509,2.14823770523071,-0.130663243235594,-1.58893124140974,1.6044479264509,-0.0372308125920709,-0.0145507803134433,0.0399732237128305,-0.00228067458851702,-0.132927029601023,0.132985817002299,0.00857733632887946,0.1004355264574,0.102644831617809,15.4409481269414,0.927793830035987,0.58187229782825,0.175265134015539,0.240189015266163,0.128861826384017,0.360880921303035,0.155747890686369,0.0410659780591529,NaN,NaN,NaN,NaN,1.64198518080473,-93.7945426045898,1.62847012156273,stable,stable,1,0.448381746710467,0.129681124572811,0.161963042423785,0.900505770559011,0.342728077162659
52,2.63293441761298,3,-0.639186058541364,-2.52389491144915,2.63293441761298,0.00468613703740307,0.00624114587191953,0.00780460006200824,-0.0297117188925153,-0.331253765013086,0.333729985955122,0.0215481109269175,0.187854060486128,0.190465492462676,15.4001940568813,1.97512207378649,1.89120938546879,0.023057447213625,0.0649998078794659,0.129515971984286,0.470552350502846,0.000746560021560881,0.00845004980655701,NaN,NaN,NaN,NaN,3,-102.899260755177,2.13399463954652,stable,stable,1,0.740208943189329,0.084020599381782,0.0538169094672988,0.958092957784753,0.342437345784762
53,1.7054344077368,2.59833717346191,-0.166447128293224,-1.6726110283301,1.7054344077368,-0.070317936936562,-0.0313567899338354,0.076992600488417,-0.00508184362204229,-0.153302774034871,0.153577186470238,0.00990715840147363,0.176610618725149,0.179172714395218,15.3622651872597,1.09813637964419,0.821951543793487,0.176342014965754,0.240223906899603,0.136043123192461,0.423464088678429,0.155814152413491,0.0395953892513112,NaN,NaN,NaN,NaN,1.76767167051157,-93.7767495596924,2.22769655788286,stable,stable,1,0.490617051608858,0.215018432377693,0.212660117196725,0.896742587404398,0.339536389692239
54,2.60877383277164,3,-0.528541208118362,-2.52279475501192,2.60877383277164,-0.00866449426915016,0.0140400109524742,0.0164983444165083,-0.0249740695895885,-0.336752763970371,0.338643948130394,0.0218631372875457,0.198334998946354,0.200334831517566,15.3937904375641,1.78713060686094,1.44519017335451,0.06302798886604,0.240696377350471,0.140007591539712,0.47310135320721,0.00191910939817157,0.00887597147750054,NaN,NaN,NaN,NaN,3,-101.106544404973,2.44147437437238,unstable,unstable,0,0.735739988375949,0.0910505841027419,0.058710913963762,0.943089199436716,0.337774403760128
55,1.63211438140354,2.2370069026947,-0.14270836825398,-1.61544537694323,1.63211438140354,-0.0374012366866071,-0.0209830097058176,0.0428851862768724,-0.0025540141779494,-0.139156425071624,0.13922184574442,0.00898237166984259,0.115678386415599,0.117995384901783,15.3955159847066,1.08865907543091,0.85038119569828,0.177334466178484,0.244556466518419,0.165628681627327,0.382546328934141,0.154527637326073,0.0407591126423538,NaN,NaN,NaN,NaN,1.6954412846166,-94.4207914550518,1.61690212976896,stable,stable,1,0.458829578687966,0.143963101441272,0.169878306293773,0.896097450494743,0.326387252610077
56,1.70457231240926,2.50518250465393,-0.103224461950137,-1.68422094353065,1.70457231240926,0.00437742713267011,0.00563999436756912,0.00713942608113901,-0.00226610612635467,-0.150011122938754,0.150103174369748,0.00969287282741599,0.143328017775222,0.144564374028964,15.396653637503,2.04965013678564,1.88761157523073,0.0285810438837727,0.0597703668621707,0.125224649545548,0.439787693190497,0.0129549272512697,0.0063832734282802,NaN,NaN,NaN,NaN,1.73280982852964,-92.1431804697514,1.85847144253179,stable,stable,1,0.483465491448263,0.181446188036592,0.116946648604521,0.954773850320842,0.344344600201978
57,1.58194329368102,2.22402191162109,-0.182245450904488,-1.56132153191146,1.58194329368102,-0.0354739123825837,-0.0164559633920014,0.0391049509766489,-0.00333829525688868,-0.129899472451733,0.13000219797917,0.00838479653050223,0.115182445836682,0.117269059621258,15.4557388634344,0.841678789918188,0.673177291032012,0.175803840345866,0.240177241688721,0.133840373991178,0.371967871760048,0.159232031935848,0.034647113398107,NaN,NaN,NaN,NaN,1.65239533729994,-95.8334835366937,1.52936517146864,stable,stable,1,0.445305356905856,0.151636930048903,0.174350900327414,0.90019563919103,0.340515389337254
58,1.63420355720008,2.55379319190979,-0.112217017742219,-1.60700125419777,1.63420355720008,-0.0657358629257798,-0.0346329875667742,0.0743010599009008,-0.00323974612898753,-0.14178444510996,0.141966777132619,0.00915735361121816,0.171315509643936,0.173562819879814,15.4197128382551,0.954297596180194,0.787891065898267,0.176243309432537,0.24019070018818,0.147332503681978,0.415503902287666,0.156077214127012,0.0380183816336532,NaN,NaN,NaN,NaN,1.68060545220575,-92.4282145747537,1.69515700966146,stable,stable,1,0.470500179229317,0.220529528791517,0.215510234046628,0.898189720081687,0.334518887252454
59,2.5191549469396,3,-0.513813735826281,-2.43320399230122,2.5191549469396,0.00797233410780853,0.00896462066896798,0.0119967718518364,-0.0230170521672953,-0.3108312686539,0.31254933870372,0.0201900038772755,0.214649343435778,0.21712239666557,15.3644798261708,2.25394734342364,2.14766109798451,0.0176868018660441,0.0750124858933616,0.141340112582874,0.458826763745331,0.000252483017760865,0.0078079252434429,NaN,NaN,NaN,NaN,2.78982386220964,-100.41262924442,2.35128126824986,stable,stable,1,0.715199131850341,0.110389545111426,0.0691851872844862,0.956572532741628,0.337182172185389
60,1.68004067121325,2.39425921440125,-0.0845903119075805,-1.66734070714219,1.68004067121325,-0.0336623841463922,-0.0216385758310874,0.0400172971403242,-0.00151770349366157,-0.146815176986325,0.146855781657408,0.00947429286739711,0.118633010294584,0.121213073287298,15.4283629462499,0.994527197426634,0.859304205281516,0.176847841866502,0.240198306810819,0.169092061162989,0.381699487430714,0.159872433125221,0.0358935729971852,NaN,NaN,NaN,NaN,1.72864210057146,-91.9462754292346,2.25175209694244,stable,stable,1,0.472253460314327,0.168035676693024,0.184928029100748,0.897010260902614,0.324847972816449
61,1.60857682292526,2.20634746551514,-0.1926567826865,-1.58640913515332,1.60857682292526,-0.0373611926057203,-0.0089046304849048,0.0384076965853776,-0.00367400445429927,-0.132966343642523,0.133085426521504,0.00858419955573942,0.11388102645812,0.116159660750398,15.46128223465,0.929933903328485,0.694677923982939,0.176319455211569,0.240177040633827,0.148725405897091,0.403312478499448,0.157989900504374,0.0360150609738908,NaN,NaN,NaN,NaN,1.6541677253945,-95.777639022521,1.64596689675356,stable,stable,1,0.452185751596815,0.141539805623375,0.168238002740212,0.899075465179626,0.333899819601293
62,2.61767158021895,3,-0.538956227604543,-2.52713235992721,2.61767158021895,0.00673107230366425,0.00598748710338569,0.00900873665784309,-0.024655439955709,-0.332226380710536,0.334086113816505,0.021579028956361,0.196275195326563,0.198936217079691,15.3708270139275,2.17500918606338,1.97031340873899,0.0304011093399715,0.0546797704434966,0.133903955169178,0.415285093732767,0.0232182437741977,0.00528782834472738,NaN,NaN,NaN,NaN,2.96888331606625,-100.576107342626,1.55855960748127,stable,stable,1,0.737832998140992,0.0876754961713408,0.0648473638288134,0.95222905351371,0.340487131035921
63,1.57012262360362,2.34229350090027,-0.0881417832925087,-1.55817607187039,1.57012262360362,-0.0391281898019291,-0.0166457702258102,0.0425217227259933,-0.00140594596051438,-0.128508883685556,0.128545169561727,0.0082919953862791,0.110067231868527,0.112256548409279,15.4333553920709,1.0377518536845,0.692042312872262,0.175740736030626,0.24017712041486,0.151743126063638,0.337770505968818,0.155744832681481,0.0390925341366854,NaN,NaN,NaN,NaN,1.60300708299886,-92.1234906695166,1.59475558728866,stable,stable,1,0.441150675976153,0.181534096558179,0.192355850529916,0.898538392104598,0.332558610638383
64,2.60095024934817,3,-0.579694986768876,-2.50202233215904,2.60095024934817,-0.0106878017044172,0.0161673013277129,0.0193806794899975,-0.0282934932382039,-0.334597983876567,0.336997525393035,0.02175777035154,0.199042144989801,0.200958715965805,15.3809670062958,1.62880879303557,1.70405750840378,0.0628788523118171,0.240482420797295,0.140177735563162,0.437791654354892,0.00195300058491828,0.0104646209376734,NaN,NaN,NaN,NaN,3,-102.201792877698,2.43915592567905,unstable,unstable,0,0.733778476352673,0.0933393184698277,0.0606769080464688,0.942373767189925,0.33769878419415
65,1.52969550482325,2.13103652000427,-0.132174544829985,-1.51283443624736,1.52969550482325,-0.0447531200402264,-0.0231721094142963,0.0503963134370267,-0.00250628851859472,-0.120823550396887,0.120899426150076,0.00779874045918022,0.10448308648726,0.106422791987099,15.3991465175883,1.02635390592477,0.719888137095313,0.176620888655363,0.240150787067675,0.129115590025631,0.396848458562598,0.158647966844008,0.0352136415261835,NaN,NaN,NaN,NaN,1.55228808798252,-94.2268777224065,1.63414427948076,stable,stable,1,0.429203359683619,0.144541052545852,0.170039799568713,0.897969082477161,0.342615293321942
66,1.5843874465263,2.19507455825806,-0.115414641201039,-1.5694224270249,1.5843874465263,0.00173999123153424,0.00361785569571648,0.0040145297758074,-0.0019878814877676,-0.129176465402023,0.12922829264432,0.00834724918282204,0.113185125477239,0.114274977747194,15.3663141937395,2.10732429103905,2.09957760656748,0.0149343981670089,0.0701390580561062,0.1398275500744,0.475784810881007,0.000120424528869154,0.00601103491173635,NaN,NaN,NaN,NaN,1.60696450398557,-93.5145725727472,2.46255050321861,stable,stable,1,0.445358314623119,0.13814059726521,0.0851237112489516,0.959478571721016,0.337854422189155
67,1.68302237665331,2.24833464622498,-0.103101336040762,-1.6685752147198,1.68302237665331,-0.0442379691832793,-0.0196092281229718,0.0483892523711569,-0.00177530949979658,-0.146593519062919,0.146640635364404,0.00945933912518483,0.114174281118292,0.116698294983653,15.396648246441,1.04459809741496,0.760812893801178,0.17652402032177,0.240184711543645,0.162787682590327,0.412865446259751,0.158461942127459,0.0365025668517764,NaN,NaN,NaN,NaN,1.70472744872138,-93.0615211949791,1.7526683192488,stable,stable,1,0.47214562610428,0.136066623588337,0.165341164660802,0.897552617765274,0.327649918848744
68,1.59345974551665,2.1861891746521,-0.131331173822954,-1.57841231935139,1.59345974551665,-0.0378720669808655,-0.0166190430767107,0.0413580228031845,-0.00226688829965154,-0.132157260713455,0.132209381357358,0.00852797912930391,0.116800188184746,0.119097650230417,15.4234958841567,0.935871582285579,0.774797045856095,0.176758163610644,0.240187116921844,0.118050916246867,0.460149819851255,0.15778032776369,0.0359320022861089,NaN,NaN,NaN,NaN,1.6346567991892,-94.1375227104005,2.08546474063068,stable,stable,1,0.448742128850523,0.14094642573606,0.167758628208326,0.898179950402136,0.347532926112504
69,2.60676353950564,3,-0.408683697097344,-2.54021805496689,2.60676353950564,0.00550653699467682,0.00218887897983435,0.00592563421602322,-0.0175182383273615,-0.337029019528807,0.33806396116738,0.0218321838037931,0.200421072361847,0.203044456885677,15.3877242389122,2.07080727729697,2.08009957376941,0.0166299007071178,0.0539284830289082,0.135188716644564,0.396574957135587,0.000160167108458168,0.005776013676058,NaN,NaN,NaN,NaN,2.97762147861884,-97.4745863886534,2.39174093129962,stable,stable,1,0.735745835245307,0.089564569884168,0.0559102959215134,0.95907078153092,0.339916125935749
70,1.71502807812813,2.3725311756134,-0.120302146826144,-1.69961350077788,1.71502807812813,-0.0456329785988197,0.018909920078086,0.0493958886260783,-0.00220437676087975,-0.151492798455719,0.151547635184267,0.00977310692558393,0.109576538610342,0.111557015818762,15.4593276967081,0.807491277798052,0.536939400075852,0.158271382456644,0.240412754720745,0.15672624712464,0.368258603461104,0.137184016472312,0.00491999026331057,NaN,NaN,NaN,NaN,1.74106956136438,-91.9626622500687,2.43855577606492,stable,stable,1,0.47965222399792,0.156994109848968,0.156956227265551,0.910300924874097,0.330343890166827
71,1.61523542042529,2.54534578323364,-0.204687403641272,-1.5918128939609,1.61523542042529,-0.0453279140050057,-0.019379834961119,0.0492970363324755,-0.00413410530625655,-0.137383500974615,0.137510265319117,0.00886909196434332,0.120078594590293,0.121608935619159,15.4457371190215,0.820477442011867,0.744926966094941,0.175165154158164,0.240638458156634,0.187675475747783,0.355426554426432,0.132963973425787,0.00499555785126672,NaN,NaN,NaN,NaN,1.67774962146967,-95.9395937551425,1.99351434452559,stable,stable,1,0.455051232570575,0.218312621626167,0.19189923876742,0.900117816857222,0.31658867744543
72,2.39292017538539,3,-0.543417595205216,-2.3024472298789,2.39292017538539,0.00842427438352815,0.00622599740319984,0.010475277683843,-0.0242290655632867,-0.298707689155775,0.300612270540158,0.0194044887875486,0.196678053862466,0.198135658264249,15.4125336926789,1.67113666802064,1.36375007437626,0.02675953753295,0.0496997416668212,0.147632625221132,0.385836594440758,0.0241281804914872,0.00473516112337829,NaN,NaN,NaN,NaN,3,-102.28205700878,1.79557275280465,stable,stable,1,0.677739178422288,0.138513428113657,0.0955535694143263,0.962774692543264,0.334385499901719
73,1.69146282688991,2.37799787521362,-0.166834452847795,-1.67274011569587,1.69146282688991,-0.0323222887827538,-0.0103035548310116,0.0339248226865138,-0.00302972729625955,-0.147162465769996,0.147246926323379,0.00949843980207486,0.114032001453719,0.116389302825488,15.397687675233,1.03282408698337,0.809525463412955,0.176063640733269,0.240187996014238,0.15910347190961,0.44266730099823,0.157704673162974,0.0347676732512662,NaN,NaN,NaN,NaN,1.730743683828,-94.7490683234343,1.59256587412299,stable,stable,1,0.474334614402408,0.160689936698695,0.179147718142616,0.897492576023108,0.329287345817951
74,2.6371351155618,3,-0.569285655549153,-2.54314310443305,2.6371351155618,-0.0146217015006397,0.00776548074533797,0.0165558704386095,-0.0265877150316963,-0.339081653852463,0.341179287135521,0.0220290563513021,0.197149137469722,0.199158990334575,15.3785905699674,1.79032509057184,1.64846865675726,0.0637008322773127,0.24046452167141,0.147984755373965,0.474482133746395,0.00192115415758879,0.00953235657809693,NaN,NaN,NaN,NaN,3,-101.440236798872,2.44946091407889,unstable,unstable,0,0.743067828883396,0.084679841912339,0.0551280629226094,0.941130490132329,0.334228997611571
75,1.65142229642417,2.46487641334534,-0.180884982005199,-1.61800772109826,1.65142229642417,-0.0680177545125024,-0.0254587178443078,0.0726261746424739,-0.00517306076637005,-0.143416245409474,0.143675449953894,0.00927140024549745,0.170726939842097,0.173040519110281,15.3435564029521,1.21308073073242,1.00818242557392,0.177794487277029,0.240237831912938,0.15037206880854,0.448167147090131,0.158010683735102,0.0349218211313556,NaN,NaN,NaN,NaN,1.72844746755899,-95.0560971705178,1.69015522354554,stable,stable,1,0.474987382868502,0.196341974991716,0.20073099959173,0.893649974419078,0.333167969418427
76,1.74182489923012,2.74974918365479,-0.234929650490898,-1.70202341624624,1.74182489923012,0.00347298780556324,0.00340195917464435,0.00486158107240205,-0.00719948228903289,-0.156486486308519,0.156908842530042,0.010132310754536,0.182420893164121,0.183580236593289,15.4228500338099,2.07032475266963,1.88581471800684,0.0180474524165116,0.0473524843047076,0.133434539079793,0.389667559589746,0.000184981987636775,0.00645322730392225,NaN,NaN,NaN,NaN,1.80133462105751,-96.2777836497926,2.3323702900247,stable,stable,1,0.501202687113355,0.227674253858825,0.139033394642539,0.959892320807858,0.340695760408981
77,1.72680518997682,2.4611234664917,-0.153735598708475,-1.7025242893537,1.72680518997682,-0.0532915342992831,-0.0196480152831999,0.0567981701513396,-0.00348996163902216,-0.153414073645007,0.153545366813186,0.00990481406757224,0.129940257507095,0.132609641638185,15.4129234613306,1.03143275381767,0.771490040861761,0.176583910936986,0.240206960328182,0.114900648490234,0.410591004775374,0.15634297215831,0.0399879027153805,NaN,NaN,NaN,NaN,1.75923009576763,-93.8331549635916,1.79738023743443,stable,stable,1,0.487003312321456,0.175634610076927,0.189407586982715,0.897542222573311,0.348933045115452
78,1.79797792674711,2.50926661491394,-0.215254596392287,-1.77179492574592,1.79797792674711,-0.0564004441172986,-0.0190217059516374,0.0595217220343891,-0.00498979023381117,-0.165125247328431,0.165302243300031,0.0106617631167015,0.123742242840246,0.126460580633139,15.4188884654584,0.918202974781702,0.597858338670492,0.175395004556064,0.240205008824563,0.124565848279936,0.383273107670537,0.156501714318753,0.0419846716924915,NaN,NaN,NaN,NaN,1.84421771642335,-95.6415120879709,1.85404677191279,stable,stable,1,0.504752896592524,0.170952270543841,0.18739483314403,0.900390587401986,0.344637400764473
79,2.62449864719225,3,-0.395149971500912,-2.56309746266769,2.62449864719225,0.00461450595545942,0.00511490554628188,0.00688882602192533,-0.0161627913553093,-0.341621441206974,0.342491259711514,0.0221144952218033,0.196306637661191,0.198991478677572,15.4027984384712,1.96745271134871,1.77929567651564,0.0280504156665223,0.0490421573308536,0.124955686252765,0.419290295621666,0.0161068532416138,0.0069183556441619,NaN,NaN,NaN,NaN,3,-97.5958361626102,1.84703344079733,stable,stable,1,0.739664601653448,0.0857507558190967,0.0611248206209614,0.956536054833519,0.344464139443216
80,1.77243111665184,2.53147792816162,-0.218220354557088,-1.7471197643737,1.77243111665184,-0.0409348431496973,-0.0127155459273849,0.0428642799067213,-0.00474889322939564,-0.161735455691447,0.161893802441052,0.0104432487831737,0.124004041167944,0.126748287017291,15.3943506038685,1.02759615642102,0.808410191103293,0.176724182403181,0.240232294085703,0.146845376611118,0.456304960486294,0.158194235008918,0.0360643933260222,NaN,NaN,NaN,NaN,1.84269174465958,-96.4089816842801,2.47090617067313,stable,stable,1,0.497997955177283,0.178643983905932,0.190609264082238,0.89721214463929,0.334735388172836
81,1.85438262449728,2.62672662734985,-0.212320084086259,-1.82365112036022,1.85438262449728,-0.0582933630996827,-0.0327229487876517,0.0668498882484535,-0.00565605468593687,-0.176656378840251,0.176886800206087,0.0114096943669729,0.154764450577235,0.157699002663662,15.4454146492088,1.0587268658995,0.733997837010132,0.175918583708077,0.240262449541973,0.160261669106402,0.432537560019688,0.158302544492859,0.0354364094757637,NaN,NaN,NaN,NaN,1.90149022471625,-95.3637271300002,2.25811648884029,stable,stable,1,0.526041833732008,0.186033213487378,0.194862581615793,0.897955014051671,0.328772591508266
82,2.58995124687718,3,-0.413435591981592,-2.5255986917883,2.58995124687718,0.00768449794374868,0.00543933518283907,0.00941476902949555,-0.0172392793907181,-0.332840418548885,0.333818404865995,0.0215509562462415,0.199660217191329,0.202349283444799,15.4060620612818,1.85779746634669,1.72725227917032,0.0296059537928907,0.0541322860791258,0.123249683057197,0.443426176706104,0.0219033333369956,0.00592668855329554,NaN,NaN,NaN,NaN,2.91783086718893,-97.7855854258006,1.72606384249462,stable,stable,1,0.731123522522874,0.0939870104413755,0.0682821805551934,0.957028775103064,0.34522236308569
83,1.69648331564826,2.44636130332947,-0.305575366828484,-1.65737136304568,1.69648331564826,-0.0461047489543732,-0.0031777293209592,0.0462141303043026,-0.00702305498574574,-0.144754237426533,0.145080310104823,0.00936317563109402,0.117787516627201,0.120102783227054,15.3335387221146,1.35590909216371,1.00624571941094,0.176914894766763,0.240203226727044,0.153848130405856,0.439366077643948,0.158279940242948,0.0343859272068011,NaN,NaN,NaN,NaN,1.75027764965131,-99.5200046041142,2.36948682664316,stable,stable,1,0.476416107484947,0.177195137784061,0.189167696308159,0.892982764811389,0.331623053152953
84,2.6533699188625,3,-0.432663973740262,-2.58526496743872,2.6533699188625,-0.0242031109955835,-0.00842526281242829,0.0256276342123697,-0.0171813238691139,-0.344987041126872,0.345975668976623,0.0223325052443197,0.20296986068579,0.205103880637175,15.4083482572613,1.76310885052035,1.44219347677806,0.0631847157181138,0.24040560625115,0.1308010874182,0.396280363156918,0.00186740979022239,0.00767236794994393,NaN,NaN,NaN,NaN,2.95681470906161,-98.270421652992,1.87351602539356,unstable,unstable,0,0.748586087824101,0.0826901678615391,0.0532340126054868,0.943223123855027,0.341866183369689
85,2.03633342733319,3,-0.442188970656527,-1.95732534091909,2.03633342733319,-0.0897617940079665,-0.0290738697130455,0.094352899073742,-0.017891980544789,-0.209124910732869,0.210657746240676,0.0135871959351267,0.210297633822381,0.213590237622809,15.419471999423,1.06899606638644,0.724052683798011,0.176075896142531,0.240333702196976,0.143426900000585,0.461911325990834,0.155721481905182,0.0415164004027069,NaN,NaN,NaN,NaN,2.10680641889481,-101.731697741666,1.9895424576538,stable,stable,1,0.585740294813413,0.234123010346885,0.224780226595257,0.897873811748714,0.336254711110851
86,1.96803612693098,2.77866148948669,-0.540094269309811,-1.87941265885086,1.96803612693098,0.00643121009531554,0.0078690149763136,0.0101627683230278,-0.0180322806288943,-0.185055671025412,0.186422088980117,0.0120377275742734,0.138249739033113,0.139756472492967,15.3536492550523,1.93317117894599,1.94901810069003,0.0248314488388518,0.059720461560313,0.128041419245305,0.464454926818976,0.00748208380062968,0.00550035299745523,NaN,NaN,NaN,NaN,2.01104491577433,-105.279667622794,2.03956373077492,stable,stable,1,0.552760928346854,0.184253880767592,0.115877827401324,0.957081359812005,0.343092702557642
87,2.0104414949546,2.78753089904785,-1.14195886665906,-1.64038249771025,2.0104414949546,-0.0514651134551832,0.000696524067037063,0.051469826585397,-0.0707964701833349,-0.141782865457739,0.161197166789295,0.0104006806101287,0.130411666776653,0.133071578707582,15.4016752325774,1.10213644055503,1.15945950394413,0.177223517493749,0.242082515199697,0.123214226934152,0.468252122777055,0.158308789635579,0.0357205471380975,NaN,NaN,NaN,NaN,2.06469467336038,-124.238920485483,1.50900153956427,stable,stable,1,0.562732047729409,0.184281250794971,0.193917502405639,0.893618558832061,0.345238121362599
88,1.94435029658111,2.75766158103943,-1.10978275552992,-1.5717873840342,1.94435029658111,-0.0645693193178301,0.00505446988096301,0.0647668484870575,-0.0691599932859474,-0.131956600292136,0.153602498153173,0.00990598235604905,0.149379776775863,0.151777152515717,15.471022495796,0.85167460856062,0.748325877735261,0.175854302198364,0.240288634849946,0.152454886152687,0.440323217087397,0.15845601027841,0.0350792568624946,NaN,NaN,NaN,NaN,2.00959748573364,-123.70580417537,2.02266590800051,stable,stable,1,0.548848842924774,0.194868961225748,0.200102363597064,0.899501416508493,0.332242272821028
89,2.6129351519422,3,-0.232408317064259,-2.57077247625815,2.6129351519422,0.0069303154467355,0.00304202393098762,0.00756856537184968,-0.00882261702171162,-0.344221960781937,0.344625040626158,0.0222492639184658,0.197642380127105,0.200413971885799,15.411264613002,1.94452642416625,1.73748180738655,0.0296763966328058,0.0519117343378608,0.120538829810782,0.459170532364872,0.0190984476341118,0.00754249485065798,NaN,NaN,NaN,NaN,3,-94.0907171926139,1.78133077492564,stable,stable,1,0.736865501561746,0.0884771611311777,0.06431722102744,0.956231737007111,0.346427186750763
90,1.93987735864278,2.68092179298401,-1.06312385615424,-1.60209337021337,1.93987735864278,-0.0530028343878929,0.0146327770677446,0.0549856219194138,-0.0630879662275545,-0.137171301980818,0.154498513507055,0.00996572685791877,0.150378535870038,0.15281843723158,15.4467802302434,1.00718041824287,0.902885925792434,0.176337571341776,0.240263622036125,0.158496091529956,0.356228653866593,0.158680225892849,0.0371567452926469,NaN,NaN,NaN,NaN,1.99637079272466,-122.311062912018,2.19045887863191,stable,stable,1,0.547864316417725,0.176815695078668,0.190125505631248,0.896823550197406,0.329557292653353
91,1.90224257411573,2.60333371162415,-1.14097442867885,-1.50676279373447,1.90224257411573,-0.0501032157156332,0.0104088648256515,0.051173007455161,-0.0702358938803026,-0.120602469058063,0.142524559476522,0.0091928288422368,0.124315749911757,0.126576080633388,15.4470520625918,0.881753420531397,0.974289515383722,0.176795103920064,0.240263363911311,0.143850134910595,0.450849562133282,0.155723610807235,0.0401249735651479,NaN,NaN,NaN,NaN,1.94546366280019,-126.251978914843,1.70679579028645,stable,stable,1,0.532579902557538,0.16712722397284,0.184077727554044,0.897019253543492,0.336066606706402
92,2.62676213297956,3,-0.48342529565535,-2.54987376620409,2.62676213297956,0.00471196727918322,0.00436863156861369,0.00642554102176474,-0.0209461920079346,-0.337880959699886,0.339234417391149,0.0219019927161425,0.192845257148216,0.195567337338063,15.4070715309293,1.82680205427043,1.90808978465841,0.0187845075809871,0.0538974426294898,0.127012533927726,0.43750845191948,0.000112738101115899,0.00586971227024504,NaN,NaN,NaN,NaN,3,-99.2513675644137,2.29714842780918,stable,stable,1,0.739583369595494,0.0851565359335902,0.0532784682084159,0.961262167475066,0.343549984921011
93,1.73825677808395,2.35501408576965,-1.05474576519792,-1.35977368125948,1.73825677808395,-0.0717548589887587,0.0166369166938469,0.0736583110420993,-0.0618218737532672,-0.0984113456744429,0.12010706694349,0.00774580627796936,0.136586507273047,0.138092058227188,15.4542385841885,0.77656461965593,0.742842484384635,0.186151014875162,0.240217089177961,0.139991103365215,0.38549044796297,0.128290617924674,0.0049282654343527,NaN,NaN,NaN,NaN,1.74681180591764,-126.657123786368,1.58117342705182,stable,stable,1,0.491153552467825,0.152274417920334,0.15017479968475,0.894986293887815,0.337781731837682
94,2.53111206229015,3,-0.182402885335765,-2.49275187841718,2.53111206229015,0.0102644547499132,0.00661286894249332,0.0122102033956691,-0.00820047903067249,-0.337169787170199,0.33755060940221,0.021774423749937,0.198196739101587,0.199582359584115,15.4156896329367,1.14309463883768,0.836194889158524,0.0531142033432602,0.250337250246719,0.327932548122118,0.679043716923904,0.0065870984466897,0.0108924027880828,NaN,NaN,NaN,NaN,3,-94.2734617915732,1.71916040918811,unstable,unstable,0,0.71487968852753,0.107738323273922,0.0715314670151142,0.957891337751257,0.254252200834614
95,1.78188290789321,2.71007657051086,-1.13118462797694,-1.34763880142288,1.78188290789321,-0.0734820560423047,0.0124422483839114,0.0745279954450094,-0.0728452877282891,-0.100609077686457,0.13008983853024,0.00839448177568296,0.17608068569869,0.178184459562913,15.3724031356264,1.11324086514839,1.24854683267316,0.176760212887324,0.240249704125779,0.160879909741328,0.436877469336892,0.156426134720741,0.0392712433997641,NaN,NaN,NaN,NaN,1.86493072097439,-128.583435678336,2.144778648321,stable,stable,1,0.510805667350771,0.222507039920558,0.217307402640255,0.893062990216312,0.328497817892743
96,1.7363024204471,2.48013043403625,-1.06286222132152,-1.35094150417552,1.7363024204471,0.00398833067215074,0.00105001727338702,0.0041242354230608,-0.0621663966484528,-0.0972842251995084,0.119454300916512,0.00771123515257294,0.143223855881286,0.144163194469631,15.3935202938949,1.79136636621829,1.78144211138914,0.0282928655103596,0.0679699825922601,0.123839619738777,0.5140663422293,0.0138979158947906,0.00926139389595635,NaN,NaN,NaN,NaN,1.76269102467469,-127.19753908103,1.8732532719905,stable,stable,1,0.491846617679821,0.16811741288512,0.110415078838397,0.957781500635048,0.344960169004988
97,1.76881084346131,2.59365177154541,-1.09518974619643,-1.37416763493572,1.76881084346131,-0.0569947560300422,-0.000130620675956106,0.056994905708186,-0.0653957753718133,-0.100393623585541,0.12262559245131,0.00790945555500954,0.126557927020636,0.128539481444951,15.4115692456743,0.890562591132535,0.936853571225416,0.175771943992837,0.240231713116338,0.139076698252729,0.472512698883585,0.155326136445018,0.0414311999655526,NaN,NaN,NaN,NaN,1.81622668042125,-127.513201967813,1.5439734479296,stable,stable,1,0.497390787878673,0.196038274865423,0.201722694235826,0.897755758156483,0.338188134109898
98,1.88086417639578,2.71409058570862,-1.19384987431656,-1.43620987936834,1.88086417639578,-0.0454837544616795,0.0240702586568988,0.0514601717033704,-0.0769301802797404,-0.109570923722009,0.137393616742677,0.00886134003914556,0.122219335020525,0.124429415657031,15.4521305305128,0.860530550821315,0.926236903145868,0.17642775409019,0.240251618470736,0.135089271129392,0.447423764298322,0.158436444435882,0.0363187160072845,NaN,NaN,NaN,NaN,1.91962505408224,-128.853168090004,2.33248298190034,stable,stable,1,0.526449663503614,0.196910306907674,0.201769187492494,0.897747235816592,0.339960323942492
99,2.60579358534669,3,-0.164994909841147,-2.56800690821229,2.60579358534669,0.00859755740058774,0.00267447367956663,0.00900393262519748,-0.00608582530702037,-0.344464586012248,0.344769227478713,0.0222700774150936,0.20412537534715,0.206814239248678,15.3449760163869,2.19190504522954,2.0634244436456,0.0174385195968744,0.0596407546755343,0.140660126747917,0.471208082602923,0.000359732998624259,0.00783560240548182,NaN,NaN,NaN,NaN,3,-92.2002194325483,2.37311997075582,stable,stable,1,0.736241137275521,0.09034716427828,0.0572174898653197,0.957846008503258,0.337484388112037
100,1.64030587753193,2.5918231010437,-1.04636696826753,-1.23438073972716,1.64030587753193,-0.0817009072009818,0.0030131361786964,0.0817564506757406,-0.0629511398816834,-0.0839558989525163,0.110183757150367,0.00710661571068228,0.166420857083217,0.168180237250101,15.4506088675181,0.863081759898683,0.769962551405763,0.175712716940384,0.240199707219689,0.132004585548481,0.385950965530635,0.154608131468929,0.0428595987207277,NaN,NaN,NaN,NaN,1.68546986904653,-128.540481584722,2.25887420277742,stable,stable,1,0.471050948125203,0.229080057914033,0.221748068471441,0.899312579083845,0.341331295311786
101,1.6589972524835,2.33550310134888,-1.06939993211198,-1.25115133943659,1.6589972524835,-0.0572121692809743,0.00835076855478568,0.0578184023412136,-0.0626279845500453,-0.0837649413020311,0.107689892241163,0.0069458373410173,0.116357099938973,0.118051318975723,15.4442375942117,0.770665972717592,0.990231681813972,0.175709481509587,0.240179014082935,0.146393446305906,0.433109087646583,0.155627577717294,0.0398736868996756,NaN,NaN,NaN,NaN,1.69807149429304,-129.55767099295,1.79516858423256,stable,stable,1,0.466009531124077,0.162813856423933,0.18135564868213,0.898309634816744,0.334936246086264
102,2.61689730950423,3,-0.148482067483513,-2.58015302315444,2.61689730950423,0.00825780358025866,0.00425613673349798,0.00929010332904664,-0.00538919048523444,-0.346291008185613,0.346568159790897,0.0223747750784614,0.19593467918702,0.198822895497898,15.4225505560751,1.9534012583771,1.75822135390446,0.0283770242589072,0.0483351407931198,0.125007031174115,0.426848642308078,0.0204193253203578,0.0072410563108442,NaN,NaN,NaN,NaN,3,-91.8482151525671,1.54587570059128,stable,stable,1,0.73760386163404,0.0879012909718746,0.0644491416668231,0.956648738774048,0.344441319478171
103,1.71042995597865,2.42058825492859,-1.08532095879725,-1.30880465308676,1.71042995597865,-0.0444261289416554,0.0046229875738109,0.0446660155694259,-0.0634611168193384,-0.0914313908092616,0.113750694923576,0.00733716503658444,0.121669507952038,0.123559215346424,15.4472666950748,0.872474322311636,0.928483458931478,0.176703381391761,0.240203223261952,0.157244945955886,0.394278202226455,0.158487540093832,0.0355239041303563,NaN,NaN,NaN,NaN,1.75398132014352,-128.600052606655,1.61642521632885,stable,stable,1,0.480826497996925,0.167974386784797,0.184141322099378,0.897497926737209,0.330113357352939
104,2.66422514320849,3,-0.348046241770877,-2.60907516785905,2.66422514320849,-0.0236543503026854,-0.00666554801674099,0.0245755532716078,-0.0136896445213593,-0.35245325657164,0.353153122505931,0.0227928537851239,0.202803662214603,0.204946846660241,15.4187452765358,1.59295920931051,1.246682533778,0.0623114395675948,0.240501635323688,0.120663902282973,0.403730226610613,0.00194526778421715,0.0103850670430818,NaN,NaN,NaN,NaN,3,-96.2939600424606,2.06239679865055,unstable,unstable,0,0.751449407520979,0.080054860877884,0.0526738680020486,0.94653280937765,0.346371598985346
105,1.7483082196197,2.48295259475708,-1.11865783792628,-1.32686545559633,1.7483082196197,-0.0404204131118402,0.0130037479165538,0.0424606553883604,-0.0684370868775283,-0.093588176883339,0.119092440834963,0.0076812048813867,0.133494265490104,0.135509700500181,15.4416877925918,0.84556078577825,0.909194104124664,0.176395836483891,0.240204227404264,0.156131079773841,0.437846231383982,0.15945906412415,0.0345638986519762,NaN,NaN,NaN,NaN,1.78074250763471,-129.221424924807,2.22407005279738,stable,stable,1,0.493317465331956,0.173079437893777,0.187287048321455,0.898014721908817,0.330608408989404
106,1.84244894941515,2.86638045310974,-1.07702451346662,-1.47952438750612,1.84244894941515,0.0058945865281515,0.00587209784829392,0.00832031751063643,-0.0626549342759352,-0.115261244816082,0.13395323124164,0.00865073973068104,0.129899449610039,0.130989413372296,15.4053704418118,2.05947522388629,1.978480464342,0.0243139484333621,0.050362898606111,0.141106169448914,0.43512539371961,0.00581275390586738,0.00693621239082962,NaN,NaN,NaN,NaN,1.88415857146299,-124.959215831678,2.06064473214394,stable,stable,1,0.517517602518499,0.2319099798749,0.144251693156536,0.956116231090097,0.337286146911594
107,1.71295023367212,2.430997133255,-1.03267287357209,-1.34576526119647,1.71295023367212,-0.0507168262739411,0.015373931935518,0.0529957946488121,-0.0587262221411873,-0.0967986516095018,0.116862427059795,0.00753698152683701,0.129475107258605,0.131414862778277,15.4501909119926,0.716229895591376,0.928210404847994,0.176796690758194,0.240198723694959,0.149661611874634,0.442246562488406,0.160532046224719,0.0368997975165054,NaN,NaN,NaN,NaN,1.72726488943798,-126.550224489005,1.73433138650825,stable,stable,1,0.483069701534886,0.171276448091766,0.187531553142755,0.898681052260308,0.333483728055718
108,1.68623725279866,2.37505507469177,-1.0307509680023,-1.31947292932298,1.68623725279866,-0.058890746657681,-0.00253448865063965,0.0589452599843227,-0.0582552882960595,-0.0932563256842358,0.112635924031918,0.00726514207080975,0.131116327435869,0.13279605834422,15.4367243299938,0.768198639331235,1.02273712130327,0.175962098969729,0.240195138482227,0.14610499773664,0.452499517079245,0.156145774685548,0.0424015293067047,NaN,NaN,NaN,NaN,1.72684939224008,-126.925173742408,1.58794595753524,stable,stable,1,0.476222479081819,0.165790640923077,0.184291244566023,0.897947312395865,0.335064445450382
109,2.61782035181754,3,-0.301000766630015,-2.5652889969115,2.61782035181754,0.00739854750292879,0.0054613563392498,0.00919591856300162,-0.012186072675979,-0.342348211117422,0.342964904235469,0.0221470512926492,0.203664761985304,0.206400377872463,15.3703583598398,2.15118279047907,1.85303313814272,0.0213491935086423,0.050510220055877,0.13764597371577,0.403091740852284,0.00018793467603775,0.00897813011698596,NaN,NaN,NaN,NaN,3,-95.4171668207032,2.19796016638295,stable,stable,1,0.739365502725836,0.0876763392442714,0.0559541046572412,0.957863706663651,0.33882401168188
110,1.6267590610773,2.28978610038757,-0.957176108495054,-1.29529894302562,1.6267590610773,-0.0602293009807832,0.00631416933658664,0.0605593711249123,-0.0513181535638961,-0.0897537823332209,0.106662813333366,0.00688022040744601,0.13698952226246,0.138729280646821,15.4373490044588,0.853198425348482,0.985185778531551,0.175661861889953,0.240182717433549,0.144128296723438,0.396918736991935,0.155637204542199,0.0401702823560708,NaN,NaN,NaN,NaN,1.65985778043302,-125.136897277648,1.9191092674816,stable,stable,1,0.461548272416643,0.160283635217713,0.179949647440479,0.897724621738823,0.335942979234028
111,1.56931258208,2.32648468017578,-0.945334489824129,-1.23657193381738,1.56931258208,-0.0503500470664268,0.00282439861020497,0.0504292025229501,-0.0492909904898408,-0.0823193948259185,0.0985848985931306,0.00635944314161476,0.125954012037126,0.127492503862325,15.4328913959659,0.967130357270078,0.883758466608047,0.175762674867376,0.240174194272362,0.16895445809035,0.412034542701826,0.15567056569253,0.0420211505357251,NaN,NaN,NaN,NaN,1.59306398738573,-126.486183134521,1.59721597455954,stable,stable,1,0.443981855993797,0.179609075867426,0.192232781982652,0.897575964664412,0.324909129737622
112,2.63755780318908,3,-0.241044019883019,-2.59343829974708,2.63755780318908,0.00756203978939127,0.00266850949008213,0.00801906407724712,-0.00950156918394246,-0.34914548528203,0.349588371905253,0.0225697707080211,0.199005940146587,0.201885435723087,15.4177929125932,1.76163373357604,1.86561119127636,0.0280629404927349,0.0456007798119162,0.122926436718624,0.401393358806857,0.0201887134215969,0.00735652465390566,NaN,NaN,NaN,NaN,3,-94.1056534981467,1.57867877903551,stable,stable,1,0.743725834661705,0.083019656029953,0.0614596550128291,0.957468748201221,0.345366028125056
113,1.74021922941976,2.67711019515991,-1.02398470155076,-1.38011095058815,1.74021922941976,-0.0735321751710964,0.0152282003031832,0.075092468795923,-0.0613302967729955,-0.105606836312485,0.127055886372336,0.00819629295834326,0.17408148855653,0.175975124875082,15.3931597660867,1.02772834011826,1.05325566701713,0.175268185803129,0.240222720132886,0.202546142705616,0.38659121240399,0.155825721837759,0.0420370383059138,NaN,NaN,NaN,NaN,1.77528590773906,-124.910768203071,2.389926387032,stable,stable,1,0.499253486153619,0.22456741990412,0.219282524062415,0.896015318470943,0.309979492130837
114,2.67637629462565,3,-0.446374431386745,-2.59980272583968,2.67637629462565,-0.0313520614488358,-0.00902334474872294,0.0326247223366864,-0.0181992295324705,-0.346252307046126,0.347405295338426,0.0224305162251153,0.207771812568086,0.209903596339902,15.3850240905783,1.89363896739803,1.57371378239184,0.0634475452262534,0.240566411046936,0.136861380817638,0.478643859870238,0.00187219389889602,0.00881949289610194,NaN,NaN,NaN,NaN,2.9979851142919,-97.9705526263991,1.80126738440474,unstable,unstable,0,0.755681064501486,0.0787965328042887,0.0513170941857156,0.941032741495667,0.339172719636605
115,1.80704100309192,2.56094646453857,-1.04725470935048,-1.44850535972972,1.80704100309192,-0.0579769981496454,0.0172627081565431,0.0604924243797681,-0.0618454179776476,-0.11246936898545,0.132663930458549,0.00855842920050247,0.147605184419155,0.149709017250449,15.4028632748869,1.06404002138512,1.05336510005733,0.176800946102013,0.240235503333416,0.188554300739597,0.421259166244145,0.155127204562717,0.0383389380229369,NaN,NaN,NaN,NaN,1.89315516909655,-124.179562229341,1.70745253601543,stable,stable,1,0.5118194042746,0.180719006628456,0.19131826023551,0.894962772423374,0.316198088560179
116,1.68076724181437,2.39236640930176,-1.00274508977429,-1.33455360348008,1.68076724181437,0.0103169508406688,0.00283040627898266,0.01069816219511,-0.0542874541889842,-0.0944189961722672,0.111394609033211,0.00718587526295444,0.118604876926804,0.11941989472891,15.4475731808101,1.107289076186,1.10580605967144,0.026651297463057,0.0974654244700324,0.269333582888449,0.844275962238218,0.0164703651099247,0.01197443699875,NaN,NaN,NaN,NaN,1.69700248239393,-126.66944677606,1.79060938841841,unstable,unstable,0,0.472088576762946,0.162071142420434,0.108917188450156,0.969285746629592,0.280296185382912
117,1.53246804402799,2.40235757827759,-0.912134157007431,-1.21288022106204,1.53246804402799,-0.0494253678688509,-0.00757996427214344,0.0500032283691585,-0.0504625352828455,-0.0859990558990164,0.102831385994789,0.00663145746235565,0.141892757472738,0.142588385633408,15.4653389554103,0.524687476738498,0.868195590790836,0.16265744550803,0.247098042601966,0.254768886298139,0.457967458380059,0.123645692625441,0.00458960139627505,NaN,NaN,NaN,NaN,1.6721231422542,-125.43586516234,2.35553282981569,stable,stable,1,0.437175822200812,0.204892403740505,0.179558029373448,0.907727196001112,0.286769383867494
118,1.72393234275483,2.67795610427856,-1.06704834532308,-1.32516432238769,1.72393234275483,-0.0627612246055164,0.0133681180718699,0.0641691350632649,-0.0659028724125965,-0.0973064083928887,0.123102722803577,0.00793977443775823,0.177605817211037,0.179491421273797,15.4518346649725,0.809064735367098,0.933397697767428,0.176242015485886,0.240261566481326,0.15342720309126,0.429771066502577,0.159504228197866,0.0357393231225646,NaN,NaN,NaN,NaN,1.78141492798702,-127.597402747289,2.34464421844779,stable,stable,1,0.495613575656047,0.226419687771106,0.219738698249718,0.898188215996714,0.33181013195944
119,2.57870771294852,3,-0.369699602462451,-2.51957599415947,2.57870771294852,0.00628400732055654,0.004090047934824,0.00749781568951694,-0.0154884629913093,-0.331269336227739,0.332100551203732,0.0214498092237221,0.199475218676256,0.202071047873444,15.3816283471667,2.14889771251613,1.99926921352051,0.0165676982149932,0.0459414564841227,0.145481505284431,0.431430706303218,0.000321335953209261,0.00706287093275489,NaN,NaN,NaN,NaN,2.88139783872518,-96.8469577847742,2.40289828534864,stable,stable,1,0.728069599694295,0.0961653641296607,0.0604103511598205,0.959123410759358,0.335341553206919
120,1.70871264950649,2.4621889591217,-1.02341339639338,-1.35409354121586,1.70871264950649,-0.0474205674394953,0.00506172703156528,0.0476899496416782,-0.0570301859819299,-0.0971974466774192,0.115200272516544,0.00743172428820214,0.110862943033387,0.112700319331199,15.388693907262,1.00585543687466,1.01829542622537,0.176148952923428,0.24315203257624,0.133974698663513,0.402582304907093,0.156165856147773,0.0392310004721029,NaN,NaN,NaN,NaN,1.76744363452008,-125.864521808831,1.66650522163762,stable,stable,1,0.478196770401304,0.178275327097731,0.190638061788918,0.8960214810425,0.340455689482883
121,1.74831817054108,2.45295310020447,-1.00641100213342,-1.41703814870479,1.74831817054108,-0.0449194096125426,0.0050745401722213,0.0452051359681494,-0.0548100810059515,-0.106934283606149,0.122259914620217,0.00788769417165884,0.124888362093277,0.12686313771868,15.4246685790474,0.927106434861433,1.15217250483591,0.176594400190265,0.240212161728022,0.185465993572147,0.454731257569692,0.155610133479557,0.0412650871403598,NaN,NaN,NaN,NaN,1.76448514358837,-124.664357217421,1.78031904131156,stable,stable,1,0.491590806354692,0.166830467435089,0.184263826018159,0.895365608235817,0.31757066952349
122,2.62649825703739,3,-0.38338209514407,-2.56781123860125,2.62649825703739,0.00568756605214476,0.00479507584737036,0.00743916393014323,-0.0155908485532768,-0.342883244555803,0.343684317799352,0.0221940160229651,0.19656760958732,0.199306922008809,15.4122094952071,2.02713456809387,1.90628269887649,0.015717914386488,0.0594278192212476,0.135762163881725,0.39672941280557,0.00014584154333411,0.00542569181923393,NaN,NaN,NaN,NaN,3,-97.1526305433791,2.42167686598756,stable,stable,1,0.740260919611732,0.0854017388871137,0.05327884063933,0.961235621423418,0.339661260497011
123,1.59951659110752,2.21838521957397,-0.923764535801114,-1.2928353375795,1.59951659110752,-0.0471165084190207,-0.00221818054877059,0.0471686939669373,-0.0467637354535529,-0.0888889038033017,0.102408887518159,0.00660582983608604,0.115623927373522,0.117301469343307,15.4198747316167,0.768273513109245,0.966681348177511,0.176651246461696,0.240168733740328,0.129978771010771,0.341046467630797,0.158703453667544,0.0371905037041515,NaN,NaN,NaN,NaN,1.66518818535526,-124.488998271363,2.47160107797384,stable,stable,1,0.449998051497334,0.14789303529889,0.172794509004803,0.898042588573327,0.342231657328546
124,2.67890083789825,3,-0.545360150740041,-2.58762188171802,2.67890083789825,-0.0306950783301454,-0.0107916283168151,0.0325368571841542,-0.0226742602860831,-0.342788272182833,0.344366295945957,0.0222304130564448,0.200463193438697,0.202519487953124,15.3788724389989,1.72806481313576,1.61299762582679,0.063398922500754,0.240254562794533,0.131579281408877,0.492621356757772,0.001853099022914,0.00971553550922629,NaN,NaN,NaN,NaN,3,-100.530616564359,1.80813455335272,unstable,unstable,0,0.754877454363493,0.0782124019566544,0.0512839627430872,0.94204933387206,0.341520319373833
125,1.5738055077759,2.26533460617065,-0.816103284210639,-1.33492089394199,1.5738055077759,-0.0345123215968754,0.00742035642361173,0.0353010202608875,-0.0366401836464797,-0.0945517626661729,0.1027762209676,0.00662914137265228,0.113056643548385,0.114715212663194,15.4467867311017,0.782223671687905,0.92949591048965,0.176890238657802,0.240175964961645,0.156379255232132,0.444091497033595,0.158792669429123,0.0355242578431331,NaN,NaN,NaN,NaN,1.59718321662841,-120.692341177793,2.25652423108678,stable,stable,1,0.442624511272879,0.162065900853316,0.180731972201224,0.898105655382561,0.330498108785719
126,1.5350995761495,2.48323726654053,-0.859120405589068,-1.24615852296371,1.5350995761495,0.00380236661923763,0.00215916652758464,0.00437264130714315,-0.0433847792860999,-0.0852999449010529,0.0994966157683933,0.00642472245678533,0.168514350705052,0.16924763382562,15.3860706275476,1.73407899470811,2.06159248667661,0.0259320404518716,0.0532162932754319,0.1306749282048,0.427626040366995,0.00930181888896703,0.00562474101957917,NaN,NaN,NaN,NaN,1.57811714801433,-123.111297136965,1.95439919903527,stable,stable,1,0.443209413738323,0.214132631244291,0.134659080845761,0.957210846706041,0.3419222541312
127,1.50737874250154,2.2072126865387,-0.759197591134799,-1.29079141951175,1.50737874250154,-0.0296292461510905,0.0130674500379656,0.032382873219908,-0.0316802629671658,-0.0880659727407427,0.0948508058167786,0.00611846851163061,0.0961818498978521,0.0977415129187043,15.4070403279773,0.874040313820427,0.958804607517313,0.176466339228317,0.240162335095498,0.126008968832234,0.456064302964837,0.158423913265303,0.0358503290955159,NaN,NaN,NaN,NaN,1.53181850141805,-119.504479623187,2.05705480997998,stable,stable,1,0.421515967250819,0.163399497498676,0.181486809924579,0.897365906003902,0.34399601385234
128,1.62076389547941,2.31933093070984,-0.877878475309094,-1.34315664470983,1.62076389547941,-0.0605321908639427,-0.00229799261845064,0.0605757946779342,-0.0437382346871935,-0.0963262233515677,0.108574025096114,0.00700340039481253,0.126106825012414,0.127821994642301,15.4452115719387,0.864010028526131,0.956168924781777,0.176078670559508,0.240191264803111,0.142827689510431,0.413362951975365,0.158471527085433,0.0364259336193532,NaN,NaN,NaN,NaN,1.67347133841587,-121.814224359451,1.99337414965313,stable,stable,1,0.457768104389636,0.168283145284468,0.18464747102983,0.897659258658541,0.336521026884253
129,2.61760709835933,3,-0.514612595510049,-2.53532154628554,2.61760709835933,0.00845112903691489,0.00638911229962741,0.0105944484507612,-0.0225113793941,-0.335201288242659,0.336693808635791,0.0217399047358341,0.194724953862202,0.197396203758155,15.4096176997766,1.79908511460567,1.85407151201412,0.0233375484795151,0.0455167607992636,0.133574510418853,0.416540440568227,0.00538507944223256,0.00750750955787552,NaN,NaN,NaN,NaN,2.98812679975473,-100.15154225882,2.0947054052125,stable,stable,1,0.737507800314118,0.0879807184184574,0.0579118031676578,0.959627852265373,0.340633550924954
130,1.62797552749917,2.29937553405762,-0.917784485606618,-1.33212265549755,1.62797552749917,-0.0416761942934091,-0.00710508312956897,0.0422775043854302,-0.0462107896118095,-0.0938817419566683,0.106538570473258,0.00687139399937161,0.105327730876547,0.107017433714044,15.4618287748743,0.891378455641007,0.786837123550996,0.176466412159114,0.240175353367863,0.148594505706557,0.372343246471984,0.158975163768855,0.0335611600842881,NaN,NaN,NaN,NaN,1.67291748571223,-123.514973806059,1.82306845495355,stable,stable,1,0.455530294075922,0.158815877279645,0.178149212921969,0.898580814369649,0.333957997463752
131,1.51009967343119,2.12567400932312,-0.75731736573296,-1.29173305203911,1.51009967343119,-0.0503436275736493,-0.00414750177909803,0.0505141822489677,-0.032294887812537,-0.0890946456041488,0.0963796810466113,0.00621648081131899,0.11807946091645,0.119562302120674,15.4337354393088,0.851036003585373,0.860260878292938,0.17607059467284,0.240159632999513,0.146459530975249,0.385810416924368,0.156006590306647,0.0415540898398719,NaN,NaN,NaN,NaN,1.54515709711904,-119.107877075441,2.39151478785862,stable,stable,1,0.426605706672453,0.147765158987995,0.173105935874896,0.898518798591679,0.334906875122111
132,2.62225142410368,3,-0.45520282930124,-2.55021796751219,2.62225142410368,0.00520711300635431,0.00551350969980092,0.00758372039771662,-0.0194980131632842,-0.338298797266262,0.33948199977409,0.021920139049179,0.194675818092973,0.197438185782997,15.4197673242374,1.92856180630831,1.9210943416318,0.0278773654756247,0.0523734686470812,0.13334193246659,0.441284703128919,0.0194504773782973,0.00548068544920818,NaN,NaN,NaN,NaN,3,-98.8062245222683,1.80470021362968,stable,stable,1,0.738754683584246,0.0863837783162543,0.0624679001293139,0.955814018956944,0.340736918903738
133,1.63729522892293,2.25770950317383,-0.85433553753039,-1.37703258183645,1.63729522892293,-0.0544078065501028,0.00578877945727467,0.0547148917681318,-0.0413552170529895,-0.101562535070413,0.1122728845303,0.00724186071706969,0.133226510740812,0.134966543021899,15.4198767525685,0.98039024022622,0.896379195755301,0.176826893053952,0.240186223895958,0.150050325846718,0.407606953764224,0.15593729368174,0.0410191322168738,NaN,NaN,NaN,NaN,1.68330103474598,-120.509023497779,2.0041970441721,stable,stable,1,0.463605369650494,0.149624275197277,0.173996077055781,0.896840507904598,0.333310966290348
134,2.67060271637863,3,-0.626151804661851,-2.55908802849493,2.67060271637863,-0.0276214261274532,-0.010316908477408,0.0294852807659274,-0.0284699419119963,-0.335417888702616,0.337863622859526,0.0218114034406955,0.209154691635405,0.211236517264427,15.4188315402514,1.8128783855374,1.58748010357821,0.0633546797150121,0.240220783484803,0.135920434519769,0.495692677083046,0.00184859113514131,0.00998099206028177,NaN,NaN,NaN,NaN,3,-102.269542710179,1.68368939896086,unstable,unstable,0,0.75440802782052,0.0795200236218945,0.0521630618914838,0.941605557728014,0.339590917991214
135,1.66626659760604,2.60825705528259,-0.853341232732062,-1.40317207889535,1.66626659760604,-0.0618647054331126,0.010765340816403,0.0627943814462656,-0.0435261502493711,-0.10812220346994,0.120504490509973,0.00777294367071895,0.1682826419848,0.170079340411442,15.4304850109104,0.997171759062943,0.920833699025847,0.176588425376275,0.240236945167486,0.151570319971151,0.441666009821098,0.157371047205114,0.0349921933676631,NaN,NaN,NaN,NaN,1.71044333906111,-120.370167332204,1.83572528148815,stable,stable,1,0.478353627443899,0.223460156242373,0.216743215344019,0.896635744426879,0.332635413346155
136,1.62623086661399,2.37999820709229,-0.751687064235801,-1.42374987615146,1.62623086661399,0.00511029035965467,0.00187807459275297,0.00544446799383776,-0.0325763218896971,-0.107648736159463,0.11435067900589,0.00738414975538632,0.133174043694588,0.13406053193971,15.3706648853255,1.96459150505342,2.0228883200754,0.0232707526459053,0.0669675701111577,0.133560412492256,0.518403609580174,0.00178593924058191,0.00623065187948653,NaN,NaN,NaN,NaN,1.66149639163359,-116.91481150861,2.1265692627642,stable,stable,1,0.46047367081834,0.170595804073152,0.105416924810024,0.957034425051035,0.340639816670109
137,1.48723911151693,2.20919513702393,-0.715492319222709,-1.29235489312437,1.48723911151693,-0.0448239678637916,0.00357791956868542,0.0449665387092914,-0.0286087441173883,-0.0884726643372872,0.0941513378088062,0.00607284832740499,0.111973362099425,0.113508160796252,15.4477445490931,0.837413056945857,0.885800726083831,0.175949077937892,0.240157480933324,0.137573440393942,0.411125560059172,0.159318911126885,0.036638840116326,NaN,NaN,NaN,NaN,1.50463962214456,-118.009747287404,1.95669116613436,stable,stable,1,0.419298728563764,0.170683971169112,0.186542002234504,0.898485924164392,0.338856248713803
138,1.59059349427352,2.49240756034851,-0.73045747517821,-1.38697022420217,1.59059349427352,-0.0674794185135258,-0.00112386380225998,0.0674887767911792,-0.0328639948713378,-0.105442631998412,0.113128335048886,0.0072979239276874,0.164460820609368,0.166219235727511,15.4284341869867,1.03915633580763,0.94998939156311,0.17633079108316,0.240243282384397,0.156690252948364,0.425200647098689,0.158652700854432,0.036478765807901,NaN,NaN,NaN,NaN,1.62198882751374,-116.427624599585,2.00059170037018,stable,stable,1,0.457402112285108,0.215281107278589,0.21294598160634,0.896205602314793,0.330359887578505
139,2.51295888995471,3,-0.451104488041252,-2.44005795832975,2.51295888995471,0.0119685884637097,0.00652620534281799,0.0136322582865156,-0.0196813444484809,-0.323240218959178,0.324645774468124,0.020944065349698,0.187373152437563,0.189273876742196,15.4304323348893,1.21790919217567,1.04381863488947,0.0276547322986368,0.0820410988922729,0.286974633290638,0.663281742373261,0.011371319301284,0.0277294575673333,NaN,NaN,NaN,NaN,3,-100.33835635475,1.83056345275797,stable,stable,1,0.707977146003029,0.112083497112718,0.0823874570724843,0.968401915209456,0.272455718537494
140,1.52347394441093,2.31005787849426,-0.734074932272091,-1.31643601858921,1.52347394441093,-0.0538955789810943,-0.00342963320098779,0.0540045907085748,-0.0328415376126381,-0.0984516040445529,0.105840204837251,0.00682535384939685,0.139688617674618,0.140726674512925,15.4700400406989,0.607732303092795,0.683032094039555,0.172023392170727,0.241436247118236,0.240398883722797,0.497928002919246,0.130729817482296,0.00502462528828525,NaN,NaN,NaN,NaN,1.62484937329115,-117.662804067615,1.59150459203109,stable,stable,1,0.434405053412167,0.186882226798655,0.172058613650903,0.903846583651454,0.293156051678757
141,1.53976571559906,2.27144312858582,-0.761354784146352,-1.32721948572898,1.53976571559906,-0.0310127502735454,0.0133239199001356,0.0337537778779579,-0.0318107238472945,-0.0937013416678979,0.100185271610169,0.00646172767150374,0.107770053834261,0.109428453633801,15.404998153129,0.809205576134962,0.909238473131177,0.177549782741584,0.240175464011361,0.110047123546234,0.460057569962374,0.158798108703907,0.0345010821784305,NaN,NaN,NaN,NaN,1.58700801541868,-119.377240163094,1.62953230738776,stable,stable,1,0.432489881553176,0.170815610532979,0.185612151586408,0.897723048242117,0.351090167312785
142,2.63744807163609,3,-0.62328400830828,-2.53208118030499,2.63744807163609,0.00749106784438795,0.00287315971214792,0.00802316297857229,-0.0286753408659672,-0.333132998041953,0.335445928672365,0.0216615461115556,0.192391123716174,0.195003459757252,15.3912824771695,2.11176018245616,1.85243591382675,0.0276125014590531,0.0521938787284333,0.149765298749221,0.436974181134314,0.022362087398757,0.00652461869275197,NaN,NaN,NaN,NaN,3,-102.460692774955,1.77532562434889,stable,stable,1,0.742320177721073,0.0830450970946191,0.0621383523828763,0.955046494228251,0.333437645000346
143,1.45404645639497,2.15933060646057,-0.639773928189786,-1.28389779681969,1.45404645639497,-0.0545964607654491,0.00311562118662584,0.0546852870842951,-0.0255827539934474,-0.0903909740438875,0.0958513611106024,0.0061839908912,0.150085520606957,0.151600936043998,15.4173056812473,1.00816945272186,0.925112384636119,0.176535061478177,0.240174345320333,0.152982857226362,0.414826808079068,0.159140412126021,0.0341589738844864,NaN,NaN,NaN,NaN,1.50542716708844,-115.316950545559,1.76222331542368,stable,stable,1,0.418065908914125,0.168714569730215,0.184379258943042,0.89654239768167,0.332007619010506
144,2.67082032966382,3,-0.571096494753191,-2.571566793222,2.67082032966382,-0.027851550690041,-0.00981315907842763,0.0295297640853843,-0.0257592613293855,-0.337683988674026,0.339787650672768,0.0219326179512598,0.206058759387671,0.208104757606933,15.406743725098,1.60511341271458,1.38780337160792,0.0627538320730809,0.240451233341706,0.12062081493384,0.429228298170199,0.00182181924543742,0.00783084504842283,NaN,NaN,NaN,NaN,3,-100.955060334027,1.71450042050772,unstable,unstable,0,0.753839706098406,0.0794792159079603,0.0513448070048011,0.945107309229497,0.346390748918293
145,1.64154625986073,2.25943827629089,-0.7610139059314,-1.44330297365359,1.64154625986073,-0.042018502874784,-0.00130665642695269,0.0420388146223978,-0.0324049729610795,-0.110449609687269,0.116234042960552,0.00749794443656655,0.113324126283505,0.115146226059607,15.3900258778518,0.993356677395456,0.961978534717415,0.17676827326447,0.240178909517552,0.14468862290793,0.425249816598262,0.1593489449682,0.0353390213178026,NaN,NaN,NaN,NaN,1.68254359450145,-116.590495520199,2.35306263461117,stable,stable,1,0.460774914508117,0.146732819710892,0.171711998352209,0.896252515272593,0.335693945374254
146,1.75967482739069,2.49358940124512,-0.837153787892728,-1.53479203454077,1.75967482739069,0.00720966558082349,0.00517482206653641,0.00887457386062131,-0.0387426480642547,-0.123549463966645,0.130962771618273,0.00845985185077133,0.125608335753843,0.1266194062716,15.3979789231659,2.18407338839351,2.36222411253031,0.0283148558669798,0.0555699543600876,0.145008351389641,0.488899279831639,0.0222381764374685,0.00483041031665446,NaN,NaN,NaN,NaN,1.779143412243,-117.297381887505,1.66754046352812,stable,stable,1,0.494570501891837,0.166757784325027,0.111694817409644,0.95012166313068,0.335551843826826
147,1.44207240641117,2.19107627868652,-0.717793237916779,-1.23479019997719,1.44207240641117,-0.0486887167569894,-0.00203398296136763,0.0487311833031938,-0.0293810119209696,-0.0815967521122658,0.0884217971177024,0.00570424156080824,0.118680828669531,0.120119555714808,15.3998129936057,0.925647733940215,1.01390653901664,0.176240818877204,0.240149403445151,0.166926171683011,0.463873662140208,0.159024813043312,0.0343692554746414,NaN,NaN,NaN,NaN,1.48754464037965,-118.732441752547,2.31722415823071,stable,stable,1,0.408576552852607,0.177459921534207,0.189651558688128,0.896640235559594,0.325810590363106
148,1.70536288457948,2.47000098228455,-0.7722274511334,-1.49990123094927,1.70536288457948,-0.0559503393897701,0.0101942681817591,0.0568714654426285,-0.0349046981810475,-0.119792871711302,0.12685494151845,0.00818462133142175,0.132331777801332,0.13433004460362,15.3631485376295,1.04134013188351,1.11261329341489,0.177338230811023,0.240213962628387,0.156821730130546,0.479075125645942,0.158070689423603,0.0364097520743969,NaN,NaN,NaN,NaN,1.75445964810256,-115.915142708198,1.93552446328173,stable,stable,1,0.481629444808585,0.182470007314789,0.192975553977932,0.894406964824287,0.330301453275313
149,2.5864919659286,3,-0.607955412771041,-2.48043392946943,2.5864919659286,0.00466868875743422,0.00206864930496481,0.00510646302843015,-0.0285398164473721,-0.320952628175643,0.323382034805873,0.0208781361368737,0.202794989039207,0.205286285923789,15.4135003255582,1.90432570826469,1.73431173477578,0.0275033356209267,0.0472467089137355,0.131379663527198,0.462463533032234,0.021657942884205,0.0058072550235852,NaN,NaN,NaN,NaN,2.89228411426449,-102.374592577792,1.50919985225851,stable,stable,1,0.730788448099052,0.0939754925546097,0.0681227770252313,0.957659037994219,0.341609038432357
150,1.50807938905987,2.23239755630493,-0.655305307515578,-1.33734964943749,1.50807938905987,-0.0610851830678815,-0.0122834758859274,0.0623079719640814,-0.0264236538608527,-0.0975649658911121,0.102854597658388,0.0066333355504808,0.143300580435366,0.144861039476605,15.4335482086954,0.702820416527325,0.783341305910646,0.176955732478809,0.240182655492671,0.122857903820807,0.366323015089259,0.15846221159594,0.0368204211225268,NaN,NaN,NaN,NaN,1.57055207434036,-114.528428258895,2.34187858165209,stable,stable,1,0.431126711644618,0.174394715823555,0.188453723136884,0.899845148798583,0.345396487190753
151,1.47310175431655,2.10799813270569,-0.654840229486593,-1.30432652776572,1.47310175431655,-0.0503303443518925,-0.00252247480583779,0.0503935158698633,-0.0249489403431528,-0.0910421626720463,0.0956795077554295,0.00617246381384195,0.116754034145603,0.118197460682235,15.3553041716336,0.990108576342527,1.04245454021118,0.176582730407604,0.240161390526281,0.16012033894768,0.486492672548416,0.155091256077545,0.0411125406421568,NaN,NaN,NaN,NaN,1.53043490962982,-115.371127707452,1.60417002091578,stable,stable,1,0.41646662662086,0.152090496380365,0.175133759752761,0.895738496023276,0.328835404912142
152,2.61816121144438,3,-0.65850803448655,-2.50406582959665,2.61816121144438,0.00418312067574258,0.00387301240865374,0.00570076518595626,-0.0309267064429887,-0.326414755776048,0.329100123545236,0.0212548428841432,0.189780769942253,0.1924393906555,15.3840341067561,2.16010480295998,1.9104127476257,0.0190906223017343,0.0653846680797693,0.129948494697263,0.477054771050941,0.000466045834771313,0.00793043812263189,NaN,NaN,NaN,NaN,3,-103.235441300153,2.28752280807104,stable,stable,1,0.736664201182935,0.0869588677091059,0.0552662477885412,0.958472050951674,0.342245113467883
153,1.4857804372504,2.07574081420898,-0.698117285493981,-1.30048399855238,1.4857804372504,-0.0413666733798932,6.7085670725056e-05,0.0413667277773573,-0.0272679829818119,-0.0892187209502142,0.0943960887243861,0.00608862702265581,0.0986576099161365,0.100194039603878,15.4104264055272,0.882985879001913,0.76728870324168,0.17631828714257,0.240149573060404,0.127954058891349,0.366865064320717,0.15906058103752,0.0379579785453763,NaN,NaN,NaN,NaN,1.53053947457772,-117.277382087191,1.81454468054182,stable,stable,1,0.416246924520881,0.140324984908198,0.168691483806378,0.898874413282515,0.343131529381623
154,2.68297559239385,3,-0.653554429196037,-2.56807026087668,2.68297559239385,-0.0269111268648458,-0.00942060754298929,0.0285123937194837,-0.0297437027900503,-0.337385483033583,0.33995935080559,0.021945278938005,0.202707903373586,0.204813748945707,15.4066848573908,1.67441460436741,1.45641343314184,0.0634090550402719,0.240340205749507,0.137083498814884,0.483141011397571,0.00182444512273998,0.00892222413039951,NaN,NaN,NaN,NaN,3,-102.931426400997,1.63210552001806,unstable,unstable,0,0.756422907760835,0.0765577638932886,0.0499899679732958,0.943696109328006,0.339074000526718
155,1.6734298242105,2.4042809009552,-0.783304560382688,-1.46643839782071,1.6734298242105,-0.0517421803915402,-0.00967204520029452,0.0526384050862792,-0.034354500517577,-0.114194252529764,0.120541985666293,0.007775583793695,0.122923286420145,0.124930771529875,15.430304634281,0.894740201261723,0.963096628149265,0.177383861599227,0.240185559929531,0.171335566978984,0.476150918377883,0.158614720813069,0.0378812218512449,NaN,NaN,NaN,NaN,1.68981233095603,-117.495671617653,1.74916061414194,stable,stable,1,0.471234107428775,0.174091866533375,0.188725541156589,0.896710779826443,0.323850859120452
156,1.62485321389393,2.42869281768799,-0.718464413796975,-1.43913523262122,1.62485321389393,0.0065071964187844,0.00347597819581143,0.00737739992479715,-0.0298688696634012,-0.109649958513065,0.115329852987955,0.00744656315496389,0.129337430037035,0.130241175683938,15.3981758326894,1.96174010968929,1.7214463223291,0.0262150088039852,0.0564653709505293,0.12549368142793,0.483370691703429,0.0195900761261539,0.00658008061856374,NaN,NaN,NaN,NaN,1.64682358488304,-115.230680905002,1.62485014597329,stable,stable,1,0.459342425508502,0.18221643417321,0.120429317593007,0.957953173632149,0.344225030476476
157,1.63055198184596,2.55165791511536,-0.72206914198427,-1.43822919885922,1.63055198184596,-0.0676447732391332,0.00400420043622028,0.0677631829809313,-0.0318045373515969,-0.113852345527158,0.120455395090626,0.00776929652735822,0.163764685466249,0.165582331335314,15.4525039551497,0.874738249308209,0.755934668534382,0.175586040453062,0.240235348144382,0.158700261755138,0.38717539803595,0.156117190874894,0.0413653860097694,NaN,NaN,NaN,NaN,1.69535374865113,-115.407012304463,1.77183130744404,stable,stable,1,0.467930328092652,0.219672085198785,0.216230627834898,0.899394549704706,0.32946655033105
158,1.62967029294452,2.3235239982605,-0.758808219896193,-1.43021881527246,1.62967029294452,-0.0400845394600317,0.00708136375033244,0.0407052332788717,-0.0321023552017192,-0.108218584427843,0.114050570035058,0.00735629610189064,0.117760078617679,0.119632511782239,15.4491229361698,0.823885881096962,0.914642586300223,0.176151807249319,0.240176421411763,0.151435216707516,0.443965747188217,0.156351872978209,0.0388752428256043,NaN,NaN,NaN,NaN,1.65925020896733,-117.23842078182,1.73082608945303,stable,stable,1,0.458505247141654,0.163579709797221,0.181773999138565,0.898264229845791,0.332695459241104
159,2.58896598568728,3,-0.750851514627222,-2.44152068128865,2.58896598568728,0.00712806244015888,0.00611931478132123,0.00939442853736726,-0.0391851096111872,-0.311226372225209,0.315753887919647,0.0203894134636281,0.206271444957013,0.208718526769399,15.3946949961084,2.01278502979875,1.86344749518283,0.028669896122251,0.0562878160874408,0.127082501955545,0.47270555439078,0.0195520211421027,0.00626700429015283,NaN,NaN,NaN,NaN,2.88835322200788,-105.56852442763,1.51241977491919,stable,stable,1,0.732134634870488,0.094204965118879,0.0674916768965599,0.955208939242591,0.343518888019758
160,1.50718271892343,2.4534809589386,-0.669113958951204,-1.32599497907414,1.50718271892343,-0.068604584627028,-0.00992621220066205,0.0693189636427119,-0.0285130768287292,-0.0966190883994701,0.102954291538535,0.00663940500326811,0.15873496686831,0.160340891536789,15.4562134554191,0.758013198174793,0.713613032776558,0.176176081519622,0.240191172559609,0.11631403861159,0.407950361594346,0.156001601186005,0.04142939511623,NaN,NaN,NaN,NaN,1.56544004446909,-115.546181583882,2.35321071706281,stable,stable,1,0.433983570020272,0.225625580671244,0.219774627962024,0.900349181711286,0.348304871728182
161,1.6777563429909,2.5237557888031,-0.792822214804884,-1.45065870899961,1.6777563429909,-0.0935255040251508,0.00985843560074949,0.0940436529259292,-0.0393508739486881,-0.11639521194665,0.126089574569574,0.00813471416512711,0.179932321938573,0.181667475185023,15.3584953194495,1.03148381781488,1.04945483854534,0.185066676106447,0.240246993972404,0.170912639272387,0.490913650094421,0.147230086304983,0.0045489934986503,NaN,NaN,NaN,NaN,1.70136515468512,-117.053321105748,2.05009592353553,stable,stable,1,0.483735186501244,0.207591211677499,0.19164450037388,0.891116429646803,0.32403882699005
162,2.42235133745899,3,-0.616342142683377,-2.31021508873621,2.42235133745899,0.00379982050885947,0.00102159188288747,0.00393475359771493,-0.0297072499675751,-0.301844911267275,0.304766826980683,0.0196587654062524,0.208039780654081,0.209427801387436,15.4406312168945,1.06993580983389,0.896825749361181,0.0241285953218545,0.0773476216908153,0.28705453148907,0.639131867724099,0.00631545845028968,0.00867515909490123,NaN,NaN,NaN,NaN,2.85921158454158,-105.062668776886,2.40845688331479,stable,stable,1,0.687845916933218,0.130692320564642,0.0843768660683728,0.97248257580254,0.27242020822708
163,1.66535918454866,2.47191119194031,-0.762804755363505,-1.46146844929022,1.66535918454866,-0.0505213322128015,0.00207232210984126,0.0505638163856645,-0.0337806133713816,-0.114405364805922,0.121223707096228,0.0078190501062212,0.143281016177914,0.145209370061688,15.4145582630865,0.915888624549312,0.873322434567318,0.175870166777364,0.240240281323645,0.143067687458473,0.465195872442874,0.156365174867823,0.0408744392950693,NaN,NaN,NaN,NaN,1.71874998102098,-116.787170824054,1.57970809702531,stable,stable,1,0.473137656558647,0.190744234667159,0.198805606545818,0.898006829718259,0.336414361129568
164,2.52750241380293,3,-0.773624040126313,-2.37558221827631,2.52750241380293,-0.0267052936945787,-0.0109785342062851,0.0288738796255764,-0.0370247431323254,-0.292999273057686,0.297110803906937,0.0191793743792945,0.218112497538915,0.219802011326921,15.3888828170604,1.78988003494968,1.45949582945923,0.0633753440650217,0.240249526485035,0.135024234576456,0.411953105141946,0.00192040671172366,0.00914779517975838,NaN,NaN,NaN,NaN,2.64390369362176,-106.697557678757,1.5976445602601,unstable,unstable,0,0.717961045946167,0.111605501492362,0.0711432859639743,0.942781517604276,0.339989229077131
165,1.63245911606206,2.38794898986816,-0.700444970313681,-1.46319572836198,1.63245911606206,-0.0425614257064223,-0.00409619248812926,0.0427580840434076,-0.0275536262643153,-0.113201999609307,0.11746863773557,0.00757734087673753,0.10703563470231,0.108948125789173,15.415389740975,0.966610026740546,0.89329955345665,0.176053215300685,0.240175445117521,0.152589550991058,0.480112184938853,0.156404625270363,0.0405903664204431,NaN,NaN,NaN,NaN,1.65443912380199,-114.70021335318,2.2957274066898,stable,stable,1,0.457112056107718,0.177824203680998,0.190967822239224,0.897359817076679,0.332182421781752
166,1.65321226203721,2.37495636940002,-0.729529208237823,-1.47121724151572,1.65321226203721,0.00526955037792489,0.00396428977232186,0.00659422130235436,-0.0297527300168632,-0.113824591259534,0.118787419591962,0.00767008264755554,0.111946597963215,0.112830272730083,15.3723672994484,1.92430933119917,1.97820722809449,0.0262601349094683,0.0677240503493853,0.133483120111064,0.498685209819745,0.0164217521053239,0.00723938554210542,NaN,NaN,NaN,NaN,1.6985678915868,-115.061450151433,1.87955901309604,stable,stable,1,0.463422657755938,0.163601364728732,0.108091879161987,0.95620730243653,0.340674168839527
167,1.49333643631355,2.2734477519989,-0.692707157153202,-1.31143912654396,1.49333643631355,-0.0497235776551965,-0.00902403173533879,0.0505358023938748,-0.0269676079235624,-0.0916740625613191,0.0966552668196105,0.00623640099859291,0.102276246713269,0.10381389890316,15.3729330875073,1.12982683050012,1.0362391583054,0.176477889362951,0.24016147361937,0.152037338827144,0.47529839138011,0.159203883463301,0.0357015924684507,NaN,NaN,NaN,NaN,1.53242316823457,-117.234742424214,2.15643869271139,stable,stable,1,0.418985829464246,0.184789943134747,0.194613644681348,0.894741965406481,0.332427849410158
168,1.75008497608675,2.56177806854248,-0.867034525183491,-1.50115342131112,1.75008497608675,-0.0591931108110925,0.00078190066291866,0.0591982747733491,-0.0425262429272824,-0.120867269343113,0.130549494551537,0.00842336154536422,0.145720327665448,0.14773070432121,15.380855922716,1.18387466385588,1.09952518470098,0.177327860751662,0.240247934131711,0.167104564637272,0.477693544096467,0.158929453213895,0.0363960760090097,NaN,NaN,NaN,NaN,1.76822611766951,-118.998443980142,1.56557745484763,stable,stable,1,0.496235467820707,0.193483962844321,0.19996062697665,0.893395070814079,0.325731304605657
169,2.4721976698043,3,-0.768522271202442,-2.31611812677208,2.4721976698043,0.00491598523402438,0.00799335607656057,0.00938406373528194,-0.0398705092712515,-0.282953552225982,0.287840865255027,0.0185883376596439,0.214206080307637,0.216454471157669,15.4037085320216,1.83787225895549,2.06016380747167,0.0275679297511738,0.0597279955255632,0.134109084382114,0.474736046981448,0.0201437120133478,0.00617120297288449,NaN,NaN,NaN,NaN,2.66549340284327,-107.193726307889,1.51515535395113,stable,stable,1,0.702543606179346,0.120475935978835,0.083482396290444,0.9555886088882,0.340395962496838
170,1.74818414610785,2.45208215713501,-0.778368968764196,-1.55250268566045,1.74818414610785,-0.0456719057799501,-0.00751976952038139,0.0462868222198532,-0.0341146847547071,-0.127274024203755,0.133065288372776,0.00858367283995527,0.12631131396649,0.128505408089965,15.4374202638476,0.944866960552372,0.952298232700006,0.176461938568168,0.240221777647627,0.178436096650398,0.43751391997064,0.158284036504638,0.0362866617043073,NaN,NaN,NaN,NaN,1.77840570795084,-115.675983280215,1.7458787432427,stable,stable,1,0.491883520580087,0.166862969888083,0.183661392312235,0.896862732768933,0.320695068155379
171,1.63868407542641,2.28365421295166,-0.801970413832598,-1.41676716596108,1.63868407542641,-0.0406432277583155,0.00238191585101434,0.0407129645903565,-0.0356195714046749,-0.106434929528633,0.113644790683517,0.00733402611004284,0.118040315866592,0.11993811353693,15.3303829467281,1.13755414100796,1.18758922623527,0.176469598815624,0.24019448801302,0.176096621724559,0.453544702606271,0.158252882356943,0.0354229896028493,NaN,NaN,NaN,NaN,1.68221562017466,-118.331726157389,1.97831187111607,stable,stable,1,0.460970042821096,0.152582324451413,0.17476509618002,0.89349621699242,0.321734834789085
172,2.4079450620058,3,-0.835621370018936,-2.22690312572709,2.4079450620058,0.00926424914436227,0.00688670868466921,0.0115435293007085,-0.045266051180228,-0.264484435808239,0.270822400319792,0.0174882782316146,0.223803070605578,0.225879142743251,15.4029460073415,1.91893244478046,1.95679469222353,0.0275745865123213,0.0510522853039445,0.128253171829128,0.439592109363769,0.0193691612705034,0.0076795212327731,NaN,NaN,NaN,NaN,2.5789773418386,-109.450212225276,1.73026993238529,stable,stable,1,0.687294511750197,0.135328674753825,0.0925982741480727,0.955760564953094,0.342998590298166
173,1.55990104027242,2.38102269172668,-0.744951505671079,-1.34490066315569,1.55990104027242,-0.0639720291971644,0.010113983346706,0.0647666054285718,-0.0336108005736504,-0.0992465843624246,0.107597284452655,0.0069408179659046,0.154866496950027,0.156498855303558,15.3658692975141,0.990047627466398,0.962345375685871,0.176734399501356,0.240248816012734,0.158676984818099,0.455469794284114,0.156137075092515,0.039931703693361,NaN,NaN,NaN,NaN,1.60572032516396,-117.151648626796,2.13519246012575,stable,stable,1,0.447273381800025,0.196626249239113,0.201890624665,0.896292569510269,0.3294768956364
174,2.27963247916681,3,-0.733194890069488,-2.12791450961277,2.27963247916681,-0.0172022619085418,0.00541950277512383,0.0180357651653497,-0.0367819035806065,-0.249275931147955,0.25405097812364,0.0163992876795671,0.234832206725434,0.236229442047123,15.4060005619194,1.75087723613324,1.49860095333679,0.0628436819665679,0.240255453495769,0.131908155840453,0.463111766079608,0.00192879550561781,0.00918037204493513,NaN,NaN,NaN,NaN,2.36078838964489,-107.709824257803,2.03015526688918,unstable,unstable,0,0.655147882853908,0.165389249134448,0.103429109034859,0.94304654467088,0.341374152959799
175,1.64928690807239,2.45757961273193,-0.800862843286601,-1.42354564319125,1.64928690807239,-0.0612626021527948,-0.0087128147365736,0.0618790720936042,-0.0369689103598217,-0.109701195710084,0.117884289509389,0.00760475239591029,0.135794886248333,0.137588053776968,15.366261887421,1.01192842961343,1.03652156878048,0.177278518923349,0.24019641136005,0.148914822863997,0.463648559168026,0.157792721994458,0.0345846078624033,NaN,NaN,NaN,NaN,1.70036876942666,-118.357386427334,1.94013508788989,stable,stable,1,0.467327452908032,0.19321035509889,0.198632532764412,0.89526577626523,0.333815634282668
176,1.77010371094962,2.48581886291504,-0.88737625348133,-1.51681462773926,1.77010371094962,0.00438827686951105,0.000633552657292492,0.00443377523709176,-0.043360671541389,-0.121221461460897,0.13066063622287,0.0084357268672955,0.129966302250482,0.130964952755199,15.421391718996,1.85638676434026,1.88372583774145,0.023329309642495,0.052339620503257,0.123775971062937,0.464394503339218,0.00751426681338248,0.00856203142331586,NaN,NaN,NaN,NaN,1.79740384781532,-119.424856454763,2.08235221033648,stable,stable,1,0.498220646804272,0.161848767985686,0.103562400902808,0.958948746162396,0.344988457305361
177,1.94947848046148,2.9590425491333,-1.00524262472758,-1.64022423927825,1.94947848046148,-0.0863636866335994,-0.0111925634756155,0.0870859336868029,-0.06041480641177,-0.146953262537308,0.163839450517718,0.0105700597516833,0.187041901722126,0.189581221485412,15.3864507914842,1.10813327408102,1.07443016359574,0.176683331510346,0.24031370209507,0.150325558481985,0.451470139663845,0.158664419550977,0.0362356229441551,NaN,NaN,NaN,NaN,2.00389774569212,-119.82849383685,2.23900559446652,stable,stable,1,0.557777172420144,0.243117669960407,0.229564711938189,0.894509621520224,0.333188640674674
178,1.82804827562115,2.54870700836182,-0.979571886717045,-1.52904602116172,1.82804827562115,-0.0556987090908724,-0.00512562049977413,0.0559340520604161,-0.0531668149963895,-0.12442594523755,0.13761146623783,0.00887607658152102,0.133981079091873,0.13625864214699,15.4270825105873,0.867111576944024,0.964760083478766,0.175810809107303,0.240231238839062,0.160997213940987,0.491865858050126,0.156112241971134,0.0393422262089876,NaN,NaN,NaN,NaN,1.88108853169074,-121.75609313085,2.38379159745779,stable,stable,1,0.514731268595037,0.172402791077727,0.187131157376469,0.897701318114455,0.328445682692895
179,2.50040476577338,3,-0.656030090109157,-2.37671107999775,2.50040476577338,0.00822605703092066,0.00629131028756609,0.0103560899672798,-0.032540104457099,-0.29689250954327,0.3002927765592,0.0193959947314348,0.218547675739488,0.220873948655788,15.4028755568985,2.10676639037604,2.11058089886794,0.0231535322546459,0.0499346130120833,0.142981555142283,0.446597109289003,0.00642466770850104,0.00778137281160407,NaN,NaN,NaN,NaN,2.73243854491602,-104.018907315581,2.08052678002132,stable,stable,1,0.710949393937392,0.114307544194991,0.0742695245007503,0.955286933742903,0.336452642158985
180,1.80500648125706,2.76711583137512,-0.919830462451635,-1.52310309034665,1.80500648125706,-0.084230340011178,0.00669640967861889,0.0844961068983806,-0.0513174722470326,-0.127030523843432,0.141443243917317,0.00912442925926784,0.185314011663972,0.187409480957993,15.4438020657528,1.04974885001636,0.94786315831692,0.175572127606481,0.240267604135766,0.164016069680125,0.423912232443251,0.154744488616779,0.0408472746198106,NaN,NaN,NaN,NaN,1.85620598441334,-119.444845846151,1.5,stable,stable,1,0.518816957860148,0.231965556707934,0.222808216706088,0.896518413274141,0.327103969031056
181,1.82108047424547,2.78969526290894,-0.909866506795449,-1.54759185599838,1.82108047424547,-0.0783568879841443,0.00484211829479761,0.0785063564569172,-0.0503692759579931,-0.132069699456492,0.145660564358521,0.00939518573822032,0.188321915321303,0.190468732908663,15.4322693097781,0.799115939079386,1.01602021958009,0.175921456097798,0.240287155117992,0.170622496792371,0.494406299275996,0.156267690506534,0.0418500638716136,NaN,NaN,NaN,NaN,1.8944468966032,-118.434379956689,1.63537142195933,stable,stable,1,0.523715206380524,0.232331159466382,0.224069207615845,0.897777487847348,0.324167779203391
182,2.43834614753723,3,-0.441601605365821,-2.3662879458393,2.43834614753723,0.00615933078244186,0.00837838845049822,0.0103987859250481,-0.0187658798080152,-0.296213446797597,0.297466226123102,0.019206493945226,0.221787957896143,0.224193012948596,15.3906653967912,1.81713617513906,1.80360572784353,0.0196215677564134,0.0436515567495517,0.130394183085252,0.457205783395264,0.00023474921548431,0.00595212629801573,NaN,NaN,NaN,NaN,2.61222307005049,-99.3162222201901,2.24991470900382,stable,stable,1,0.695064241932981,0.128278560890382,0.0792358790818036,0.961740529741216,0.342047029739888
183,1.8333715416441,2.43564438819885,-0.96924856361273,-1.5418364480409,1.8333715416441,-0.0426091714540039,0.0142275210836031,0.0449217525056745,-0.0511439646832933,-0.125358036260182,0.137559345889054,0.00887178554368989,0.112480632869152,0.114594916456692,15.4677870340189,0.830136362587287,0.86240485446813,0.177237367824991,0.240211081905071,0.141750031193172,0.376672587242272,0.144331879560457,0.0285943601335988,NaN,NaN,NaN,NaN,1.87171872539055,-121.350351106356,2.14399473065956,stable,stable,1,0.511818061063099,0.143747045100859,0.160793678226876,0.898082777953498,0.336999986136368
184,2.4056866717966,3,-0.225133380877004,-2.36186151372557,2.4056866717966,-0.00396255445050394,-0.00202992025660417,0.00445223696824198,-0.0102438052737396,-0.303116432646924,0.30364071910815,0.0195854944550462,0.222871301973098,0.223679128407405,15.3668583066967,1.03354848295142,0.724706589638418,0.0705402359533168,0.240400480250649,0.261545789308892,0.641509485872694,0.0877159664877276,0.101674376545257,NaN,NaN,NaN,NaN,2.70378156394852,-95.0700514349474,2.3372080345659,unstable,unstable,0,0.686252271493907,0.134536742289943,0.156679419930423,0.950915020738707,0.283757426973826
185,2.10441152711172,2.90057826042175,-1.23127308923132,-1.6833047501379,2.10441152711172,-0.0627751638450347,0.0116675694140741,0.0638502417521123,-0.0837924019706911,-0.151431294994778,0.177870560373239,0.0114756105268018,0.16102577265743,0.163873231429505,15.4051181673786,1.07938959913556,1.19592555742976,0.176659674436317,0.240288342311503,0.149206054388192,0.443964377203538,0.156088262656438,0.0403895453106731,NaN,NaN,NaN,NaN,2.15708888634091,-124.745911655981,1.84281375422595,stable,stable,1,0.593951053515694,0.190843392649311,0.198565704155925,0.893792686551685,0.333686198049692
186,2.06278104048509,3,-1.12827879468941,-1.69217875993394,2.06278104048509,0.00500715449272963,0.00458860268858978,0.00679167657856261,-0.0748849452547948,-0.156194076896519,0.179650865655353,0.0115997513809635,0.216678044142584,0.218080429363951,15.3959169309709,1.58451859926517,1.95712001506388,0.0263891194125227,0.0541331310438233,0.122640065966226,0.497076127579919,0.0196986450396083,0.00609878804983833,NaN,NaN,NaN,NaN,2.10837557196529,-122.363616262261,1.73273879069635,stable,stable,1,0.593691030002147,0.212119406596925,0.138244338418124,0.958978279752582,0.345493304015011
187,2.02016807962584,2.79442095756531,-1.09645823285584,-1.6809290549649,2.02016807962584,-0.0543113795153134,0.00205183288166535,0.054350123854787,-0.0661254956619017,-0.150363840398295,0.166995452690461,0.0107705762208095,0.143021608490145,0.145598083836269,15.4579734042906,0.924831488640209,0.841115727453423,0.175362287486635,0.240237309986295,0.135174436721883,0.420982062935169,0.156082086007341,0.0430619210055524,NaN,NaN,NaN,NaN,2.09849345512064,-122.244984043751,1.54685755896155,stable,stable,1,0.567831104667478,0.184171086909758,0.195531348514773,0.898443556701661,0.339922472568052
188,2.01967898413942,2.80181527137756,-1.12497063950934,-1.65280320267262,2.01967898413942,-0.0629102518536934,0.0172039344807278,0.0652202050741356,-0.0709802122909403,-0.146802268408345,0.167462968239852,0.0108057314555869,0.158863841608644,0.161521852968291,15.3547274750195,1.13876183648421,1.24537001260847,0.177492868515315,0.240280607344432,0.165627146139572,0.502480526208974,0.15878758702586,0.0377501313198123,NaN,NaN,NaN,NaN,2.08252249604559,-123.526280590972,2.21593579713493,stable,stable,1,0.570885433030836,0.187937702225508,0.197062202715619,0.892521101213757,0.326387935049079
189,2.50195538519218,3,-0.78971037585103,-2.34127980451627,2.50195538519218,0.00826177662788409,0.00668189925197371,0.0106256637751521,-0.0413092418099719,-0.288754139670818,0.293819134853595,0.0189753833205735,0.212663635621122,0.214893964491554,15.3966017817375,2.11935314318548,2.05324471013227,0.0276966534204339,0.0555682353127552,0.147357504394181,0.440452277605371,0.0211287755521595,0.007378280761174,NaN,NaN,NaN,NaN,2.71977714743149,-106.924123588306,1.73671096245177,stable,stable,1,0.710166895616226,0.114008076690537,0.0804784241122745,0.953366975870858,0.334507775824809
190,2.00067835885125,2.9313817024231,-1.0866888828043,-1.64641199966065,2.00067835885125,-0.0912325140871797,-0.00606150265888452,0.0914336559542005,-0.0698736665203142,-0.148298053036927,0.16992737555424,0.0109608667704066,0.203256263410061,0.205940374823574,15.4620490420304,0.93608777388172,0.989144944170902,0.175694022013707,0.240318329861056,0.155682344860624,0.397172156516447,0.158883267718343,0.0368251142023251,NaN,NaN,NaN,NaN,2.06580628279313,-122.281189709167,1.85547153211607,stable,stable,1,0.574702303991715,0.226171089228602,0.219708389808785,0.897026160494161,0.330807846728612
191,2.02343199462504,2.79924058914185,-1.00120414660955,-1.74334254129816,2.02343199462504,-0.0544906734749757,-0.00671429447531249,0.0549027799483562,-0.0552763065064103,-0.160161953446948,0.171638881805012,0.0110743820370738,0.127810335456175,0.13056136021097,15.3702829426614,1.16268508304168,1.15447937503952,0.177216716999845,0.240279232842694,0.161239608459879,0.528944959511493,0.157926312420993,0.0379927996374218,NaN,NaN,NaN,NaN,2.07634549688122,-118.754548572983,1.67338993156257,stable,stable,1,0.565694137275538,0.18462244342348,0.194778501745713,0.893185349329439,0.328337951795609
192,2.48022205295371,3,-0.960601442467608,-2.25531005271775,2.48022205295371,0.00952640260876441,0.00445160767796672,0.0105151869970441,-0.0562559768738953,-0.268363217519747,0.27747880312128,0.0179211758161096,0.210262750925762,0.212400338522837,15.3901852154752,2.13765268331304,2.07989662173925,0.0197231285385513,0.0474686403235087,0.149286445479341,0.394440530752543,0.000189390257974458,0.00722611361187834,NaN,NaN,NaN,NaN,2.68099720733185,-111.612146549017,2.24814516386167,stable,stable,1,0.703872615158891,0.118877822368206,0.0740385445459588,0.957000548333885,0.333650468675848
193,2.04138119639577,3,-1.07476799167693,-1.70382402385143,2.04138119639577,-0.0717546915454577,0.00908602301131077,0.0723276681011205,-0.067875454211095,-0.159261811172303,0.17854305765262,0.0115212246990581,0.195261696325565,0.197970297296823,15.3612050347678,1.26228421229159,1.23307236118762,0.176925132849018,0.240360431736369,0.16022743848318,0.475435897567327,0.158942329956094,0.0351075870610872,NaN,NaN,NaN,NaN,2.11900443077325,-120.570247299149,1.82147868840161,stable,stable,1,0.583962378498237,0.228949303296157,0.220777012808677,0.891931060498154,0.328787805118587
194,2.46957416112343,3,-0.978677639323969,-2.23380880780807,2.46957416112343,-0.0189412973217085,0.00108395741904,0.0189722878935476,-0.0591694904439968,-0.266433798663326,0.276805455799057,0.0178686468882301,0.229394058439063,0.230949845438229,15.4002285874389,1.75580820850973,1.49839159395719,0.0627072212041742,0.24042304556407,0.135251889398978,0.543632712771912,0.00188741333551383,0.00853593018365967,NaN,NaN,NaN,NaN,2.61715863552686,-112.220792726245,2.06702348399782,unstable,unstable,0,0.704743078720561,0.122824066527712,0.0776372649002064,0.943077676664244,0.33988804915601
195,2.05155303574248,2.88805961608887,-1.03690551001001,-1.7527416425029,2.05155303574248,-0.0661244519044932,0.00235302151469604,0.0661663044904146,-0.0595053837629208,-0.162300823968195,0.175634709702631,0.0113271533108275,0.136472159362619,0.139175209009461,15.4518826008527,0.872400272044787,0.761392686223872,0.175632204337794,0.240271653645942,0.116086345933475,0.42369607259397,0.156592489800445,0.0403976362939389,NaN,NaN,NaN,NaN,2.08957514186263,-119.371133784789,2.28555684438529,stable,stable,1,0.574915851333221,0.200344469734512,0.204493393535671,0.899346953158992,0.348406068474011
196,1.94496860870948,2.66792607307434,-0.908773249154263,-1.69743320921626,1.94496860870948,0.00317068107775505,0.00331040755285409,0.0045838866328507,-0.0472821856829493,-0.152045843300744,0.161927665857403,0.0104556610408702,0.154294230275289,0.155568848608832,15.3932505161403,2.0155083484527,1.81644110283818,0.0272635012411766,0.0566183326429698,0.127500759796713,0.483344912973822,0.0183908768487049,0.00796243890571194,NaN,NaN,NaN,NaN,1.98818975952798,-117.123132335998,1.85465421761553,stable,stable,1,0.549772065377628,0.163505808698116,0.109172640592088,0.956260075119269,0.343332995645905
197,1.90603486911671,2.83358502388,-0.858818811173932,-1.68141310837831,1.90603486911671,-0.0594914654013605,0.00183984363616018,0.0595199082677955,-0.0427266603841402,-0.15036710998691,0.158493801795661,0.0102229342520992,0.151776152254752,0.154211555080459,15.4555983054404,0.945723639322376,0.925596511606743,0.176788261289779,0.240281277907323,0.161397555533931,0.409386776238204,0.159212386049808,0.0371177320707874,NaN,NaN,NaN,NaN,1.96491164649544,-115.571452830696,1.92606340123132,stable,stable,1,0.53911827611388,0.219610768004171,0.216024878385734,0.89690263959781,0.328267753096031
198,1.83176386034166,2.64155578613281,-0.818518899283639,-1.61994876024365,1.83176386034166,-0.0606544578292004,-0.00264905035766074,0.0607122781844963,-0.0388874970396952,-0.140132566495189,0.147445865966436,0.00951318963396155,0.149874722048566,0.152206114136178,15.3703178661675,1.14128100791545,1.04603720117158,0.177652740860233,0.244033554930623,0.172543818848574,0.448379811072905,0.158746789762926,0.0357255732466256,NaN,NaN,NaN,NaN,1.88489007794024,-115.359098105949,1.72991045706529,stable,stable,1,0.518911585585013,0.193333767636833,0.19954550690985,0.893987557927057,0.323313858289523
199,2.48715216658985,3,-1.12210231830419,-2.18499388877772,2.48715216658985,0.00820108119880768,0.00437645478062083,0.0092957565198458,-0.0737718270616411,-0.252932415719432,0.26846257824046,0.017339806360015,0.215987582661596,0.217968780959672,15.3790859859967,2.10875878882872,2.02171286136446,0.0244845727855373,0.0669362141751138,0.144151308941242,0.505453291894302,0.00798377653722991,0.00865026282968948,NaN,NaN,NaN,NaN,2.68563096804021,-116.007396076949,2.04900480179935,stable,stable,1,0.706834333949226,0.117094984545923,0.0769508859750987,0.955304007784285,0.33593275158167
200,1.92133857672279,2.57761192321777,-0.839252342922477,-1.71360776982259,1.92133857672279,-0.0554914850674981,-0.010506957825612,0.0564774386613412,-0.0397204378221951,-0.155548154129048,0.162044827301712,0.0104526375427036,0.137313680822088,0.13982035034252,15.4497854509862,0.98987382107591,0.950607708455111,0.176255590978023,0.240270450074808,0.173358239510223,0.412084420372606,0.157721901870671,0.0339337576498246,NaN,NaN,NaN,NaN,1.97177383483815,-114.893051128023,1.92939684141975,stable,stable,1,0.540321023861248,0.158015700049284,0.177247591319502,0.896625563921816,0.322951893551012
201,1.83625103654088,2.56217098236084,-0.772615264772815,-1.65296287844585,1.83625103654088,-0.0495019219617973,-0.000742312148104253,0.0495074873654187,-0.0337136201771112,-0.144701764767358,0.149764609926991,0.00966012606035635,0.135213794082694,0.137563024298625,15.4521247233483,1.01772991528187,0.868433681096075,0.176630486251511,0.240224846250981,0.172482482049807,0.441295384639825,0.158969576119029,0.0352023893464531,NaN,NaN,NaN,NaN,1.87135485490829,-114.338554000358,2.26533343795669,stable,stable,1,0.517179547937293,0.172408360493151,0.186899030090937,0.896864900045561,0.323341119088975
202,2.34115314364035,3,-0.949914106392007,-2.10205965222532,2.34115314364035,0.00641444970363353,0.00941000784460087,0.011388301569413,-0.0570165940641278,-0.236736251732207,0.247717036997603,0.0159955172609182,0.234456958638547,0.236333745838228,15.4087999865084,1.94225389221609,1.97141917108196,0.0210978383803805,0.0618892233448222,0.130921920918957,0.491761825185994,0.000298304231900779,0.00578873832356345,NaN,NaN,NaN,NaN,2.45321237213052,-112.912057666969,2.20384328585771,stable,stable,1,0.671574254138405,0.150328397968648,0.0924346141938343,0.958700792455325,0.341812479591575
