scenario_id,mean_wind_speed,max_wind_speed,wind_velocity_x,wind_velocity_y,wind_velocity,wind_acceleration_x,wind_acceleration_y,wind_acceleration,wind_body_force_x,wind_body_force_y,wind_body_force,mean_wind_body_risk,mean_wind_gust_risk,mean_wind_risk_raw,min_thrust_margin_n,mean_abs_roll_deg,mean_abs_pitch_deg,mean_abs_vz,max_abs_vz,mean_tag_error,max_tag_error,stability_std_z,stability_std_vz,mean_imu_ang_vel,max_imu_ang_vel,mean_imu_lin_acc,max_imu_lin_acc,wind_speed_cmd,wind_dir_cmd,hover_height_cmd,gt_safe_to_land,label,success,onto_wind_condition,onto_gust,onto_temporal_pattern,onto_drone_state,onto_tag_observation
1,NaN,NaN,NaN,NaN,NaN,0,0,0,NaN,NaN,NaN,NaN,NaN,NaN,NaN,NaN,NaN,NaN,NaN,NaN,NaN,NaN,NaN,NaN,NaN,NaN,NaN,2.0716688985117,-127.374480982322,2.31472368639318,unstable,unstable,0,0,0,0,1,1
2,NaN,NaN,NaN,NaN,NaN,0,0,0,NaN,NaN,NaN,NaN,NaN,NaN,NaN,NaN,NaN,NaN,NaN,NaN,NaN,NaN,NaN,NaN,NaN,NaN,NaN,2.42882567996652,-126.095851442396,2.10387515459019,unstable,unstable,0,0,0,0,1,1
3,NaN,NaN,NaN,NaN,NaN,0,0,0,NaN,NaN,NaN,NaN,NaN,NaN,NaN,NaN,NaN,NaN,NaN,NaN,NaN,NaN,NaN,NaN,NaN,NaN,NaN,1.87319628751653,-127.297520073929,2.02651962562808,unstable,unstable,0,0,0,0,1,1
4,NaN,NaN,NaN,NaN,NaN,0,0,0,NaN,NaN,NaN,NaN,NaN,NaN,NaN,NaN,NaN,NaN,NaN,NaN,NaN,NaN,NaN,NaN,NaN,NaN,NaN,2.46779887999601,-105.553838771394,2.18653196076212,unstable,unstable,0,0,0,0,1,1
5,1.8467484751368,2.5019702911377,-1.06006830037223,-1.49073618053278,1.8467484751368,-0.0300968360707554,0.0467186900955149,0.0555738746688648,-0.0621038533820965,-0.118822316615306,0.138034480160595,0.00890706293665559,0.153629051826817,0.156745997627907,15.3345139634627,0.82676976649509,0.895035909908332,0.199913188409857,0.240229865835961,0.272544791048066,0.618902770590618,0.15965610600941,0.0378745772076626,NaN,NaN,NaN,NaN,1.88084050141636,-125.058018224367,2.24878232505877,stable,stable,1,0.52381545956206,0.157613452289494,0.179298914241271,0.88651493262333,0.278868981756415
6,1.86084900031219,2.80215382575989,-1.04601259970998,-1.50838217804243,1.86084900031219,0.00485327749092178,0.00172252991174676,0.00514989433879476,-0.0634075668234877,-0.124050545224215,0.144744123735857,0.0094071127695258,0.191120292160532,0.192249761072669,15.0075150781312,4.52390548438194,4.60029151920353,0.044858856998325,0.190131726629,0.224285093968979,0.64998646845418,0,0.0381722396984752,NaN,NaN,NaN,NaN,1.9161886291726,-122.783489357006,2.14371711044229,stable,stable,1,0.534676352297784,0.212737733021178,0.141523454248516,0.905880452186952,0.300317736013787
7,1.86440854582168,2.71652388572693,-1.03275939833005,-1.53753378532868,1.86440854582168,0.00485928006187082,-0.00859818015879599,0.00987630015556475,-0.0579285136324912,-0.126222529809436,0.141484176549395,0.00913963945979719,0.124682756142993,0.127375404485154,15.1572990927347,1.46349342247405,1.57058128676032,0.18896723239092,0.24309686991876,0.173855666985288,0.769401693762116,0.15687790122832,0.0399869890803627,NaN,NaN,NaN,NaN,1.96867067391655,-123.586570068552,1.92565022650586,stable,stable,1,0.522650693116145,0.193536606507202,0.200386198863302,0.881677225374842,0.322730814673205
8,1.84181925631661,2.72631096839905,-1.06026960227991,-1.48749015525322,1.84181925631661,0.00705219433040063,-0.0044020882085493,0.00831335224019671,-0.0620284303100027,-0.119270703578056,0.13783467770769,0.00890448667231632,0.145154775669804,0.147838546221129,15.169320437764,1.58688048713532,1.51697404564576,0.19015098424357,0.240237741339795,0.159017621609471,0.547453828094162,0.159667536506773,0.0360598849452916,NaN,NaN,NaN,NaN,1.96461919299708,-125.030810267647,1.97049002224363,stable,stable,1,0.520719510928656,0.200534749795917,0.204396884870767,0.880537079406363,0.329325501506902
9,2.61304210216407,3,-0.80342283200924,-2.45316369821412,2.61304210216407,0.00835693658236133,0.00532480070804876,0.00990918218734753,-0.0425144234451069,-0.313467093860258,0.318439020637835,0.0205929299856304,0.194232109196152,0.196773715066542,15.1349086411263,2.61377182898875,2.05339667331691,0.0461665522892512,0.200995276374437,0.268010909535525,0.611130381292965,2.05495773646622e-11,0.034981770255388,NaN,NaN,NaN,NaN,2.98365709536118,-106.900241715489,1.60605239252847,stable,stable,1,0.73616597025706,0.0888822104140979,0.0660499699868239,0.940246114194401,0.280884040206433
10,1.86671962446839,2.56046915054321,-1.10752495900027,-1.4877706642301,1.86671962446839,0.0030531699129763,0.0112107679365487,0.0116190862052337,-0.0662700715949587,-0.117761590122811,0.13801712338207,0.0089092477477998,0.116176680226704,0.118830768503848,15.1927533069304,1.28248419488238,1.14723887890726,0.18843034382828,0.240715303239989,0.180364402777167,0.588776115181598,0.156877810733804,0.0414028833934839,NaN,NaN,NaN,NaN,1.92399487038037,-126.353098118705,1.83309445894708,stable,stable,1,0.521558053559006,0.158223809171128,0.17971335090119,0.886694146791798,0.319838043210148
11,1.81752830516291,2.78970646858215,-1.10314027104643,-1.41633927216843,1.81752830516291,0.00640561673850978,-0.00614215092862244,0.00887456724751433,-0.0696172181737236,-0.111585841135761,0.137224426952461,0.00886621561672874,0.174903920483034,0.177576299681554,15.0537086194381,1.68342779952777,1.55017294577222,0.189443355468572,0.240815785044523,0.171020601957535,0.536214667768853,0.156855378449503,0.0393781822126257,NaN,NaN,NaN,NaN,1.90759543141243,-127.844704273722,1.73029209151372,stable,stable,1,0.52018947464642,0.220367090764707,0.216253094978346,0.879871459266928,0.323990843574429
12,2.63264532857293,3,-0.785868265572574,-2.47779563343549,2.63264532857293,0.00474461366557012,0.00293070656231269,0.00557677324174987,-0.0416305596578826,-0.319604662636938,0.324418271551002,0.0211169512689846,0.198814287403015,0.201405221768577,14.9938537914785,5.01168760808655,4.66066619317596,0.0434878853970146,0.198718097178944,0.259718532820828,0.683450061924894,1.36092182444769e-15,0.0498199367489724,NaN,NaN,NaN,NaN,3,-106.299635778902,2.28825414924715,stable,stable,1,0.742319798639831,0.0836772094987443,0.0683226663352371,0.902258991720144,0.284569540968521
13,1.92720991964559,3,-0.985282301467553,-1.62576321588798,1.92720991964559,-0.00152491716510647,-0.0146001524691193,0.0146795716722923,-0.0578240681397037,-0.146271224719686,0.162344217957718,0.0104857898045188,0.184724618830857,0.187770854563652,15.1786115125666,1.59648216715194,1.5134785525131,0.190297177734598,0.242333501364908,0.170742233010939,0.547466384291859,0.157290941661543,0.0422292776085261,NaN,NaN,NaN,NaN,2.02726066309477,-121.319262228342,2.27184833209116,stable,stable,1,0.551476816151553,0.24406902288633,0.231704599863261,0.88041600547819,0.324114563106249
14,2.67273482420201,3,-0.756061186231899,-2.52507479294828,2.67273482420201,-0.0283129508138139,-0.00495691753936193,0.0287435943346945,-0.0351490323823187,-0.328939428787869,0.33257660232712,0.021564603476989,0.2025485191196,0.204655247967397,15.0356604279321,3.5599430352901,2.86206886776014,0.0767142629378575,0.243247714190578,0.293615163001024,0.694465940180458,0.00188631373551168,0.0106721142761779,NaN,NaN,NaN,NaN,2.96211416560549,-104.652706865072,1.749859929656,unstable,unstable,0,0.753660336047348,0.078904323515909,0.0520617245974739,0.911184203578534,0.269504371999545
15,1.73107305009856,2.3821280002594,-0.913319074046754,-1.4524674769538,1.73107305009856,0.00704846265860429,-0.00438143256298977,0.0082992636512986,-0.0466445293525594,-0.11316663285152,0.125202750199382,0.0080803199827573,0.128555758396129,0.130900815046451,15.2501456790747,1.23255628394743,1.22862219680184,0.189167920238414,0.240229801122509,0.198520580136123,0.472568485105685,0.159662589836486,0.0337633527507116,NaN,NaN,NaN,NaN,1.78867162897179,-121.8764556945,2.27166207767273,stable,stable,1,0.487799643035574,0.148008895455593,0.172044071130234,0.88607820896062,0.311768631050612
16,1.76679912989572,2.5096538066864,-1.00123282796919,-1.44020605257342,1.76679912989572,0.00422443064432378,0.00338094971471343,0.00541078878188039,-0.0545073395751199,-0.109103440569047,0.12452465368822,0.00808128265135067,0.119724411342077,0.120761343020599,15.072373451966,3.74622517513842,4.16618178982025,0.0369879865545421,0.188539652373542,0.255243712806485,0.75259400262691,0,0.0283058958192243,NaN,NaN,NaN,NaN,1.79698325918466,-123.928221238646,2.1783669295956,stable,stable,1,0.495298703242977,0.168134280221249,0.111173621157922,0.919337094855197,0.286558349863784
17,1.82468829218668,2.7294499874115,-0.975432373970517,-1.51130875545992,1.82468829218668,0.0160916199568871,0.00314001645090794,0.0163951192782749,-0.0567584276962832,-0.125826111392922,0.143367972043045,0.00925818689242209,0.172578486791962,0.175443664392386,15.3106665011001,1.45238779323257,1.43035082240688,0.18901340868367,0.240502320260674,0.188592275682796,0.480238779683259,0.159678733087829,0.0353832732479165,NaN,NaN,NaN,NaN,1.90606506718967,-122.683382350962,1.98191383279669,stable,stable,1,0.521672277461592,0.206577153293268,0.207781262610198,0.882843206535283,0.316181210807646
18,1.79734356385289,2.60717248916626,-1.01294118592265,-1.47168290203427,1.79734356385289,-0.00122208776872146,0.00313963497252323,0.00336909576520905,-0.0557274673764554,-0.114969215416712,0.130036007090274,0.0083973305003462,0.12639715013635,0.128886555447309,15.1500219447886,1.15362649545331,1.50769839119645,0.188351205504693,0.240228572985712,0.15681495202783,0.640329828000963,0.157328206829464,0.039174104990344,NaN,NaN,NaN,NaN,1.87952489310621,-124.36494621675,1.8233979729586,stable,stable,1,0.505068928116899,0.182829175752464,0.193866282018638,0.884913987423977,0.330304465765409
19,2.62547468339037,3,-0.768731482533377,-2.47802848598166,2.62547468339037,0.00699016189506116,0.00486601663413483,0.00851706998931216,-0.0395581629510956,-0.3201046983374,0.324396832864767,0.0210294750940391,0.19507542190492,0.197703557670208,15.0315701152067,3.64290022869648,3.19427301729694,0.0379240308699762,0.21582601140317,0.225549307413737,0.698484252459505,0,0.0270512569736767,NaN,NaN,NaN,NaN,3,-106.031594526481,2.06315447237199,stable,stable,1,0.739667293771473,0.0858296590685411,0.0613346161588253,0.927317337632206,0.299755863371672
20,1.90472897773481,2.5878894329071,-1.00568821339323,-1.6019853913754,1.90472897773481,0.00259045738974955,-0.00401682352171388,0.00477967997806359,-0.0550739609532542,-0.136440877527728,0.149641722864891,0.00966805372767617,0.125838716680663,0.12860018983315,15.187388192774,1.70895634492119,1.67150429048061,0.188136224038244,0.242106388393836,0.181429786195878,0.507432527070347,0.157031284268108,0.0405980609044001,NaN,NaN,NaN,NaN,1.95533603544456,-121.682915799118,2.17158130910893,stable,stable,1,0.533647765362578,0.154587377076412,0.177307039380748,0.879371125845578,0.319364539468499
21,1.89606980302117,2.95611262321472,-1.02130457115582,-1.56498545224438,1.89606980302117,0.000767591254869542,-0.00916344203356725,0.00919553512510823,-0.0615593270416916,-0.137304713028462,0.156292165772163,0.010093823226464,0.190382318407795,0.193394676218001,15.0963372962767,1.32472196676313,1.45293194531226,0.187649168336812,0.240312138829891,0.211383756757682,0.716241930669934,0.156921941545427,0.0390108130768903,NaN,NaN,NaN,NaN,2.01006102178809,-122.843348050567,1.5,stable,stable,1,0.544297549382579,0.240195482649819,0.228046124930971,0.884350992236716,0.306051663663252
22,2.61620310288948,3,-0.741021487543025,-2.47831169888112,2.61620310288948,0.0022812447785309,0.00642259065661439,0.0068156986789327,-0.036988086640527,-0.319872195978068,0.323628659965403,0.0209789138349028,0.196229500880083,0.198732665330024,15.0506656749536,3.49010909834763,3.41350183028657,0.0424175698075765,0.209889672845932,0.268397379842603,0.69669692274001,9.0728121629846e-16,0.00212193622665536,NaN,NaN,NaN,NaN,3,-105.373889448931,1.87855597669664,stable,stable,1,0.737400693836532,0.087603846607672,0.0533339211379328,0.9245485577998,0.28071227562551
23,1.70483049957289,2.38967847824097,-0.825485756880663,-1.47379618730135,1.70483049957289,-0.0479084595111243,0.00536158770041083,0.0482075421007775,-0.038988663374452,-0.116469655523808,0.124989405453192,0.00806544963491412,0.137856109108789,0.139997749680142,15.344585950566,1.12034854762743,1.15177322782654,0.171379749729807,0.240193511303388,0.126723310365974,0.44539311051561,0.157028276197271,0.0424418908710284,NaN,NaN,NaN,NaN,1.75191981509009,-118.497538474994,2.29460925846282,stable,stable,1,0.482621016488798,0.162928844585461,0.182981066590033,0.89645773975653,0.343678528726234
24,2.63748411464084,3,-0.59703509535226,-2.53133934732245,2.63748411464084,-0.0222091884072815,0.00345549370263575,0.022476398431223,-0.0240629026420312,-0.329307089936863,0.331248704205306,0.0213706350711972,0.186471401580637,0.18884094800653,15.3736855109724,1.32550446309927,0.725566731573206,0.0693542861481716,0.24038801490394,0.178364323321037,0.452304118756335,0.00216619440204879,0.006469934928374,NaN,NaN,NaN,NaN,3,-102.185830974197,1.70992465789627,unstable,unstable,0,0.741097286838863,0.0856867472515358,0.0547275050288165,0.949207297539202,0.320726967412872
25,1.61579386825147,2.38341903686523,-0.808745396661937,-1.37353396578608,1.61579386825147,0.127976772590516,-0.0758059325162744,0.148743382129581,-0.0409052934676172,-0.111662732409116,0.122500984591028,0.0078993331712146,0.156878439382832,0.15982861455982,15.4721128285775,0.591513076904179,0.681545087048294,0.191660605343202,0.240223071348973,0.273438043319856,0.326101208600699,0.212958408771214,0.0286483223406158,NaN,NaN,NaN,NaN,1.79680657025774,-122.144595008979,2.31265497405896,stable,stable,1,0.462844087779022,0.199985282995187,0.225056923233431,0.894167097468772,0.27847198074673
