scenario_id,mean_wind_speed,max_wind_speed,wind_velocity_x,wind_velocity_y,wind_velocity,wind_acceleration_x,wind_acceleration_y,wind_acceleration,wind_body_force_x,wind_body_force_y,wind_body_force,mean_wind_body_risk,mean_wind_gust_risk,mean_wind_risk_raw,min_thrust_margin_n,mean_estimation_uncertainty,gps_dropout_enabled,gps_dropout_start_sec,gps_dropout_duration_sec,moving_pad_enabled,moving_pad_amp_u,moving_pad_amp_v,moving_pad_freq_hz,mean_abs_roll_deg,mean_abs_pitch_deg,mean_abs_vz,max_abs_vz,mean_tag_error,max_tag_error,stability_std_z,stability_std_vz,mean_imu_ang_vel,max_imu_ang_vel,mean_imu_lin_acc,max_imu_lin_acc,wind_speed_cmd,wind_dir_cmd,hover_height_cmd,gt_safe_to_land,label,success,onto_wind_condition,onto_gust,onto_temporal_pattern,onto_drone_state,onto_tag_observation
1,2.07824153994129,2.85498237609863,-1.2678640500387,-1.62868179962453,2.07824153994129,0.0068401528607128,0.0087743935598299,0.0111255414924714,-0.0881674847632278,-0.143306846412479,0.172447784104745,0.011133924199937,0.141388313908282,0.142349954539282,15.341775010944,0.321424291412202,1,14.9605102736682,7.42651472357787,1,0.0717747328300573,0.112032227880748,0.270226572149888,1.42272425208028,1.84822810388644,0.0687629651889014,0.279951773298726,0.158441405949893,0.466388593010524,0.0452894470009188,0.0734579902395859,,,,,2.1396688985117,-127.709262372896,2.31472368639318,HoldLanding,HoldLanding,0,0.5826677348922,0.176806370742355,0.152924462007691,0.939918177465811,0.329581597355603
2,2.28363437873801,3.0,-0.657503681695256,-2.15393103984698,2.28363437873801,0.0246229434202748,0.0006957323823175,0.024632770575513,-0.0313312131744159,-0.252753220935389,0.256633995342387,0.0165520845462909,0.224600099236532,0.226448190346677,15.4528033255324,0.143184152219465,0,6.2189873536618,7.1574781883574,1,0.177770268533196,0.102698689626387,0.09430841891252,0.919923034741717,0.917138490850555,0.0651485826752493,0.518389531254722,0.144493399473373,0.327562005555244,0.0071549578333632,0.0217601055791533,,,,,2.4078142646114,-106.948920050051,2.12617660841744,AttemptLanding,AttemptLanding,1,0.654258805732805,0.165698272722792,0.110511710558094,0.952991653818436,0.335780711345167
3,1.91566480802057,3.0,-1.17379508462606,-1.48016246366521,1.91566480802057,-2.83098991650881e-05,-0.0005847571739951,0.0005854420577047,-0.0788315126650046,-0.114481233579976,0.145858164925069,0.0094066610080253,0.203772155852553,0.204313483058068,15.3811449120063,0.223871413491191,1,7.17205575708916,8.47009739487211,0,0.162319298846906,0.13371938188019,0.102845105165089,0.612744078045962,0.862205134582183,0.0738755591839239,0.729030721704101,0.110343878685982,0.28237846242022,0.0862699427203608,0.0841812267204445,,,,,1.93938346389085,-129.159046213467,2.01796587186268,HoldLanding,HoldLanding,0,0.551706645417098,0.244082749239285,0.215403201479247,0.951473333737388,0.350958276139564
4,2.53862942755222,3.0,-0.805860242033399,-2.37219377965408,2.53862942755222,-0.0276416368623291,-0.0006160116426741,0.027648500117959,-0.0410313030362879,-0.297779409021229,0.302884816533497,0.0195417958231637,0.221768904422407,0.223556435427216,15.4089825384407,0.126975945643324,0,10.2512809450926,4.92402500552943,0,0.0749863075790382,0.108182504138679,0.100013706254009,1.30398650126629,1.00127498668511,0.0780422519726819,0.251889164111095,0.10496562684119,0.385028281734891,0.024606213127714,0.0174271659808399,,,,,2.6973243686687,-107.092406890338,2.16026872185844,HoldLanding,HoldLanding,0,0.721679134432703,0.108877270489042,0.0825996082826138,0.942866105179755,0.353348610292805
5,1.98795226595619,2.7615110874176,-1.11349424405973,-1.62257685886529,1.98795226595619,-0.0055089346947475,-0.0029499714174726,0.0062490553554036,-0.0693846719395114,-0.134265358898529,0.155637044115471,0.0100408057631424,0.16487585258823,0.165857397414129,15.3816479540992,0.266539613923277,1,10.7598084786485,6.49442889424177,1,0.143135313117025,0.137845983550758,0.125732272534333,0.798100488126483,1.25605188619024,0.0495575899607875,0.251264720255959,0.226579488167999,0.433817546191062,0.0251648422935392,0.0188730705584846,,,,,2.00200400724988,-124.398868862931,1.53317915117671,HoldLanding,HoldLanding,0,0.563292083737808,0.17519639497731,0.12316514608761,0.959081436364261,0.299298005258667
6,1.96135132744808,2.78696274757385,-1.15996366233141,-1.55691520179329,1.96135132744808,0.0096323439040179,0.002351519586935,0.0099152253354631,-0.0742978137709365,-0.129200946066958,0.153873409129218,0.0099288563821725,0.161841434007227,0.163069866699308,15.3807348547309,0.251147441503978,0,6.69689575467517,4.33171480335032,0,0.13604948873247,0.121123391167539,0.128895485847652,0.667089065494888,1.39006209737386,0.0299071601348719,0.39202270998957,0.148143824723063,0.420169593707748,0.0031343331416238,0.0050396349102051,,,,,1.99661919299708,-125.85580820349,1.76358257939318,AttemptLanding,AttemptLanding,1,0.555640993992684,0.1875803608398,0.115773847968515,0.968883089367167,0.334158300123083
7,1.88423801064491,2.95218706130981,-1.08803720535118,-1.50336242468978,1.88423801064491,1.23530729056541e-05,-0.0093052061845497,0.0093052143841715,-0.0683492768713424,-0.11775650600463,0.142865683236887,0.0092232318841073,0.194497597303375,0.195280518182274,15.3263179699694,0.264930049489,1,9.24239191502991,5.37994051335929,0,0.0951499760216839,0.0318458642447956,0.196255900350864,1.72390934811027,0.963451466553514,0.0683830149400643,0.2501615747175,0.172034095697744,0.588009076008588,0.0242655865008036,0.0168769563884578,,,,,1.87426200826755,-126.596930639358,2.04827968131743,HoldLanding,HoldLanding,0,0.541519573141765,0.241994492370034,0.162118475583837,0.944693514700467,0.323540401912114
8,1.94273497424227,2.90248870849609,-1.14069939571031,-1.53601040008482,1.94273497424227,0.0094731247570274,-0.001199297452917,0.0095487385053094,-0.0770899703456015,-0.12810141487441,0.157087174924489,0.0101353972451277,0.210227757896599,0.210991416718044,15.3942464931577,0.287539829534185,0,11.6339735750819,8.0752815138699,0,0.160689639201185,0.144411213128908,0.181485639613678,0.762097711833675,1.42241124736535,0.0743370046649167,0.627567818385634,0.0946635660259756,0.398281998485773,0.029127235931493,0.017104484016558,,,,,1.95332820371371,-127.202212038542,2.2652047887713,HoldLanding,HoldLanding,0,0.560260943141548,0.217695192266417,0.149782365921282,0.945667498702406,0.357927303988455
9,2.5029992283786,3.0,-0.768368303969534,-2.34768657548592,2.5029992283786,0.0081937098707314,0.0054354376705115,0.0098326427838977,-0.0402051519970834,-0.290284148693051,0.295162277378359,0.0190564257637898,0.215391398984294,0.217643502657435,15.3605656649917,0.207886532846469,0,4.75928635088143,3.34609327185756,0,0.0974983174540677,0.0520185996006769,0.0924777890677263,0.951286958005754,1.99679082206278,0.0381250253773043,0.136501436203324,0.123017468226703,0.470253062863087,0.0028600286916623,0.0056463066456979,,,,,2.74487220964884,-106.758294244659,2.05560021209274,AttemptLanding,AttemptLanding,1,0.710995161432448,0.113627824791862,0.0715010211546959,0.957774019039381,0.345325569677021
10,2.05884175699668,3.0,-1.0549238563515,-1.72807067281999,2.05884175699668,0.0038648836345774,-0.0097771539088643,0.0105133279253739,-0.0680917736666235,-0.155792803621145,0.176979436743865,0.011420018174282,0.222800890313861,0.223683881393129,15.4001211069457,0.238245634237926,1,7.95483748720109,8.89215651361222,0,0.0599771297180769,0.10736350792543,0.123268464867045,1.34734443421869,1.01493513373192,0.0697014659477133,0.250377432034073,0.122855063898043,0.396637542474369,0.0243340605694355,0.0175640133292339,,,,,2.05126066309477,-122.211439927127,2.14399290035799,HoldLanding,HoldLanding,0,0.593761244811074,0.213688048128732,0.145414880846003,0.946588498992246,0.345397749378647
11,1.94822756795106,2.92889761924744,-1.08042281291504,-1.5852765985301,1.94822756795106,3.55026382609742e-05,-0.0123323995921563,0.0123324506947298,-0.0685239282417415,-0.12782615404372,0.151403267824226,0.0097650459887719,0.2049856645489,0.205776111403653,15.4171966169412,0.202038437356283,0,15.6886687046551,8.02405510432255,0,0.111154836965032,0.179801379263782,0.0538968361984989,0.675280159649104,0.846550062511985,0.0582377738090551,0.25078249178701,0.0690381795947004,0.338164423155657,0.0242833825349901,0.0152929585707378,,,,,1.94106924244638,-124.863664714484,1.81998279408864,HoldLanding,HoldLanding,0,0.560682573734346,0.222911710835719,0.150100716805331,0.958923875635635,0.369316364624578
12,2.56346419304111,3.0,-0.605351370770461,-2.45824048177434,2.56346419304111,0.0048456335057455,0.0057066606863435,0.0074863970146569,-0.0281833652029855,-0.316232509630965,0.31862515750482,0.0205629804656544,0.206923669378654,0.209415231784493,15.406042354848,0.19220254560623,0,4.19750482963761,7.11424859019757,0,0.0794913733546791,0.0789525823861962,0.0821455069121059,1.11418429219508,1.49361253498702,0.0387188388382564,0.147282610490356,0.0948199278699778,0.396695895889536,0.0023096572862065,0.0047723290330798,,,,,2.82179955786848,-102.658248237611,2.13990423355932,AttemptLanding,AttemptLanding,1,0.725473497834528,0.0995930626851041,0.062517744336153,0.960150748367298,0.357857809835565
13,1.8272898740473,2.55997538566589,-1.03054405063102,-1.48663563106883,1.8272898740473,-0.0057458801490785,-0.0082527343484593,0.010055981449556,-0.0582683633191628,-0.110940901962372,0.129200416860424,0.0083346046822895,0.147712520670089,0.148402260866357,15.3391847519328,0.137712970675365,0,9.06184727669754,4.57071842651326,0,0.0489997658505158,0.0431183410104084,0.235038911993338,0.611586851562942,1.01687323055848,0.0561870105107859,0.254327133154218,0.126379134675538,0.390851030069454,0.0243845201223408,0.017596198475347,,,,,1.81564992585132,-124.856492181276,1.76878492303823,HoldLanding,HoldLanding,0,0.516957751919219,0.166697836713268,0.117254884154178,0.959111451242225,0.343831495699761
14,2.67703376714131,3.0,-0.818407415174947,-2.51261601936137,2.67703376714131,-0.0267810471354969,-0.0064509348642729,0.0275470333483807,-0.0399440524488636,-0.324754955974789,0.329266970834582,0.0212422240966246,0.19930369911545,0.20141971778515,15.4051605637182,0.164951467453905,1,6.32006561570513,3.94134709935982,0,0.127526531840374,0.143343800345121,0.220484210106794,1.01173533199375,1.00334025708922,0.0649674829779915,0.399599305953883,0.130230981088544,0.392566817217441,0.0255615660080052,0.0180175263125013,,,,,3.0,-106.356863714422,1.81874341444432,HoldLanding,HoldLanding,0,0.754159614794712,0.0777176918404086,0.0645431388578035,0.951683521739638,0.342119563960647
15,1.865973163619,2.68445920944214,-1.0698596775157,-1.51241396928959,1.865973163619,0.0020520720684955,0.0018626653907912,0.0027713754946508,-0.0632840657910598,-0.121433169563698,0.140060142247606,0.0090397829654234,0.136939105818542,0.137695285339601,15.3455226598826,0.232442660610597,0,10.7236989220851,3.25300800983001,0,0.176410078414882,0.121944963353268,0.228300090917772,1.54311212459557,1.10839274824344,0.0731109677933967,0.251269502299821,0.138899368274076,0.437489381746941,0.0248168949501091,0.0172208582366029,,,,,1.89152489310621,-125.328378154295,2.22695493332854,HoldLanding,HoldLanding,0,0.525131900699654,0.184667445817559,0.128092328847328,0.942611263530995,0.338266947433744
16,1.83680977321572,2.64963340759277,-0.997196995786247,-1.52885769109608,1.83680977321572,0.0125187600632332,0.0020021297826202,0.0126778498645179,-0.055065727624642,-0.125948981692048,0.13971039714458,0.0090110377499287,0.141926684540324,0.142904772593898,15.3946017486156,0.123655355350818,0,15.6532044381624,8.2459884079524,1,0.141705228211246,0.149740361862563,0.263374776845956,0.631490710300964,0.876836125656043,0.040707131678476,0.494747409761681,0.174488048634702,0.434309514369059,0.0062377413734708,0.0262025274128973,,,,,1.91158907974983,-123.148647987168,2.22157699969434,AttemptLanding,AttemptLanding,1,0.518396894042973,0.185209590209998,0.123426275411827,0.967795294735386,0.322449756162355
17,1.92216820372476,2.73164391517639,-1.01755920011514,-1.60588827761494,1.92216820372476,0.0096471544135663,-0.0162841807947341,0.0189272853952906,-0.0606482839076476,-0.132113958849302,0.149157549333664,0.0096204480840753,0.152953790563641,0.153527706546041,15.4231535855907,0.285450314661347,0,5.55239065429799,4.37790035949541,1,0.0419348508641935,0.143270385653963,0.0807641684864029,0.680035044728398,0.954922460376887,0.078248861378433,0.346236185823083,0.146026726333612,0.346331450376239,0.0248395499086506,0.018440684428309,,,,,1.96200270211122,-122.666388364578,2.13958326411209,HoldLanding,HoldLanding,0,0.543283728969143,0.185602037399088,0.129106725827329,0.948029474627813,0.335099232740617
18,1.96929065378141,2.890549659729,-1.07969213584,-1.62299463775201,1.96929065378141,0.0081256618516147,0.0086584353941957,0.0118741266627171,-0.0670405897978562,-0.143331608107286,0.162812021560868,0.0105035805989846,0.16655817079834,0.16740103865216,15.4107532907747,0.182728461208174,0,7.48224911941822,7.60842249475229,0,0.148599785871491,0.0342569308729488,0.225225746109343,0.736421548769135,1.25986086157591,0.0797141901504713,0.251025371756826,0.088856977279328,0.365549290557224,0.0244587840127279,0.0167001129248256,,,,,2.01539435512142,-123.830694564799,2.44330939294467,HoldLanding,HoldLanding,0,0.558624382072142,0.209460199559706,0.142619458744448,0.944457828843482,0.360508010098076
19,2.62447903427392,3.0,-0.830770236221244,-2.45738954901103,2.62447903427392,0.0060904354030751,0.0049960834236133,0.0078774521880323,-0.0444051577067367,-0.314556643620763,0.319922009789373,0.0206555435803137,0.195853796707987,0.19841891777248,15.2406922101293,0.363630180656007,1,4.95023379547793,9.12956715815291,0,0.153892224444154,0.101769482293668,0.177564826854585,1.90315383985524,0.907013679562489,0.0366026482157869,0.13206847258718,0.156251501744917,0.544329792197266,1.07634239505001e-08,0.0143162406617971,,,,,3.0,-107.357187901088,1.94564070736513,AttemptLanding,AttemptLanding,1,0.739544859360874,0.0859364168561741,0.0567677605926474,0.959618788239539,0.33055488811337
20,1.72614049456887,2.61766457557678,-0.833145634381743,-1.49123778588473,1.72614049456887,0.0062460621184782,0.0064375233152906,0.0089696710320278,-0.0410310005946099,-0.120436368758544,0.129990327329759,0.0083892014144618,0.149197273203889,0.149810645155706,15.3737222679145,0.279496328568403,0,6.92363746227571,3.54687205458591,0,0.112937220479804,0.0449197183035822,0.177178326074291,0.897758658619553,1.44791224006364,0.0761167566633545,0.251630209666224,0.102138690670504,0.365970743498549,0.0246650880238515,0.0184131532987633,,,,,1.75292430226957,-119.550273636708,2.31949295273577,HoldLanding,HoldLanding,0,0.490266260916174,0.202237357915985,0.139000368202166,0.943511350321526,0.354605026368665
21,1.8368244863881,2.78255152702332,-0.952443789542899,-1.53707049519102,1.8368244863881,0.0002484225732926,-0.0083925021692705,0.0083961780850653,-0.0549807823595311,-0.121056395056114,0.137944726066804,0.0088978839824184,0.189090438998971,0.189864490142105,15.3945031567789,0.24300506489901,0,14.3347872835423,9.86496204579035,0,0.128149397835755,0.125574208758479,0.229937359151298,0.6269456311303,0.940927693876867,0.0545098623760854,0.251440990844247,0.135025701553223,0.349859226819919,0.0244899532338521,0.0175678989702475,,,,,1.82710314960735,-122.310740141076,1.72723968843294,HoldLanding,HoldLanding,0,0.527792761065248,0.214327883458519,0.145869480632873,0.960426064115472,0.339988577087456
22,2.62065274579868,3.0,-0.669213748032837,-2.50074738862934,2.62065274579868,0.0082884366563994,0.0032438916377386,0.0089006188079558,-0.0324482006515891,-0.325379905758769,0.328390338006728,0.0212110649795186,0.193734030150258,0.196237522956221,15.2427074317413,0.272337462226286,0,8.74826966427752,9.60938543279203,0,0.0860139329207215,0.0662109808983654,0.268506260567157,2.27265875380955,0.930438074035928,0.0409387700509435,0.138596928554281,0.174659597365463,0.580792114429486,2.1766328082304e-07,0.027981622944398,,,,,3.0,-103.513196987454,2.03441361424071,AttemptLanding,AttemptLanding,1,0.738088236804225,0.0869849123100892,0.0623661797414342,0.954363425612885,0.322373512282016
23,1.86772240882224,2.7109649181366,-1.03611002524909,-1.53009679290013,1.86772240882224,0.0061452903141794,0.0024323475617686,0.0066091533275291,-0.0611333529182659,-0.124801510920526,0.143314150656223,0.0092462335823242,0.156393411528082,0.15714626427627,15.4157868735715,0.266693938672969,0,15.8789210693332,9.91780150452152,0,0.150787371826449,0.135711000630942,0.254059561533415,1.06067888452997,1.13226655283768,0.0733726378238224,0.251869556397568,0.110065065619028,0.377076084510737,0.0246063953675463,0.0161405786878171,,,,,1.88087930278733,-124.632218690049,2.23692388483421,HoldLanding,HoldLanding,0,0.529488561874519,0.190941242705777,0.1313702226834,0.946083395508772,0.35108219305821
24,2.6676741149819,3.0,-0.686474746757377,-2.54336293554063,2.6676741149819,-0.0242826818128362,-0.0064771417250536,0.0251316931572442,-0.0328475795726056,-0.333405758408058,0.336518623898969,0.0217171539686638,0.201370023785741,0.203392187807425,15.3167662217848,0.182439772931002,1,5.56909388267749,4.01831242271538,1,0.0323500726531501,0.1387904353709,0.137274889675185,1.46657205581401,0.881577728082424,0.076635955955727,0.311562169439989,0.138192148541923,0.411491822062578,0.0253476057359229,0.0147443017967317,,,,,3.0,-103.635733958443,2.12250761992767,HoldLanding,HoldLanding,0,0.752058201556659,0.0793808012079003,0.0642556475637599,0.943232273720093,0.338581267314701
25,1.74126394180691,2.42409253120422,-1.01528260051776,-1.40015487215025,1.74126394180691,0.0013880944635034,0.0016023851189671,0.0021200104502328,-0.0568600871332877,-0.100957557612039,0.11832020865503,0.0076319764207113,0.115788463317797,0.116454143302881,15.3817574059272,0.161585668246394,0,6.92046973850269,9.96418578233627,1,0.1176580477037,0.10838221179308,0.11308780267691,0.580879538385708,0.94350456710317,0.0474017910872434,0.250143766033687,0.244716753636334,0.412621192580189,0.0247098499732553,0.0154739533343888,,,,,1.76072715108059,-125.424728650442,1.5316715445332,HoldLanding,HoldLanding,0,0.487627879809084,0.154025101196939,0.109024108383429,0.964321800770394,0.291236998383852
26,1.83317347274576,2.79220652580261,-1.06627008359726,-1.45942209647592,1.83317347274576,0.0072608329526009,0.0015138609037737,0.0074169717541292,-0.0657874218345739,-0.116577066846354,0.139672091541753,0.0090145700153749,0.196175524340027,0.197196498994438,15.4011240252618,0.26996757333469,0,9.51030739671262,9.53008581741586,1,0.162661896365919,0.11652274212299,0.180644740271359,1.09922853664463,1.31013817269694,0.0327422508908329,0.121416680600501,0.174258521735764,0.466404228913776,0.0029604774492897,0.0048117978582388,,,,,1.88801056126119,-124.747033688317,1.96719582644228,AttemptLanding,AttemptLanding,1,0.528285559197757,0.217142215092715,0.133350841486592,0.964698136124043,0.322551768117438
27,1.86697278366433,2.6965229511261,-0.983613879152026,-1.5654040645179,1.86697278366433,-0.0024381368647416,0.0006509508738691,0.0025235388666321,-0.0551510950295129,-0.126664692827474,0.141551663149422,0.0091302521947511,0.150514631659161,0.151317775582318,15.3965380420383,0.284519045528109,1,14.5699609652072,8.05781228278265,0,0.166747667079183,0.0405108603342452,0.207817172142831,0.635262770932335,0.897873928068273,0.0498956435722514,0.251311678275277,0.225721508955157,0.336719148021981,0.0248863717718271,0.0166359312676357,,,,,1.88786131788593,-121.743469379942,1.60388418054983,HoldLanding,HoldLanding,0,0.528122964093617,0.187111436471115,0.129376901110904,0.963006104150298,0.299679329353264
28,1.93513892928323,2.62208342552185,-0.993060517269432,-1.64547514013988,1.93513892928323,-0.0058839913741793,-0.008401738692948,0.0102572202645745,-0.0535346878656919,-0.136301342246647,0.148848331796358,0.0096044087058065,0.142129463369934,0.142910657862989,15.3914264433189,0.207135064294411,0,15.9454075164706,9.26322426304003,1,0.079345584341701,0.0526840734344096,0.216455684570506,0.687204683595527,1.41392654297613,0.0600116184535146,0.252094515336924,0.222559317073575,0.463774645482457,0.0244160343906924,0.0185374164577423,,,,,1.93366507970541,-121.303703794887,1.85383794495689,HoldLanding,HoldLanding,0,0.544619179381458,0.156443002035529,0.111458250773532,0.953485302564465,0.3010847479673
29,2.63073665202661,3.0,-0.576193027469411,-2.52861105345128,2.63073665202661,0.0060367287902067,0.0061052239454119,0.0085857937262749,-0.0277846530743922,-0.331934580198351,0.334262321127655,0.0215745058107778,0.202170959405878,0.204850128243461,15.3490910765962,0.343376550819205,1,5.57880973437995,6.49054560225353,0,0.122062623133654,0.154962011588323,0.179563775124019,1.63272330556238,0.856714417687713,0.0362482156329113,0.124593863435209,0.121994303236319,0.375333145083695,1.03294169155833e-05,0.0126120979797986,,,,,3.0,-101.47367915972,1.97543076508761,AttemptLanding,AttemptLanding,1,0.742499799522454,0.0846583154771638,0.0553857975854603,0.962316024358008,0.345780309672747
30,1.90959711490913,2.90681934356689,-0.859776171377101,-1.67328002230314,1.90959711490913,0.0025494762691787,-0.0043592513011269,0.0050500397180104,-0.046193706152713,-0.149524742939443,0.160765680483032,0.0103826843453352,0.20544146245391,0.206226231156741,15.2392861599393,0.31728298666087,1,13.4944697389281,3.85348598133564,0,0.149779747291693,0.0619853400367568,0.068023270463725,1.93071330650541,1.04997237113038,0.073625396659498,0.25090932730639,0.161466321479063,0.502267714475148,0.0245758412216771,0.0172103093794239,,,,,1.90418233211605,-117.468545924201,2.20908538651002,HoldLanding,HoldLanding,0,0.550471143540449,0.225300842062966,0.152361395656093,0.939767628488827,0.32823719045375
31,1.97643305648837,2.70191073417664,-0.980290334704955,-1.69024693544371,1.97643305648837,0.0021013371150662,-0.0131117765283973,0.0132790926422624,-0.0552704259413017,-0.141367695433126,0.15532060583939,0.0100324636939032,0.15823378877357,0.159084490468387,15.2854339412733,0.21387805431042,1,12.6558105535979,5.20703658140414,0,0.166423653300043,0.0644049197806502,0.233565355258848,2.05170919419341,0.853784731365378,0.0674993814822951,0.250454911342748,0.186004712735438,0.526881798575603,0.0242694020012396,0.0199882105887361,,,,,1.95361636761473,-120.978689808246,1.96596411934204,HoldLanding,HoldLanding,0,0.558865713157243,0.165666977797608,0.11745502778209,0.943421428415176,0.31733123878425
32,2.47598185645391,3.0,-0.562648841708973,-2.37899713604455,2.47598185645391,0.0116674553036679,0.0223177872604174,0.0251835887328303,-0.0261078835066709,-0.311475326860642,0.313817097176178,0.0202429401168428,0.193959440783238,0.195751385098779,15.4098936521985,0.205367297207448,1,12.6397435679382,7.44971241832351,1,0.0473894450674606,0.12737717049846,0.159802048895112,1.02677216812876,0.764515378901582,0.0675819546706158,0.383375408520385,0.250079858093408,0.397070266444492,0.0274606994222101,0.0499338684019066,,,,,3.0,-103.063417072898,2.1648875585496,AttemptLanding,AttemptLanding,1,0.699412105407465,0.122521073565556,0.10387516976606,0.952134620509454,0.28885339640293
33,1.83249455265556,2.67794394493103,-0.835166083781787,-1.60833323423022,1.83249455265556,0.0052976431201541,-0.008817304952993,0.0102863934040358,-0.0413962590006484,-0.130931248839417,0.139768465207996,0.0090184806190931,0.14863199220711,0.149366488241926,15.3696923902153,0.162032426905112,0,12.6349265233411,7.8339553164898,1,0.139123679813121,0.0462793890305875,0.258052308643637,1.2647264190597,0.907351870360875,0.0754455420037798,0.252225854290842,0.1453862050266,0.39046378076008,0.0245431822091748,0.0153793582137179,,,,,1.82477587595629,-118.302001637458,2.07627657990669,HoldLanding,HoldLanding,0,0.518538511689868,0.192111952052721,0.131767746109385,0.945210899581234,0.335383908877067
34,2.63603834675165,3.0,-0.607794420933603,-2.52623475882313,2.63603834675165,-0.0222354686707423,-0.0042605369113257,0.0226399700039627,-0.0254577322488311,-0.32903625625247,0.331181657156436,0.0213687030734485,0.204745309688044,0.20679200655825,15.3669910378398,0.16353169715352,0,5.85994510250561,4.82158726145927,1,0.0991024706556357,0.105336004206337,0.266877254065137,1.10838491320033,1.18394532420047,0.0543451025302923,0.25047040719967,0.189932537554846,0.345640506792921,0.024564534582462,0.0142373129656404,,,,,2.95266872258167,-101.961285859905,1.58076232641994,HoldLanding,HoldLanding,0,0.744301960445424,0.0860420331482714,0.0677199955292798,0.954816282583848,0.315585538864513
35,1.9346911725442,2.72121644020081,-0.903367430126121,-1.68526903207494,1.9346911725442,0.0037951562719152,-0.0013962327442762,0.0040438443348436,-0.0491682387758069,-0.145339876405329,0.156453765007837,0.0100933345475401,0.159246811869587,0.16011016921371,15.3880363955976,0.286158096012192,1,7.14964971903407,7.06126879096303,0,0.0645270221482786,0.149767357182748,0.0538807713174421,0.684131206552755,1.0963424255179,0.0522154687275459,0.251578309937292,0.228991101461672,0.388206855164817,0.0246717066202653,0.0187967861400193,,,,,1.95785632669367,-118.543232805973,1.6318250726793,HoldLanding,HoldLanding,0,0.547939679854528,0.177709556684125,0.124426131912822,0.959902829955672,0.298226177128146
36,1.76191092135515,2.66064977645874,-0.868631275920869,-1.51383987066645,1.76191092135515,0.0047297014055534,0.0029896309961746,0.0055953524356364,-0.0427349471956792,-0.121298565335733,0.130990370471789,0.0084505139528547,0.140992424088467,0.142003144495018,15.3917012126803,0.182750200836855,0,15.428892980347,7.6023864679563,1,0.0896924099785219,0.123382034551131,0.0596451828423535,0.665231852400861,1.20666651808421,0.0301305653477065,0.104570074736905,0.166174512951154,0.398317188659263,0.00315699438526,0.0049643723393978,,,,,1.80194750046987,-118.644695572194,1.83101040820669,AttemptLanding,AttemptLanding,1,0.498243541260378,0.203242057011507,0.125153569127811,0.970226944415193,0.326144660910598
37,1.98738224579417,2.98951745033264,-0.791950671591079,-1.78776491182825,1.98738224579417,0.0018363867599193,-0.0149419992922377,0.0150544232430618,-0.0412027324566756,-0.162355516283833,0.17088169735749,0.0110233978807722,0.207179133485622,0.208042436676015,15.3954564139675,0.287957859192605,0,14.5304875348557,9.54011089865115,1,0.0601713624031257,0.140954706361157,0.219636426708882,0.763150495706247,0.935487027205315,0.0603187187730595,0.252382374069141,0.143056907223568,0.413340412938174,0.0242010728334344,0.0153844659507867,,,,,1.94925992751377,-115.036005485037,1.88959255177126,HoldLanding,HoldLanding,0,0.571577086213647,0.228240398615718,0.153294622794678,0.956494202933451,0.336419152345081
38,1.9676862852914,2.7101674079895,-0.761758579159605,-1.80027203967063,1.9676862852914,-0.0025427009891857,-0.0059627076422964,0.0064822226703428,-0.0330075908510468,-0.164042631344813,0.168540071696192,0.010870138166628,0.138249204611429,0.13912964529866,15.4056102525585,0.241100804959575,0,14.0043948628884,6.57050911304422,0,0.101518236808092,0.123579318222343,0.277222996331205,0.790916644164588,0.706188394012031,0.0582137739657386,0.250343391821825,0.0751681087639295,0.373818595350061,0.0242822452813629,0.0158213355394209,,,,,1.95556734378663,-113.09173062844,1.83473825303721,HoldLanding,HoldLanding,0,0.552542271804105,0.168246660096636,0.117493317995346,0.959130144860029,0.366591951660476
39,2.60920674226754,3.0,-0.548014989482763,-2.51756477598664,2.60920674226754,0.0057560804877688,0.0052417553095252,0.0077851436278728,-0.0249255533121711,-0.33126478263776,0.333125754816164,0.0214964345228236,0.20383701591588,0.206400035346306,15.387256594532,0.28134097825145,0,5.70616033668928,6.60671463507002,0,0.051069816975677,0.0748076316057972,0.139558111006709,1.04803733057656,1.32542184651885,0.0219927279245241,0.0797275892514624,0.248214399524671,0.360910302695884,0.0030989190915696,0.0045221285855169,,,,,2.97839668406099,-100.746107780264,1.5568035357127,AttemptLanding,AttemptLanding,1,0.73706847167394,0.0893557593215791,0.0566351633617119,0.970355028217703,0.289682489100146
40,2.1192288234133,3.0,-0.356057577454908,-2.06732828554196,2.1192288234133,-0.0003889936490204,-0.0003596510981852,0.0005297782285108,-0.0124001244900057,-0.220482925201512,0.221220856822244,0.0142731444133529,0.176284926782788,0.177522117063307,15.3843479469413,0.175641384777099,0,14.1992608328079,7.73487628620496,0,0.140104145130376,0.0428619024245642,0.0681469439244885,0.864727271466799,0.999912840025656,0.0539305105790674,0.251963855421915,0.23189963516396,0.381747892440242,0.0242930535536215,0.0162412343818589,,,,,2.14315727359721,-99.704949465741,1.68989566581316,HoldLanding,HoldLanding,0,0.600632109656207,0.198270640740569,0.135665200546425,0.958384000977311,0.296933495482684
41,2.07950738723704,3.0,-0.310708681063821,-2.02184287550327,2.07950738723704,0.0073438063534804,-0.0106772437886494,0.0129589747541876,-0.0132346885179321,-0.207753702766107,0.208702504222623,0.0134626068450466,0.209682482559617,0.210808179268621,15.4087867765373,0.232083315427446,0,13.7813887463413,7.28088477231851,0,0.0589679513373073,0.169896100099931,0.103797153856205,0.856905750054635,0.847770252375158,0.0579302838123153,0.251152417940628,0.155453039543773,0.374613739393101,0.0247801010188395,0.017495347565138,,,,,2.06610024186884,-99.4944295849637,1.81919474438271,HoldLanding,HoldLanding,0,0.596696939116936,0.209486649909933,0.143067312745696,0.957640975217608,0.330909760202767
42,2.61651010258142,3.0,-0.701066442103531,-2.48868599658689,2.61651010258142,0.0044985457544208,0.0052391607158155,0.0069054846977429,-0.0343433740831893,-0.322331639524668,0.325615371452367,0.0210127938267336,0.191352608627846,0.194016090943022,15.3925773785021,0.208573066137503,1,7.62794008226007,4.3623630535985,1,0.161771905812132,0.0961094738477564,0.133400846178674,1.1050357463926,1.35871916283711,0.0350001115665085,0.112179516993667,0.155593406242678,0.470949271971818,0.0028757679710026,0.0052881907467211,,,,,3.0,-104.488379335247,1.99209104065102,AttemptLanding,AttemptLanding,1,0.73653924554365,0.0875512324471001,0.0557318370198366,0.963141869929941,0.930847375003254
43,1.89271961182422,2.61276602745056,-0.303403245148254,-1.85508242257533,1.89271961182422,-0.0026504864705324,-0.0040229236460392,0.0048175712960305,-0.0077654695574108,-0.175334737964135,0.175680348775992,0.0113301062844619,0.132258515149472,0.13325463998429,15.3878944274574,0.323406084476419,1,6.38127432778523,8.3815402615575,0,0.110387310935734,0.152293321634219,0.132644346540726,0.774096498753949,0.506733734396745,0.0541558380615869,0.253086094721405,0.235191970563593,0.305663149981415,0.0252907830129731,0.0164933323722633,,,,,1.89634686321448,-99.0299435298773,1.7049478485615,HoldLanding,HoldLanding,0,0.531376157816651,0.162893664920199,0.114974122365981,0.962858414851594,0.29547023530507
44,2.62306411655582,3.0,-0.668596628996049,-2.50026043783733,2.62306411655582,-0.0247981072653853,-0.0078403830514482,0.0260080320351039,-0.0285223580682801,-0.321341138017677,0.323896850305895,0.0208978470495316,0.208073508702478,0.210183392546805,15.3710836344713,0.290776744397925,0,10.4202419566474,8.64677860008718,1,0.0630705644411011,0.0346233707516087,0.103876972934184,1.01131192547016,0.992023276190508,0.0584656145458015,0.386410145075799,0.247946640085086,0.389088165420681,0.0244929136497576,0.0174096566693158,,,,,2.84909439858493,-103.288186023973,1.6477238492967,HoldLanding,HoldLanding,0,0.741520442924245,0.0895787129813768,0.0709637514321059,0.955026701856908,0.289801493295517
45,1.78633471527847,2.61801195144653,-0.255688834730365,-1.75041737282067,1.78633471527847,0.0009220106500254,0.0005838611653604,0.0010913283186908,-0.0072092552391759,-0.162109228971713,0.162492052919236,0.0104848677928848,0.146888708817217,0.147788448181605,15.3985332171578,0.320669786134423,1,6.0959003919366,6.33020989504512,1,0.11462830935767,0.157170063314917,0.0784975024400664,1.01064645904113,1.20087747871546,0.0748364241445624,0.254369172336593,0.160297088163091,0.430542327594662,0.0246010384750676,0.0154932239031347,,,,,1.79227934712189,-98.4873526901086,2.28118570843597,HoldLanding,HoldLanding,0,0.50591361371058,0.18732745499624,0.128964167476692,0.945205528416774,0.328756849705293
46,1.82111269773847,2.70936560630798,-0.250756811177366,-1.77903839866626,1.82111269773847,0.0040160364118955,0.0065189428417146,0.0076567071404888,-0.008044528012105,-0.171266068706565,0.171712715434973,0.0110774950125299,0.197825111511867,0.199198768466042,15.397928582635,0.160667198676101,0,11.6661627032824,5.47367366803303,1,0.130682209899765,0.160637465379647,0.130793413577951,0.921946821032005,0.966336744411149,0.0288356430806542,0.106987596138544,0.176249630417949,0.487345105160396,0.0030475733100721,0.005798471577807,,,,,1.88430874295808,-96.6306497925403,1.81773983139923,AttemptLanding,AttemptLanding,1,0.525469806423467,0.201260634070564,0.12421939258824,0.970745664731191,0.321666830925356
47,1.75250475540339,2.85652565956116,-0.178373246955251,-1.71873077053652,1.75250475540339,0.0071873711357675,0.0013202855691123,0.0073076301101842,-0.0057210331862838,-0.162662259109074,0.162979756898324,0.0105127449639121,0.189025440803801,0.189816010264557,15.3801044210966,0.186886003501652,0,9.11931175631078,5.8103320572318,0,0.161950411758702,0.127309785599602,0.123960859239644,0.942809502073522,0.83101993418174,0.0859584701497641,0.292493183955476,0.117857463673317,0.362375979545601,0.0541686313500388,0.0687866787099894,,,,,1.7942306129035,-95.9383136609595,2.2794704501006,HoldLanding,HoldLanding,0,0.505297803493816,0.249744435622364,0.198934946352826,0.943083533640255,0.347618905034081
48,1.66275244590848,2.64537382125854,-0.233497126032511,-1.62257220661178,1.66275244590848,0.009437234822415,0.0162179277788271,0.018763863742115,-0.0079730901394926,-0.149488113594407,0.150024871211543,0.0096774602923189,0.174216955277907,0.174764047213231,15.4370630015967,0.221913546694642,1,6.3014481896029,9.64383451167038,1,0.0897266770644893,0.119622168486481,0.19477423411996,0.773024277818065,0.700869743262648,0.065493756929454,0.403888630423585,0.259935317555202,0.374231598673352,0.02461387206748,0.0185752230095136,,,,,1.77505847970161,-98.1997036075808,1.80542607173531,HoldLanding,HoldLanding,0,0.478353461684908,0.224529851139819,0.152412035929463,0.955672525655353,0.284473192197688
49,2.62295969632956,3.0,-0.655030884693772,-2.50397973570392,2.62295969632956,0.0039211145708725,0.0065304899209098,0.0076172460958678,-0.0322374002016278,-0.327089250770107,0.330105143888221,0.0213111382322261,0.199394815938108,0.202001297368654,15.2918122100309,0.227090442666841,1,11.3910655146945,6.72508395662567,0,0.0404982818821167,0.0566995365006012,0.0616338481387173,1.86270017520607,0.964928444209152,0.0420190911508258,0.153081443712232,0.146550639160673,0.582896409174579,5.888728576039331e-09,0.0189810654043995,,,,,3.0,-103.17867703994,2.1393961946389,AttemptLanding,AttemptLanding,1,0.739856178494946,0.0862305634434255,0.0586405462848678,0.956773372414896,0.334866382595256
50,1.83794210562259,2.72872447967529,-0.178913725713963,-1.80887379491464,1.83794210562259,0.0026030211357816,-0.0097180060202487,0.0100605844781959,-0.005445228042186,-0.166555143105928,0.16680807661925,0.0107642726319274,0.155781115299821,0.156693820097926,15.3202774247116,0.21953828570589,0,5.49629477876531,6.56905286095343,0,0.161419424038251,0.0935677818238142,0.213970095653947,1.38201222697683,0.790788357875385,0.0649141707918571,0.250157134542326,0.124121352966116,0.477100068742941,0.0244468635876443,0.0162129074875037,,,,,1.82096079078944,-96.2053882192846,2.00112110587752,HoldLanding,HoldLanding,0,0.521456658852277,0.202270474649527,0.138123160218064,0.950470910008804,0.344834954237282
51,1.83439130111029,2.53200769424438,-0.116864779153802,-1.81096242012161,1.83439130111029,0.0028900876536917,0.0020390848131024,0.0035370147753503,-0.0036531763355683,-0.171507117854165,0.17164790282121,0.0110719478528293,0.152015234947369,0.152952584365547,15.4042280046828,0.256611604020445,1,10.2509417407218,8.03303568309743,0,0.177885731495675,0.0990570480511932,0.103261587619059,0.765192648926198,0.705603797300189,0.0519164866016062,0.251582699589089,0.246847185417619,0.350880609490635,0.0245833153480628,0.0181056367260893,,,,,1.8507515569247,-93.8235592237573,1.65169106139077,HoldLanding,HoldLanding,0,0.519761530502519,0.157612141163986,0.11207707053126,0.962485498907418,0.290290139814392
52,2.53006288279658,3.0,-0.539240030244949,-2.43938818617127,2.53006288279658,0.0089506680404286,0.006119803453086,0.0108428064943701,-0.0242130638290925,-0.312180314977696,0.314078944166572,0.0202696213584687,0.20811679654715,0.210620754973454,15.4019465340823,0.147950444775052,0,6.80425489160804,3.68877977987551,1,0.0657121786600373,0.177640013239018,0.192464900155408,1.0989396097138,1.7440321129938,0.0500855765672982,0.192460383930948,0.156729978219899,0.378871338188666,0.0021376162211688,0.0059173430160816,,,,,2.77719317437895,-100.961436075895,2.49468975391519,AttemptLanding,AttemptLanding,1,0.716807586407112,0.107723699228071,0.0677360322874525,0.95261957675222,0.330342231902267
53,1.75038144572288,2.58339619636536,-0.118846578362675,-1.72877477628784,1.75038144572288,-0.0019251117750804,0.0054649505050537,0.0057941124746798,-0.0031715982802306,-0.157544451661654,0.157665572938765,0.0101685306867835,0.142456154337609,0.143350479541356,15.4016508224143,0.296222187776657,0,13.2611542527233,3.08912340672838,1,0.153447754744153,0.0356476632689282,0.143300573131183,0.715223815844377,0.497357647645943,0.0479719941257131,0.251234246279245,0.244294967913132,0.297869529043477,0.0244619994941589,0.0159273411935471,,,,,1.7823160694897,-93.8829963932827,1.53716288852493,HoldLanding,HoldLanding,0,0.495438481434373,0.188490572848248,0.129758103918148,0.966486577152577,0.291424458705275
54,2.61906873322007,3.0,-0.577053435489763,-2.51479801742834,2.61906873322007,-0.0311283605567323,-0.0086554463337779,0.0323093110757075,-0.0241459317066829,-0.325789875006102,0.327728130724002,0.0211423614042017,0.211779491853185,0.213837836616508,15.4096772068183,0.130940891103945,0,12.2784674123485,6.2039911367491,0,0.0314638174498763,0.109811085207332,0.0744417997880328,1.02006771638009,0.944849566469471,0.0638114130572968,0.287442133701432,0.119728288974683,0.377030820453569,0.0240744003462189,0.0178961949497232,,,,,2.84178461070235,-101.224141607748,1.80656685277028,HoldLanding,HoldLanding,0,0.741185896181986,0.0916329087226984,0.0721871859752722,0.952655657677534,0.346787427122363
55,1.77269228175282,2.43998599052429,-0.0849584993317621,-1.75796153682358,1.77269228175282,0.0038382303735367,0.0086040752481876,0.0094213652554614,-0.0020494932281109,-0.16519231662048,0.165249371259634,0.010659389520528,0.123349613649952,0.124278292991853,15.4487451819716,0.182842563566694,0,14.8593843455615,5.64477155722336,1,0.0439114435975228,0.122482765281158,0.177697417209882,0.749736598088972,1.04499837582653,0.0804495202341993,0.250669451620966,0.107029958785321,0.28334430314882,0.0245731069656144,0.0169290718097,,,,,1.81268753267023,-93.1526665262232,2.47047836498324,HoldLanding,HoldLanding,0,0.497573600399124,0.151868334770415,0.108198407848473,0.945673750802136,0.352431129428746
56,1.69813526035551,2.44607901573181,-0.223565270129053,-1.67206762812316,1.69813526035551,0.0022993736326089,0.0023497669423182,0.0032876319419224,-0.0046809651379051,-0.146605110562176,0.146768722885663,0.0094681438195041,0.120624356598442,0.121832750045581,15.430259557815,0.236565743103306,0,9.37033651412334,8.28441071852861,0,0.120776611671993,0.0443718292468302,0.170989857565906,0.761030520761211,1.26188505295461,0.0487279635885364,0.333874661863642,0.0804737552292005,0.387471194651974,0.0029164177096237,0.0051789990050989,,,,,1.7288427871229,-96.8513027264581,2.4281168665997,AttemptLanding,AttemptLanding,1,0.477202619437253,0.168890077482353,0.104513504503624,0.959741681555108,0.9642338865648
57,1.8309908800827,2.60602879524231,-0.143711433646269,-1.80669653173269,1.8309908800827,0.0021912125109295,-0.0116821051562617,0.0118858316137328,-0.0040031038662293,-0.165046437216084,0.165214175971382,0.0106716568544991,0.141709297199297,0.142631751417736,15.24795006708,0.154089527751668,0,8.28737179235801,4.11619769937498,0,0.0782557107569097,0.122216152104024,0.180070004188684,2.36748825583937,0.512665642318885,0.0724956543582702,0.248950680435609,0.175698584455784,0.529792858610136,0.0244385645048958,0.0165340381059225,,,,,1.80912450321235,-94.8944011061714,2.10618005146239,HoldLanding,HoldLanding,0,0.516790584972266,0.176562600040097,0.122811521741519,0.941122392192479,0.321911740241874
58,1.67225447529408,2.61569166183472,-0.0677951091755237,-1.64646947352728,1.67225447529408,0.0029726912383613,-0.0117773389960575,0.0121467117783656,-0.0024997071417036,-0.138349297319402,0.138491437188396,0.008931743256462,0.17322459878335,0.173979934153664,15.3917128527273,0.166997486287115,1,12.0896457214207,4.63970906220017,0,0.0503714768676106,0.0537362561246629,0.194870094109969,0.691887516245758,0.500424941942644,0.0537110615948776,0.252642820050712,0.241999701729534,0.36047073108423,0.0245082355604004,0.0156383434611643,,,,,1.65786584843096,-92.9146212669234,1.6946133558947,HoldLanding,HoldLanding,0,0.480730513575822,0.21450026413101,0.145279377966076,0.963776299888224,0.292444577009096
59,2.62311546379906,3.0,-0.64926425497555,-2.50333065018757,2.62311546379906,0.0070586272265713,0.0059219545384618,0.0092137811933701,-0.032296162706378,-0.325795706351975,0.32881494251825,0.021221143599306,0.198723792762171,0.201388782293805,15.4032279003047,0.174686059047638,0,11.659314890646,7.32161576157923,1,0.113073477944842,0.165523052349513,0.243548811987074,1.11452814191375,1.63347755036564,0.0366622307001573,0.140787495037147,0.209269548625024,0.571922532721272,0.002087734538583,0.0071878902837216,,,,,3.0,-103.288913453806,2.05301596453866,AttemptLanding,AttemptLanding,1,0.739775213471843,0.0864882138639964,0.0554345886205355,0.96007741135344,0.306991311722211
60,1.5474890566685,2.33420538902283,-0.142902188957705,-1.51948733593925,1.5474890566685,-0.0051218927291547,0.0059976770316931,0.0078870726448707,-0.0042913878021333,-0.124910647645295,0.125135949505945,0.0080733679622792,0.165949341677527,0.166731516032903,15.3943518446112,0.147486110131294,0,7.18386493196431,7.5267417263526,0,0.0764740662223129,0.152715191221077,0.195873772837326,0.623114014990234,0.944868601932456,0.0469687699377539,0.251977167913449,0.234350653841231,0.369918148245904,0.0249348815913197,0.019104195682458,,,,,1.57454882872326,-94.5469327829021,1.5,HoldLanding,HoldLanding,0,0.446010051651513,0.17845713809795,0.125103432703079,0.964195751612445,0.295844153848342
61,1.6265479821203,2.22167420387268,-0.0877816752018361,-1.60551904905449,1.6265479821203,0.0034103155859407,-0.0051591984946531,0.006184462911437,-0.0025630628891499,-0.132226499266164,0.132326612438009,0.0085374393320728,0.129337032790961,0.130106219594383,15.3290377113801,0.302865579634265,1,8.74549070783188,5.56944700829614,1,0.0995951330559665,0.166026488592252,0.165692468346218,0.757888076619686,0.86846803607205,0.0592481600100081,0.252434849526701,0.195808484719697,0.531793126415258,0.0243577867612806,0.0173774170190227,,,,,1.61762345460285,-93.6644143083513,1.85316123896083,HoldLanding,HoldLanding,0,0.459767372484291,0.135037218094715,0.0981670745960326,0.957597407680989,0.312974006791246
62,2.61960920322699,3.0,-0.532861213035855,-2.5325233390533,2.61960920322699,0.0074272230218269,0.0061720770995987,0.0096570273655689,-0.0237868891348289,-0.33364367531674,0.335317163665149,0.0216322398097008,0.196719957828234,0.199347433084955,15.4035828854032,0.267796100526379,0,5.65365795124949,6.02592970408253,0,0.13332415664593,0.16513808129321,0.0788578786225855,1.07314445744932,0.935192263329219,0.0319042317486326,0.12171273434562,0.087361790340824,0.386985901218813,0.0029575129179309,0.0054591213597532,,,,,2.97152933216033,-100.613250726234,1.88414737621127,AttemptLanding,AttemptLanding,1,0.738431940810855,0.0873583842909484,0.0557146158002264,0.968268095605281,0.961172537626301
63,1.5166881946196,2.56033515930176,-0.11043094817885,-1.48910666091033,1.5166881946196,-0.0011863621960818,0.0064020672978166,0.0065110614300638,-0.0036093556742641,-0.126339082592151,0.12655007556615,0.0081613942818016,0.167522586371212,0.167800262254607,15.4491640520858,0.267289660708172,0,4.26569120826342,4.9180156756777,1,0.164499888347925,0.0781525604377775,0.0801578222804654,0.789272154317002,0.480784765260385,0.0685038707845228,0.287752892530204,0.241061926605621,0.335109452667851,0.0561663983840213,0.070092032557748,,,,,1.62156253992994,-93.9354210374525,1.63805566152387,HoldLanding,HoldLanding,0,0.438010237682816,0.236014261648996,0.192059412554811,0.955769045953916,0.292861365953057
64,2.60041993898904,3.0,-0.416054587441731,-2.53124837305481,2.60041993898904,-0.016160238005788,0.0106849416811808,0.0193732101401381,-0.0188898709265485,-0.343120151587449,0.344342653476635,0.0222367440788458,0.207332130537743,0.209417682187138,15.3042323599654,0.282447625048367,0,6.12732599874326,9.53292923352468,0,0.160283513894912,0.0886401907246527,0.200679912287183,1.84101794089337,1.21228028148944,0.0872190858665531,0.46254275786394,0.148191188441193,0.491631160968709,0.0244922290258536,0.0144852813482211,,,,,2.94853364793101,-98.1270015879143,2.30442111899772,HoldLanding,HoldLanding,0,0.735328853501171,0.0934572689198254,0.0722271715102136,0.932400256748001,0.334137249581692
65,1.70177572657553,2.5904381275177,-0.0494342335741913,-1.67686127361891,1.70177572657553,-0.003448946908919,-0.0031006061083257,0.0046377788885984,-0.0019445933415749,-0.1482494801008,0.148393681841162,0.009570361411397,0.175624538880002,0.176435531225046,15.3875682734436,0.235939305468158,0,14.1988409507213,7.51153430871733,0,0.0499372819746808,0.119828650097552,0.263981249780512,0.67448493900062,0.496400092278308,0.0514480163146463,0.251023998146373,0.241997740072032,0.311820133343083,0.0245698178417782,0.0180769704096497,,,,,1.70415838852487,-91.4034471635259,1.62637512854752,HoldLanding,HoldLanding,0,0.48909396666515,0.200799299674898,0.137972942631056,0.965076180882628,0.292445448856875
66,1.58992474732989,2.29632210731506,-0.170549491397964,-1.57073854574544,1.58992474732989,0.0035070139885564,0.004870269691707,0.0060015559637389,-0.0030887732518949,-0.12926432092543,0.129350269963801,0.0083536031742034,0.109056280493659,0.110089811221287,15.2433571530222,0.233202159876596,1,15.9289513817939,7.02849180362962,0,0.0994750364750151,0.0749680439607239,0.0505710824095688,1.96158311588646,0.914864506049902,0.0420433889765023,0.140926508632365,0.169160877683956,0.504523394550792,4.0240394809311e-11,0.0114833693326435,,,,,1.62915702887708,-95.203704492906,2.11352981586225,AttemptLanding,AttemptLanding,1,0.445997894865562,0.160039691256683,0.10019958543831,0.956377645625106,0.324817387696019
67,1.52631010898201,2.21535897254944,-0.0347705466273183,-1.50855144791203,1.52631010898201,0.0028740456540539,-0.004400736528456,0.0052561031586598,-0.0011697657628656,-0.117778461555809,0.11783884667849,0.0075986566277176,0.128015028548538,0.128683342724195,15.4427521145448,0.173649467158624,0,5.1517606360309,4.34994484803055,0,0.12224578434824,0.135501186349077,0.129358591923302,0.637478352429057,0.455600859514511,0.0550750105368221,0.250882161653868,0.085252255377942,0.26383679765603,0.0246028604657595,0.0149711434759898,,,,,1.52305422024291,-91.6803892574387,1.74498943699628,HoldLanding,HoldLanding,0,0.432752697606708,0.155999613215092,0.109978424753591,0.963874015209175,0.362110108720915
68,1.67123909062082,2.64685773849487,-0.0873732962077088,-1.64194383565151,1.67123909062082,0.0040150420362,-0.009463625999464,0.0102801157391435,-0.0034750195218458,-0.139180587098247,0.139377488188836,0.0089890584633267,0.180281204317222,0.181101610418771,15.3829376964202,0.271607991820216,1,4.77795010050608,9.30070201003374,0,0.0911652879184903,0.113389682680377,0.198974061805433,0.690194848849849,0.5582034053857,0.0595073875869695,0.251135822820578,0.0770928189387428,0.354048483495715,0.0244970443669519,0.015945278976568,,,,,1.65992886901319,-93.675633913439,1.86980810051361,HoldLanding,HoldLanding,0,0.481884079582638,0.221398883657172,0.149525188732711,0.960437462780379,0.365736524916114
69,2.64154082596501,3.0,-0.49178322360971,-2.56111055669225,2.64154082596501,0.0072552799477835,0.0059553091778058,0.0093864154246425,-0.0218128777237447,-0.340189296401554,0.341656009098108,0.0220476984540468,0.195085657140096,0.197858666463359,15.4023998891125,0.176757113460232,0,9.23570920406846,8.64571971010011,1,0.0405188060508722,0.168669825398293,0.190079177764967,1.34909043926535,1.31898384074907,0.0459951842456993,0.155371915226357,0.144220077820931,0.32756088427756,0.0011951887563387,0.0125845756269647,,,,,3.0,-99.3718557434864,2.36092567964685,AttemptLanding,AttemptLanding,1,0.743982620216675,0.082374156985723,0.0545318985131473,0.956038967105609,0.335902187635142
70,1.63618568121197,2.48738431930542,-0.106783382363348,-1.62161221748864,1.63618568121197,-0.0005201274819281,-4.02800977712057e-05,0.0005216848509717,-0.0021939600799669,-0.136754535456588,0.136815063031819,0.0088235705109034,0.118185895535994,0.119007290452281,15.4011996744099,0.27141748871614,1,8.92393030779908,5.60567336225767,0,0.0606690631919906,0.113729471551683,0.271682464391658,0.677844572074321,0.524534976403755,0.0563501766378818,0.252087685658881,0.12852638176149,0.366272354043063,0.0242951257719415,0.0171937137968462,,,,,1.63718820829973,-93.6710336136772,1.76187947622056,HoldLanding,HoldLanding,0,0.460117639746983,0.191615335793703,0.13201929471513,0.96237764380016,0.34287716366156
71,1.73313761170292,2.55455207824707,-0.128173162010901,-1.70294994816372,1.73313761170292,0.0032440606881455,-0.0108397824379722,0.0113148050381322,-0.0045970565032085,-0.150427920826228,0.150681722090851,0.0097211389509059,0.179891476621728,0.180682319380061,15.3977004936759,0.227302475015925,0,11.8274862030327,6.77236383849254,0,0.0692304312118315,0.136123456839971,0.0890884055888741,0.902927135518941,0.988498119503683,0.0647315076194486,0.250844220475,0.0922272707649294,0.368434305416258,0.0245020061103631,0.0171653440137856,,,,,1.70051980624269,-94.7465968646039,2.03922174095371,HoldLanding,HoldLanding,0,0.498306493663458,0.186892635896091,0.129267305308889,0.952773047757955,0.359010101882254
72,2.58545641994795,3.0,-0.488063416168219,-2.5053104706652,2.58545641994795,0.0074009647095216,0.0060488025071194,0.0095583623284388,-0.0216368141659604,-0.327664374278683,0.329135010438669,0.0212379292694868,0.202876763999846,0.205531634358925,15.3954835599817,0.239933300549106,1,4.29436744138822,8.50278295548696,0,0.159643186801826,0.164066863196392,0.0976733757301051,1.01395083012568,1.26615453639265,0.0347133310219654,0.126409126062167,0.141927948721043,0.424057926229192,0.002829655488488,0.0053579466727739,,,,,2.91093538813022,-99.816427293789,1.98040136831958,AttemptLanding,AttemptLanding,1,0.730561372191239,0.0950246719385911,0.06022077206935,0.964728220894945,0.336920911679537
73,1.68511313037552,2.48623871803284,-0.106148317013437,-1.6705132952202,1.68511313037552,0.0019887233242795,0.0076516293680985,0.0079058492552844,-0.0022361431088727,-0.150352411890913,0.150415825324437,0.0097048074825126,0.119489815349271,0.120282006918474,15.4259014587129,0.310993376181705,1,9.13095290845072,9.40066721209375,1,0.0705556624617954,0.16456622990154,0.123631041124375,0.734372543114788,1.40897423583992,0.0790034599130348,0.251153191181138,0.14520229038122,0.508408779342328,0.0250656679266106,0.0171241276348588,,,,,1.72562512383076,-93.8374795978128,2.43597551034826,HoldLanding,HoldLanding,0,0.473419902817168,0.181702662919698,0.126388850111675,0.943657688208838,0.335465648719458
74,2.62587335387205,3.0,-0.548907498275501,-2.53609784839442,2.62587335387205,-0.020756124006522,0.0079144761364414,0.0222138609045888,-0.0243990927057983,-0.342460948082314,0.344254671539566,0.0222296206353085,0.198651074511607,0.200686115333176,15.2956819357671,0.14000754265497,0,11.5064003320505,5.32784203832798,0,0.12094214134857,0.158147627749127,0.0505311477768036,1.95493635009963,1.10831305070585,0.0838496210251146,0.2487772491716,0.170081847749764,0.477373387170783,0.0248093592262684,0.0171504354978494,,,,,3.0,-100.724454534549,2.31661188358576,HoldLanding,HoldLanding,0,0.740370117432515,0.08825103654463,0.0702135258043375,0.934006801338257,0.324408067666772
75,1.71930036946347,2.50045704841614,-0.0754641455290468,-1.70086532357816,1.71930036946347,0.0024542705340696,0.0107440709287832,0.011020821383959,-0.0021607745346819,-0.156695352484999,0.156790850306669,0.0101210980239051,0.143564378514623,0.144419098595848,15.3507765451925,0.296061916657986,0,7.8011388782605,8.78168764444569,1,0.11344877733355,0.0633042819511438,0.204545984154726,1.54392900099787,1.16913073700531,0.0768458720217252,0.251057468866064,0.152334929415432,0.511596933502783,0.0245888289420048,0.0171275419832832,,,,,1.75314324486889,-92.9988255456999,2.36242197977816,HoldLanding,HoldLanding,0,0.487363918242761,0.177780736684743,0.123825007514345,0.940260166047684,0.332295586926475
76,1.67826028571878,2.44954466819763,-0.14700091671355,-1.6605296312776,1.67826028571878,0.0028073506609509,0.0035951658049223,0.0045614071182502,-0.002741427690315,-0.144412835995712,0.144487773763372,0.0093197754901952,0.116532620088014,0.117682934123168,15.408818047656,0.20512565857321,0,10.3043705497918,7.0480391929485,0,0.0850403117939028,0.0336639891790127,0.251710856006035,0.775978097490537,0.800507898195484,0.0332387500099044,0.117140007382138,0.0769242130713794,0.363192890235504,0.0028523260508422,0.0058388965745583,,,,,1.70076581873366,-94.2444526353916,1.92061963747862,AttemptLanding,AttemptLanding,1,0.471072663016309,0.17437524402942,0.108016082002714,0.970993949314658,0.965811460857165
77,1.7172278042866,2.45820879936218,-0.0895878585703829,-1.7025824835773,1.7172278042866,0.0007077586255049,0.0050328864734995,0.0050824077490015,-0.0020428958359345,-0.152545870275589,0.152600496865183,0.0098447565790037,0.118969824191807,0.119891244094002,15.3968075652073,0.233086494326378,0,5.54309816631287,7.20414190259128,0,0.141951438070247,0.0634807445930038,0.0696363406447472,0.684831790506069,0.9513921545909,0.051831101048692,0.25224571193116,0.222927597657715,0.386706861958556,0.0242706618135178,0.0176068999510046,,,,,1.75267540990144,-93.0921521707442,1.62875106638589,HoldLanding,HoldLanding,0,0.481905663295226,0.16765249864599,0.117780969066695,0.961228404192749,0.300921067707682
78,1.75561646314768,2.61272644996643,-0.266375384697993,-1.71569616540745,1.75561646314768,-0.0036208870516175,-0.0032582259773669,0.004871022434783,-0.0077392420789878,-0.151538893932535,0.151982048111429,0.009801218409995,0.149986934312169,0.15076286295171,15.3916230301709,0.186486724460363,0,6.25578924546144,6.21359786749172,0,0.0378855273189926,0.0956538310833372,0.182062227515626,0.689147293097293,0.485776753489333,0.0525626861485547,0.272322493262088,0.223784735932143,0.258319817555128,0.0394558242378121,0.0593876896399479,,,,,1.74654853556253,-98.8045454304196,1.55820749743392,HoldLanding,HoldLanding,0,0.498316962763056,0.19374276781393,0.155377106077266,0.964487110845399,0.300540117363492
79,2.41078813964088,3.0,-0.357453737108859,-2.35574258609268,2.41078813964088,0.003348630238059,0.0077275548269112,0.0084219016898894,-0.0145527483346466,-0.313017744553026,0.313816985167127,0.0202529763420199,0.202082761959346,0.203927678412542,15.3460811272355,0.320901206765785,1,9.1793595251035,9.21281749987726,0,0.115783284118201,0.095634205684683,0.129061131579705,1.84609340015109,0.531704537023942,0.0655380997085895,0.447477698600758,0.134381428944572,0.558295196784179,3.59982944401875e-06,0.0317857070943842,,,,,3.0,-97.9055764515173,2.08680443965756,AttemptLanding,AttemptLanding,1,0.683662372920078,0.134116683890614,0.0920300492019782,0.948548252067901,0.340274920469079
80,1.69717068259838,2.52592015266418,-0.144076933768273,-1.66621239114174,1.69717068259838,0.0012631647566773,-0.0076083404179371,0.0077124852750412,-0.0049568546490276,-0.143904523724429,0.1441721018616,0.009301826522894,0.180294275160586,0.181089388120079,15.3892211426134,0.26069351510544,0,9.34513090862695,7.53902909546431,0,0.0445365863069485,0.0459588614983517,0.17400383612891,0.726814700434435,1.01997996374086,0.0557442429262547,0.252401041912667,0.203292629518238,0.397102363121687,0.0240705031639259,0.0181238773722796,,,,,1.69628480395598,-95.2657092073146,1.74296658835831,HoldLanding,HoldLanding,0,0.488796726316916,0.187882586398564,0.130018054107975,0.958403063318352,0.309647720214116
81,1.77769303805808,2.7009015083313,-0.281027418380303,-1.72744067427293,1.77769303805808,0.0061174339021219,-0.0032093069311942,0.0069081581138131,-0.0102321170898122,-0.158176095107886,0.158958969367929,0.0102551969545588,0.191857378975431,0.192614643957546,15.3845656144651,0.17872054337733,0,7.94674203566664,7.29485190701144,1,0.124597714356622,0.0762021266184081,0.0965374798638201,0.964215872888322,0.988054249464234,0.0713447371674904,0.252318065407945,0.131208376250722,0.343692695432372,0.0248953759017142,0.0156278650685879,,,,,1.77104898685277,-99.7532888830882,2.19246185306753,HoldLanding,HoldLanding,0,0.512574405606996,0.208988401465674,0.142140512416218,0.948988366169199,0.34168516611079
82,2.61912353182317,3.0,-0.398191888898184,-2.55654320241109,2.61912353182317,0.0101565483050598,0.0064945222577122,0.0120554673417886,-0.0166736425493196,-0.34004877875751,0.340991212869847,0.0220135720312939,0.19413577144187,0.196920486362216,15.3665787595682,0.16243958876321,0,14.7365442138306,5.58762903043832,0,0.0742539094728993,0.04265684555328,0.103587738009576,1.13194452097423,1.77559930904838,0.0235029135861801,0.0892535148165825,0.24606305519149,0.366029982876589,0.0031120560383442,0.0047014159404912,,,,,3.0,-97.471050396456,1.53466911823424,AttemptLanding,AttemptLanding,1,0.737817039091956,0.0879073743524471,0.0558371664250524,0.965403555971018,0.290638642137116
83,1.67869806641027,2.64829635620117,-0.246292803231543,-1.63746801139711,1.67869806641027,0.0022251856952747,0.0065139263500878,0.0068835083985438,-0.0079105787944757,-0.147488803921102,0.148016278037337,0.0095476589684747,0.181253403112752,0.182029247313028,15.4506833704684,0.243121050552472,0,15.8677330038324,3.43391160651581,0,0.168456277729034,0.131479511341737,0.152508989640408,0.734475988035911,1.01336743541642,0.0766559983866318,0.250743777706815,0.0856892272046652,0.279364757768465,0.0247259395498043,0.0167743080229106,,,,,1.71534999253807,-98.7349354691493,2.36889478620292,HoldLanding,HoldLanding,0,0.48405866717201,0.219421591742687,0.148742009884159,0.947938945336702,0.361915899020149
84,2.63985956479705,3.0,-0.511376324141444,-2.55815581312701,2.63985956479705,-0.0205786134408323,0.0031081906609141,0.0208120200925282,-0.022165122484364,-0.344155926565802,0.345637507471222,0.0223121788417127,0.203857326569258,0.205927065480052,15.3602936826358,0.149646490552752,1,14.7357531327179,4.5568961984682,1,0.119571121125413,0.163648166139084,0.253409469504153,1.48075885573803,1.3887167532771,0.0842268298277386,0.428739338967125,0.195745257951138,0.441206652504556,0.0246902036245915,0.0174481085571722,,,,,3.0,-99.8806899531268,2.31521288619257,HoldLanding,HoldLanding,0,0.745147963708556,0.0848471349376282,0.0682264715437913,0.935340705301012,0.313002107577272
85,1.89377677252276,2.66970157623291,-0.246373886065722,-1.86473450653701,1.89377677252276,-0.0006466211149017,0.0047474115101168,0.0047912456535463,-0.0062596166497666,-0.181583400313364,0.181812859485838,0.0117277057445282,0.128905468197965,0.130024397667303,15.3860878481462,0.251620502974643,0,12.2705199681857,9.56773350976705,1,0.115807254710275,0.0767157439470227,0.211970157101221,0.753263586908903,0.700399376362507,0.0491977627065409,0.253491851426986,0.23505104982804,0.397677761393486,0.024622672183639,0.0172889527844735,,,,,1.91928845417784,-97.3182776792843,1.56961147717761,HoldLanding,HoldLanding,0,0.531012018872864,0.175461475871266,0.122507187303782,0.963979481078168,0.295532866743094
86,1.71123419896416,2.55866312980652,-0.226658860587625,-1.67351047946878,1.71123419896416,0.0024595944939516,0.0074978128223273,0.0078909316429262,-0.0064965369018925,-0.151039567433007,0.151384526333461,0.0097654546474282,0.174103047248149,0.175314399013607,15.3781043053132,0.247610167506412,0,11.6173127273162,3.525297651198,1,0.146822382729083,0.128512281623421,0.214299200922635,0.712667818263085,0.745548536747689,0.021358715599634,0.0755516891120836,0.320684140124021,0.43463186648497,0.0032198511026576,0.0046955811885466,,,,,1.74559850451354,-96.6109051974514,1.5,AttemptLanding,AttemptLanding,1,0.491391999526497,0.192118180240734,0.118409437147517,0.977863227982241,0.257473715500435
87,1.93216464745587,2.61074256896973,-0.269168989241557,-1.89864852032923,1.93216464745587,0.0044811777674958,-0.0077000877952092,0.0089091136617414,-0.007124349062778,-0.182868968068585,0.183178438969432,0.011815829451942,0.131880307611579,0.132860057378261,15.4067332243378,0.265332036398599,1,11.7645252884637,4.76933483997991,0,0.132319683756306,0.119185573871377,0.0927617475062837,0.942343559048896,0.871755271743573,0.0680688259142252,0.251081171483231,0.0876944106034149,0.372507154439837,0.024700435973262,0.0155388332126481,,,,,1.90999160407999,-98.7042901753648,2.11434469479945,HoldLanding,HoldLanding,0,0.541815917463885,0.15431336984527,0.109216478255433,0.951711953372375,0.361024706398482
88,1.83582531038084,2.75351762771606,-0.211244621795474,-1.79618303506965,1.83582531038084,0.0030301574376774,0.0057991708444038,0.0065431060345752,-0.0077401127957854,-0.177668530418631,0.178146299721385,0.0114986369884047,0.199420678176684,0.2002697166133,15.3412595765612,0.190062116460483,0,5.53211143700614,6.39983446950711,0,0.0990302534138645,0.106968011684201,0.105460853758,1.51217846318129,1.21030913379433,0.0776410165926551,0.249287517415519,0.136346470530816,0.400050012316783,0.0247793587376334,0.0148306729128322,,,,,1.85804652340585,-97.050859497189,2.39193573498416,HoldLanding,HoldLanding,0,0.529607359424216,0.207680340840099,0.141014224800199,0.939788517727435,0.339401568652971
89,2.63548776218325,3.0,-0.400047096726872,-2.57519196741257,2.63548776218325,0.0072877825854769,0.0072260508836084,0.0102629228968008,-0.0160254878677231,-0.344593450326629,0.345409120856448,0.0222976877695601,0.190379879965368,0.193178421618653,15.3344067764181,0.204838475379908,0,11.4264944557917,6.5469701652032,0,0.0413622154187049,0.151148447437871,0.0992029171306921,1.89401300267722,1.06542273090764,0.0445857148918481,0.163509660771928,0.123634672928141,0.297890827958803,0.0023592594717667,0.0063243570913779,,,,,3.0,-97.63858562104,2.32540830006929,AttemptLanding,AttemptLanding,1,0.741432420905931,0.0838967893731822,0.0536863996041855,0.954454433218766,0.345051256476382
90,1.96872536672486,2.98604202270508,-0.383219549598842,-1.90074730845745,1.96872536672486,0.0059398209798668,-0.0037154860795746,0.0070061622933229,-0.01529394508854,-0.192627831221117,0.19399717829116,0.0125208736337558,0.210947584173225,0.211940871617952,15.3211579166306,0.279043744241612,1,11.8977195667748,3.32656406865025,1,0.101802100010278,0.0445538549252923,0.183550823858662,1.3302576339619,0.917806397865494,0.0728409358800944,0.250588959353616,0.132799571643606,0.614025725181458,0.0248077290781254,0.0191204960278475,,,,,1.97595603721084,-102.204413883357,2.21249598553037,HoldLanding,HoldLanding,0,0.56738160545022,0.230180710682658,0.15608699142414,0.94591617180988,0.340977968158398
91,1.96633872268426,2.77616930007935,-0.413588063422724,-1.90971908301571,1.96633872268426,-0.0013324393210809,0.0012167839369748,0.001804427248088,-0.0122142853629216,-0.187382993432001,0.188061944882406,0.0121351308977294,0.131390625260262,0.132521821904421,15.4018867414219,0.153409212291061,0,11.1795185270184,8.70067926340425,0,0.143425629317338,0.0610651969384821,0.164897160038125,0.789813490194187,1.21604948344113,0.0483833516613097,0.251073435524533,0.237283734994674,0.366840363680365,0.0241224017664734,0.0157168186947543,,,,,1.98269676727326,-102.196075792471,1.54816816180171,HoldLanding,HoldLanding,0,0.550861357096688,0.182542691576043,0.125961889195484,0.960047972233639,0.294540562224589
92,2.61521757605881,3.0,-0.340799244933184,-2.56065519323641,2.61521757605881,0.0096402408283118,0.0026088364095835,0.0099870050886048,-0.0139075115291609,-0.342251334707775,0.342945693905426,0.0221286024313774,0.198483200176948,0.201129529681614,15.3670181975902,0.17262565781538,1,12.8006137705404,5.52658105433895,1,0.08039561339852,0.166465539167316,0.142792382496525,1.07115619160779,1.05182218429646,0.0213414084241094,0.0766253854790063,0.283156470402193,0.501551871819383,0.0030934316455479,0.0049107015507873,,,,,3.0,-96.1325283262809,1.5,AttemptLanding,AttemptLanding,1,0.737617259552006,0.0884069963196782,0.0562047659557711,0.972648751405841,0.274152679821248
93,1.95047259660529,2.85951638221741,-1.08938731604897,-1.58401614673303,1.95047259660529,0.0049071667785271,0.0010065669275154,0.0050093375581855,-0.0707442583404442,-0.13438350420154,0.15832357944051,0.010212955427111,0.203133602707424,0.203917188373127,15.3907584728608,0.126593815107434,0,12.7660223490945,5.74424545875037,0,0.0553824249646017,0.157420289238688,0.114051182984519,0.679124056549855,0.926192408842124,0.0709348752903301,0.269449232397664,0.0645052350155949,0.389343083047783,0.0493596894253177,0.069887235887607,,,,,1.94231362243633,-124.407068044808,1.93311066891764,HoldLanding,HoldLanding,0,0.560909463436037,0.20545323031506,0.170623118256388,0.951919361555327,0.371331006659736
94,2.59118383633785,3.0,-0.130561273191357,-2.55088108650336,2.59118383633785,-0.0210949334544788,-0.0093810013487104,0.0230867798480732,-0.0034605321035161,-0.341479472063303,0.341767355169503,0.0220412041760916,0.206927147134707,0.208703903449577,15.3982605853859,0.286982640551344,1,8.50063185260124,9.16169237132338,1,0.0719382996090232,0.0862188971027418,0.10639375027395,1.0743232610789,0.406389724694234,0.0582455474249235,0.249722335680232,0.330975977970018,0.368760533852606,0.0244611509588859,0.0172617383107762,,,,,3.0,-91.4563513127585,1.59682852913067,HoldLanding,HoldLanding,0,0.732723137046674,0.0962162131294644,0.0748783462754456,0.959243052827892,0.252899565346659
95,1.96589070679097,2.88859295845032,-1.18444024659607,-1.54440097122862,1.96589070679097,-0.0071204072349546,-0.0041436368543268,0.0082383205553152,-0.0768252085565475,-0.121065840880366,0.148521773771125,0.0095797872970047,0.165634359434258,0.166449243308117,15.3994792836713,0.152621814990056,0,11.5991536637907,8.65025346794236,1,0.134433210577067,0.0349188088757558,0.124092973304716,0.650624796705181,0.940665139770165,0.0493002873332005,0.25099190641494,0.249757341955426,0.363726121479671,0.0244946567883694,0.0168254902770241,,,,,1.96331253915621,-127.216824388755,1.58895057806803,HoldLanding,HoldLanding,0,0.557527370472548,0.209118365391828,0.142475893463997,0.962846863975379,0.2889967369087
96,1.80071024073406,2.48168349266052,-1.07517348941708,-1.42956106914781,1.80071024073406,0.0083975667480269,0.005224090241115,0.0098899062753335,-0.0625071202428831,-0.108036989654747,0.127521205455546,0.0082439832377692,0.130231169546338,0.131186842271845,15.2332503139963,0.34916269729574,1,10.4838533274497,7.66200182817956,1,0.102679332376518,0.041962999661645,0.157562708320756,2.65166788514875,1.27741911534984,0.0405086706435787,0.11608780247392,0.245139538524766,0.613406102683961,7.73646907942995e-12,0.0236575691779548,,,,,1.85410920649287,-126.007447320558,1.97454649134434,HoldLanding,HoldLanding,0,0.506426765983452,0.155032131167265,0.101622031132144,0.94887426681715,0.291049093988993
97,1.91303948372538,2.5699999332428,-1.12156601546648,-1.53398883697301,1.91303948372538,-0.0013464591943507,-0.0081538169436076,0.0082642412302591,-0.0676693309635186,-0.118763420922788,0.139646218587291,0.009018164742069,0.130040251370174,0.130789597392225,15.2964539902698,0.289205596530307,1,8.64216363537799,3.6727093388862,1,0.0962679792433396,0.0615132541327944,0.0787701763211621,1.83026907668955,1.19017706687429,0.0694170515598335,0.247941669069623,0.184485036720843,0.565247446358197,0.0246283602353141,0.0190151362078684,,,,,1.90035395314852,-126.506742732756,2.1064942467974,HoldLanding,HoldLanding,0,0.536301781805213,0.149331212033633,0.107459260087221,0.941559397377796,0.318006650346292
98,1.85087656233046,2.62236618995667,-1.08702138948991,-1.48279218108008,1.85087656233046,0.0001410822849353,0.0018257635639793,0.0018312063790509,-0.0647206210177545,-0.114177984670789,0.134051922713821,0.0086478410977734,0.131724552298442,0.132521063312739,15.3637556103146,0.317435961509784,1,11.4828425317899,5.17098007782734,0,0.175800573349169,0.127469417944849,0.198236765337278,0.610548342541311,1.12675210192864,0.054816740355098,0.251032743843908,0.146033716596389,0.363918763731576,0.0241915864589854,0.0162032546429226,,,,,1.87571237254526,-126.343170425654,1.7171224524778,HoldLanding,HoldLanding,0,0.52007129595067,0.173920887385389,0.120996441232653,0.958941412044473,0.33509612595716
99,2.62683777466267,3.0,-0.15707921259772,-2.58699306931926,2.62683777466267,0.0053341868357505,0.0034648170082199,0.0063607001264911,-0.0058352820406188,-0.347657650012772,0.347982460240334,0.0224615939068447,0.197239955143168,0.200115291683873,15.4008826137391,0.252284581197752,1,5.25744380552414,6.56340241555415,1,0.135874210463601,0.0690204312520741,0.2559190852084,1.48892988781961,1.61277593121783,0.0443775046399709,0.183144843531986,0.160274858072395,0.418928080944282,0.0023774394777843,0.0060898008810738,,,,,3.0,-92.1609099733914,2.31226804119244,AttemptLanding,AttemptLanding,1,0.740513131580153,0.085127629057423,0.0543476902500212,0.953440701959006,0.328766729745602
100,1.7738049392376,2.5016086101532,-1.10599065211031,-1.36304464173517,1.7738049392376,-0.0043945130813703,-0.0091465813062623,0.0101474969728699,-0.0659306040720152,-0.0930195427247183,0.118392254639839,0.0076367023502516,0.143013044514303,0.14366579836702,15.4168044104446,0.259527697647336,0,12.6125963754324,3.79764073396372,1,0.0377575281633252,0.0746778655654164,0.115446630610563,0.800344678375904,0.878755715014474,0.0596293811356267,0.251155869094177,0.108773235710601,0.354944320879541,0.0245377689707679,0.0174652757019319,,,,,1.75491467611123,-129.314874842222,1.87285682229992,HoldLanding,HoldLanding,0,0.501747810136765,0.165616200401035,0.116626404684897,0.956992377769834,0.351656339684177
101,1.79404541329732,2.61881828308105,-1.137079770633,-1.36368896729618,1.79404541329732,-0.0011954355803558,0.0022637798323548,0.0025600322959207,-0.0721389702790646,-0.0978606082804188,0.126306573954254,0.0081513204195698,0.154482411698807,0.155190750359909,15.3809995870199,0.131972235500651,0,10.1775038980899,7.56937240973905,1,0.0412867951383184,0.138597916172426,0.141265180121197,0.550656216340299,1.62822787159563,0.0496059639909734,0.250441777014433,0.246132287242756,0.424176365140363,0.0242117453696923,0.0173685963435009,,,,,1.81348529686832,-129.706905071318,1.55770496771719,HoldLanding,HoldLanding,0,0.5094502602846,0.186043234955592,0.128702569909037,0.958077214456445,0.290607872336553
102,2.61619062367889,3.0,-0.220757438667565,-2.57660393487034,2.61619062367889,0.0059585807283632,0.0051875788586734,0.0079003581381717,-0.0081582235936827,-0.346234595443856,0.346590217789353,0.0223732672690356,0.193676648056496,0.196443347018145,15.3885273262176,0.222950710074561,1,14.0535936192436,7.02525065110915,0,0.0697304231172308,0.0770140981870538,0.241775498568956,1.0992835032068,1.70359924289802,0.0231112973090855,0.0769502238508412,0.241587380345774,0.353623790374949,0.0031121951222261,0.004846247849215,,,,,3.0,-93.3463396367176,1.50421883834534,AttemptLanding,AttemptLanding,1,0.736939502384666,0.0878055086642479,0.0558287749758184,0.966421701197491,0.292627830957434
103,1.73698839066284,2.5105676651001,-1.0862650724692,-1.33266174376012,1.73698839066284,-0.0024331624148847,-0.0064265853111912,0.0068717740139811,-0.0646515377976117,-0.0891668301368253,0.114103576032539,0.0073598382224284,0.145415986557794,0.146061523375662,15.4039394217093,0.264302310101027,0,5.78277496061864,9.81875258808696,0,0.120763756512461,0.0996563272202092,0.146475078564843,0.548628002916368,0.988808454395246,0.0532940568941403,0.250095833778945,0.225956624180843,0.368878841366849,0.0243295564603561,0.0174058502925903,,,,,1.72654575195328,-129.444915076368,1.69359194423704,HoldLanding,HoldLanding,0,0.49240920885189,0.175315161984279,0.122331633501567,0.961273113674053,0.299574833697403
104,2.68429651312584,3.0,-0.225940886544341,-2.63622413080497,2.68429651312584,-0.0303386602941408,-0.0129581136976554,0.0329901048656205,-0.0076465527653883,-0.354898143845256,0.355321402030549,0.0229299956679414,0.210648930450744,0.212875482192713,15.4110406134868,0.180097588269711,0,12.218226710207,8.85025815274689,0,0.116163968712292,0.0822017078094983,0.088243794206651,1.20515466432471,1.19054355933029,0.0727906608271648,0.250730009260136,0.120185096057552,0.387064533605126,0.0249383244030621,0.0161623753868835,,,,,3.0,-93.2924416519869,2.04061543469766,HoldLanding,HoldLanding,0,0.758387499938768,0.0770814704387155,0.0632098094113357,0.944781326400557,0.346584401752199
105,1.74166332394289,2.66200995445251,-1.04532404350369,-1.36215363632627,1.74166332394289,0.0001981940584309,0.0042913253295378,0.0042958996693044,-0.0646722687056504,-0.0995320828020926,0.124375877972474,0.0080253815804147,0.185390600442065,0.186077449382715,15.3908087966118,0.19684626964123,1,5.69173293105922,5.4700884326115,0,0.073209608583734,0.0565456907399321,0.158555653557164,0.562004083841004,1.37089069132034,0.0482655089814695,0.251496803249997,0.222432098594627,0.359661893766338,0.0245625243413907,0.0176032202705626,,,,,1.76944401401711,-127.2708966815,1.54966472166684,HoldLanding,HoldLanding,0,0.501659042927981,0.207865573470704,0.142037192574962,0.960680215132998,0.301141289513499
106,1.74210899888871,2.50074625015259,-1.08840358731547,-1.33975264094318,1.74210899888871,0.0084461216759987,0.005096570859981,0.0098646847844512,-0.0648922401946971,-0.0956775908459608,0.119450756919623,0.007710238337128,0.140274650733971,0.14121528010716,15.392176418925,0.243494707752245,1,9.21436792174643,3.35850449199088,0,0.138943549450677,0.0794367623223313,0.259431253279043,0.575159215838731,2.08548926292166,0.0504477681177394,0.181282181225036,0.122822567879773,0.412256650772183,0.0024729490231175,0.0056925743724345,,,,,1.7686972036879,-127.77706983327,2.48505553380112,AttemptLanding,AttemptLanding,1,0.492805455725088,0.172501907078188,0.106670259746154,0.95387102075087,0.345412192053434
107,1.536254047002,2.21077060699463,-0.899735657062875,-1.2310357421397,1.536254047002,0.0006680291248585,-0.0005743184963668,0.0008809680169724,-0.0450932436010086,-0.0779185640479458,0.0920042117443894,0.0059358239426267,0.108928143976185,0.109451069022941,15.3867690084996,0.193786169572065,1,10.2681712944645,8.25643724682777,0,0.116082571370568,0.158342749590553,0.26288610584534,0.503288057801667,1.16017463852999,0.0486381690198416,0.251746368366626,0.236514255408121,0.340716678215662,0.0248131642835788,0.0173334742148554,,,,,1.56362962757819,-126.213274791377,1.56565904568321,HoldLanding,HoldLanding,0,0.431557959671787,0.151927736801454,0.108487796628471,0.962610851447473,0.294882553151946
108,1.67356526571877,2.58929514884949,-0.977832475763568,-1.32728274748051,1.67356526571877,0.0045195029100082,0.0045761247603274,0.0064317046244097,-0.0561485069128737,-0.0993371276240067,0.119715907935774,0.0077244766434683,0.177348307833114,0.177923607701272,15.400111659894,0.218589646472058,0,14.8286890138657,5.42769217526633,0,0.164857669826811,0.0797201647163451,0.193923389242001,1.16033103500942,1.08252708824796,0.0882523459091181,0.282152682127199,0.122047199811429,0.418910987984313,0.0322673419970506,0.100984532224338,,,,,1.70099448076972,-126.23559516376,2.30127305107163,HoldLanding,HoldLanding,0,0.481868792398593,0.20721836955222,0.175393710700487,0.938251370362704,0.345756800083809
109,2.3397563265771,3.0,-0.448671023703755,-2.26895694848123,2.3397563265771,-0.043524392411209,0.0166542819140494,0.046601908124427,-0.0192743810857327,-0.299495452085905,0.30071553709514,0.0193944102570678,0.195379239828349,0.196517389594352,15.4351872285415,0.331593419956771,1,15.0677382702052,6.78344407365187,0,0.14881214462335,0.175567837552426,0.0956810850823212,0.913372394289551,0.630597850342565,0.158745701409137,0.870891085555664,0.229433937092012,0.315080065299276,0.048566178189921,0.0389257756401497,,,,,3.0,-98.910745007038,2.13766642331478,AttemptLanding,AttemptLanding,1,0.66323849833943,0.157098509676298,0.129998901395697,0.908495954516179,0.298029361292439
110,1.72611423647195,2.39464068412781,-1.05244508356938,-1.3519349336955,1.72611423647195,0.0012111894892149,-0.0027407202536803,0.0029964191108252,-0.0601740152720715,-0.0931308428784,0.113631899113094,0.0073327027271342,0.117412320995171,0.117999459006162,15.3801904899616,0.332594794957741,1,14.0617623002261,8.02996600218938,1,0.118160537325691,0.109011657373727,0.237826118234843,1.20989369709205,1.060354158316,0.0618692109522643,0.250724232507202,0.174329904750784,0.4549862414442,0.0246161897978584,0.0167234156398265,,,,,1.72926744399254,-128.300304784031,1.90711634234182,HoldLanding,HoldLanding,0,0.483897021527085,0.15096779422622,0.107602447385626,0.951227732802805,0.322520042332985
111,1.83930344408725,2.86709141731262,-1.04696261944853,-1.47499173079684,1.83930344408725,0.0037675453458515,-0.0109145919669381,0.0115465456192663,-0.0653454113647207,-0.112019729906621,0.135902038707695,0.0087731462866311,0.191354286727156,0.192040130885489,15.3093202597021,0.135574170531753,0,7.34888516098857,3.45646853749918,1,0.0688463245893859,0.119067204002024,0.191987833444674,1.69509922165595,0.927730318547526,0.0683693145045814,0.250311793468334,0.184979387465363,0.505299173561392,0.024315179651188,0.0168390188929833,,,,,1.81523472928788,-126.340586099222,2.07615871841637,HoldLanding,HoldLanding,0,0.528888944600364,0.233369160672575,0.156951522512632,0.945207396360396,0.317786938904283
112,2.61407747077304,3.0,-0.447329429801461,-2.54290368650505,2.61407747077304,0.0045607104461638,0.00626229216976,0.0077470241378987,-0.019263867006333,-0.33563765387215,0.336857636202804,0.0217391263285788,0.201690431509345,0.2043763793018,15.3983211739459,0.299455290855778,0,7.15404718805575,9.12938334001314,0,0.0358715463893719,0.160834642147136,0.197641589030049,1.04113948710089,1.45801328793901,0.0236743921584194,0.0885533173007452,0.241998008213996,0.35988765290939,0.0031201777540744,0.0049334368761689,,,,,2.96729568504797,-98.5728576137469,1.579115704245,AttemptLanding,AttemptLanding,1,0.737962601399837,0.0882528568346809,0.0561324368151656,0.968526603545477,0.292445329682668
113,1.91249339339438,2.77916526794434,-1.11336878936367,-1.53204511136006,1.91249339339438,-0.0007189013281875,-0.0007812236234163,0.0010616635387228,-0.0696459613615175,-0.121083365497915,0.143964406073606,0.0092884236398228,0.159278916495141,0.160099187905175,15.3829614661123,0.190567578944335,0,10.802313280239,7.48469980264197,0,0.13958474497865,0.170670611049866,0.0818803508598662,0.630641051625851,1.24021455404324,0.0513238663361694,0.2509247793916,0.197705400036716,0.357782478695221,0.024792482302414,0.0141140824120149,,,,,1.93223126337264,-125.804006762773,1.63027763816749,HoldLanding,HoldLanding,0,0.542018075819538,0.195195810089172,0.133268760681167,0.959638487073087,0.312130933317015
114,2.61337122928342,3.0,-0.342257281102929,-2.55971200414821,2.61337122928342,-0.01556424166325,0.0105464096617241,0.0188008610256274,-0.0145160341901985,-0.348461265054127,0.349238974859615,0.0225491303456398,0.19826193952122,0.200355538501466,15.2930740986042,0.195697971078369,0,15.3077928366652,7.7549312376885,1,0.121373347742745,0.0682836802112779,0.139206605198335,1.90234322289313,1.1238022378929,0.0871586067844744,0.249531285544629,0.175256892719381,0.423364828419177,0.0249097455661795,0.0180122504874568,,,,,3.0,-96.7638294594719,2.4469120085752,HoldLanding,HoldLanding,0,0.736970102175873,0.0904382979325945,0.0718838860571359,0.932643839415873,0.322108047680275
115,1.80876243842673,2.6553053855896,-1.13310298896308,-1.38642699626554,1.80876243842673,-0.0025784558940853,-0.0004420960624904,0.0026160817506747,-0.0702582626866517,-0.0990762002077557,0.126032851476423,0.0081338628442065,0.1462590267926,0.14696843689468,15.3847573042217,0.151099172027084,0,11.801369893454,6.05337664134974,0,0.11560015102693,0.119354376911445,0.221284160310465,0.599503204078877,1.65539272535177,0.0496763163895065,0.251448706605456,0.234656165142619,0.357028809915666,0.0245699537157381,0.0178003763015767,,,,,1.81906071923281,-129.474338611017,1.57986780588113,HoldLanding,HoldLanding,0,0.511730337626064,0.190951778099269,0.131963910398443,0.95744480235972,0.295708371047725
116,1.7434442545658,2.72728109359741,-1.0975340484925,-1.32329530736889,1.7434442545658,0.0093047915808202,0.003306890848492,0.0098749518199504,-0.0689265064095124,-0.0961435366402878,0.124300621813562,0.0080180520145433,0.182267022159389,0.183208893159966,15.3858631761233,0.253104817675988,1,7.91692738903556,3.70490385807316,0,0.100729995417924,0.128968416025068,0.260449830290594,0.558005592738256,1.10816730531748,0.028996154754206,0.106042562647984,0.0934800853447996,0.392174899655001,0.0031388966232609,0.0047800191234634,,,,,1.78140716467364,-128.268739059015,1.80257050948691,AttemptLanding,AttemptLanding,1,0.501560246516206,0.223173696615771,0.137037471907525,0.972410564138173,0.358453295402311
117,1.75992223920942,2.72016024589539,-1.06320085133534,-1.37125675015405,1.75992223920942,0.0058980507525404,0.0062317029460665,0.0085802753037159,-0.0664146183817223,-0.105880975218516,0.131409776764138,0.0084787920604811,0.185507893299924,0.186174197120549,15.4156672376022,0.207790080628964,0,9.34937994873399,9.63904861988543,0,0.139134896862044,0.0539622700707502,0.0685152405278835,0.86093759000828,1.36573195183353,0.0772442667034059,0.250023472487234,0.102941241119529,0.383178412687491,0.0247069713860138,0.0172573108177464,,,,,1.80405508233153,-127.883265151708,2.3883740109739,HoldLanding,HoldLanding,0,0.506547436546623,0.217626601976689,0.147832223109483,0.943882605962397,0.354248337280209
118,1.77958382699522,2.39063143730164,-1.04588361216655,-1.422367690064,1.77958382699522,0.0016418743569235,-0.0002427757839432,0.0016597263284025,-0.0608029125783512,-0.103482167216786,0.122797854973027,0.0079236447109213,0.125112380742013,0.125830085300847,15.3832190196689,0.264292439155661,0,8.14780946317548,8.1016184333321,0,0.137680814806708,0.145114259844999,0.194587269446459,0.576451143577148,1.41219201954761,0.0520796373839617,0.250257369982792,0.223901619951474,0.406764405517782,0.0246730526947448,0.0185533689893351,,,,,1.8005551772584,-126.745983901943,1.64700512384153,HoldLanding,HoldLanding,0,0.499721704258894,0.137789995479151,0.100386478117641,0.958335127883468,0.300488168910456
119,2.61845514487263,3.0,-0.449719986886816,-2.54881965333771,2.61845514487263,0.0065149161997523,0.0061200880299674,0.0089386582093928,-0.0189454805025459,-0.338203110834566,0.339336833200895,0.0219078487324418,0.196430815158688,0.199165512595742,15.3956533582514,0.336226132929733,1,15.689009795147,9.92835221548214,0,0.153923438421162,0.0377589668705623,0.194532505009373,1.55567976464498,1.75312521556251,0.049099786951876,0.1607456696455,0.13931014154246,0.40003643572565,0.0001640844395586,0.0161986101561634,,,,,3.0,-98.5472955700195,2.42772766912566,AttemptLanding,AttemptLanding,1,0.738087807818517,0.0874863464087128,0.0584551379559597,0.949452353108146,0.338084381536684
120,1.66248847350411,2.46760487556458,-0.984854282146679,-1.31812955888209,1.66248847350411,0.0020919262415632,0.003177052103642,0.0038039210650849,-0.0551848019069005,-0.0911359912652218,0.110040107677656,0.0070976450391558,0.133125483689319,0.133765593818425,15.3929093140571,0.144062659271448,0,7.58419501698795,8.02909022480797,1,0.136491376288458,0.151254826841042,0.270249702047272,0.557866306081843,0.926477756420338,0.0506078519852181,0.252001548302123,0.318079424928571,0.425641563753292,0.0244555469511453,0.0167210919602218,,,,,1.69953700690408,-126.726927999258,1.61833613323047,HoldLanding,HoldLanding,0,0.470083378364782,0.181848575992203,0.126058674650053,0.96303337065916,0.258631366698413
121,1.60287063054824,2.28203892707825,-0.873619647886123,-1.33041782271358,1.60287063054824,0.0001382837656637,0.0047643219119384,0.0047663283227682,-0.0428623603298597,-0.0930119424087766,0.104355060188196,0.006732649998765,0.116310256312518,0.116899957482054,15.3853032812116,0.25634995456205,0,10.7935913150967,7.67321336216242,1,0.0957270615947932,0.118064706310426,0.17951584671205,0.565562379469545,1.1568085356141,0.0507457154323558,0.25046454853931,0.265228182206099,0.446335102833252,0.0245439628565838,0.0172339399243228,,,,,1.6281175232469,-123.046018113821,1.61074791001328,HoldLanding,HoldLanding,0,0.450812159642608,0.153686693578425,0.109387331328523,0.961094227951022,0.282120807908401
122,2.62431917222447,3.0,-0.444006257149457,-2.55604003549912,2.62431917222447,0.0079937775320376,0.0055396599654541,0.0097256522539398,-0.0186034646140854,-0.339894197895703,0.340990027915492,0.0220023475092953,0.193222018652647,0.195938548791351,15.3713056507165,0.252046056437144,1,13.3262755045449,3.02887120088715,1,0.162084448110772,0.102465842864862,0.182644779379701,1.06648264210376,1.07857405022793,0.0284252455813983,0.113333847961203,0.272296025071337,0.49877631845927,0.0031080690123155,0.0045363261569817,,,,,3.0,-98.4223369875654,1.77626828356018,AttemptLanding,AttemptLanding,1,0.739006155684796,0.0863112224960494,0.0548176706510966,0.96893336034098,0.278979544412739
123,1.58174331199015,2.44919157028198,-0.912713663110773,-1.26375275389042,1.58174331199015,0.0011543573831785,0.004126676994142,0.0042850908954279,-0.0502597585201929,-0.0862586663914088,0.104351697891538,0.0067309041545732,0.170910832705874,0.171452973642577,15.408164813474,0.151001279607483,0,13.6830311956991,7.93149123840097,1,0.146311337071109,0.0917789351773948,0.107507492704321,0.632478774673206,0.871776946738136,0.0459338462306402,0.252133573696389,0.187231755500872,0.359601835410102,0.0244645750508326,0.0171481402959051,,,,,1.60994475744194,-125.481401659111,1.50584316097249,HoldLanding,HoldLanding,0,0.456088811259221,0.195961458113158,0.134685706715261,0.965213924787876,0.316785886444057
124,2.50615755910367,3.0,-0.397790973119408,-2.43943387416329,2.50615755910367,0.010822586428408,-0.005095195705443,0.01196199800523,-0.0189598271221876,-0.323474145783917,0.324673819874593,0.0209361514640986,0.194526311092719,0.195591741015971,15.4998594673367,0.243844803619406,0,10.7626162209296,9.37217111257429,0,0.155567827955935,0.111453830847637,0.110290460476025,1.02326909449581,0.256018083224117,0.0744087419788189,0.417726240884407,0.250341560088298,0.254744607141796,0.0001822848416274,0.0048867797224282,,,,,3.0,-98.4190936738779,2.17307896655888,HoldLanding,HoldLanding,0,0.70742703063084,0.1133075821693,0.0698425755949033,0.952744086899934,0.288737084405201
125,1.68750682625365,2.53669238090515,-0.919742604192168,-1.39266130102681,1.68750682625365,0.0065912706887666,-0.0002509919211243,0.0065960477740132,-0.0491501628023561,-0.10290470431763,0.117455699181209,0.0075767215463079,0.139022569045777,0.139632762001561,15.386006400219,0.182491666133385,0,5.7711222812859,5.35928558590769,1,0.160607338356843,0.123930123262593,0.0774484927166052,0.801474453887067,1.06533067135085,0.0718895711552884,0.252448364866192,0.165949063669801,0.446183828060541,0.0245865317380089,0.0169861928933419,,,,,1.70394137208591,-124.217456820887,2.22420889810912,HoldLanding,HoldLanding,0,0.477928372734618,0.192276025221824,0.13246975998797,0.949387459866915,0.3262448605912
126,1.62129371142308,2.54396605491638,-0.908123711683683,-1.31448451685768,1.62129371142308,0.0050037315117996,0.0026810496909454,0.0056767381908535,-0.0483930616223443,-0.0944223947931194,0.110521574681542,0.0071340051242612,0.179922964567774,0.180777815814339,15.3747721508453,0.269625315235201,1,11.4508440757453,5.21319566817264,0,0.0974259487092515,0.1224914982137,0.145457920070735,0.581212982903833,1.92256767204591,0.0455568826830548,0.157235031554468,0.101409045558139,0.430280895508255,0.0030898224604427,0.0050004669144706,,,,,1.67689753088332,-123.079868701553,2.32463021914232,AttemptLanding,AttemptLanding,1,0.468500552875688,0.208642012620984,0.128376813604716,0.957548996369582,0.354929313085272
127,1.6879769726719,2.41661834716797,-0.982528289645588,-1.35136854913789,1.6879769726719,-0.0004325437474608,-0.0011737648334458,0.0012509268474621,-0.0545457013092273,-0.094190845569871,0.112372866766464,0.0072476347696663,0.137993740757816,0.13860834481941,15.4099120686955,0.147305616990307,1,7.61815673607657,4.63007166956984,0,0.168512134180736,0.176447566208515,0.25846520788788,0.546193220676054,0.869124474459464,0.0509316948869732,0.251328910549919,0.123960965143101,0.317374503638628,0.024399472762444,0.0158909050616837,,,,,1.70122994362469,-125.926493707361,1.61679696354173,HoldLanding,HoldLanding,0,0.477848861676389,0.164173645850316,0.115126908558353,0.963413799237591,0.344906237714178
128,1.55514617697759,2.41695594787598,-0.81284647990399,-1.29969348556185,1.55514617697759,0.0003527456827027,0.004666387686736,0.0046797012254616,-0.0406610201182124,-0.0908873738954247,0.103200660646529,0.0066569141648478,0.172566308726294,0.173150899630001,15.3978282151736,0.21160349051819,1,13.7936084463411,4.69113989871382,0,0.0725476713658034,0.0332910905489145,0.22596102903235,0.551866219854459,0.859765194190687,0.0471450727698447,0.252740196183748,0.232325637183969,0.293757443263839,0.0247028741864589,0.0180290021005811,,,,,1.57271803987998,-121.511109536876,1.5,HoldLanding,HoldLanding,0,0.449335827120025,0.194765143676805,0.134394142163912,0.965336073933294,0.296744161251569
129,2.62925576804872,3.0,-0.419202695428893,-2.56389682703017,2.62925576804872,0.0077792131520715,0.0044747178671009,0.0089743666771263,-0.0173018061611462,-0.341969534651824,0.342908683640583,0.0221249077987174,0.196236777072422,0.198999671733963,15.4056765163214,0.164274862944473,0,10.5492053268091,4.34616380398262,0,0.0392956795551762,0.17447567483219,0.19549943071559,1.18867553279046,1.16392998193572,0.0373813470710342,0.135256563745623,0.095921101835048,0.392802740742083,0.0029598495427187,0.0047471702864094,,,,,3.0,-98.115524096488,2.07982504106379,AttemptLanding,AttemptLanding,1,0.740934805826452,0.0850627527465104,0.0540793840740715,0.962824568848777,0.957368399184423
130,1.73868925987106,2.46749138832092,-0.915137569612615,-1.45549589627818,1.73868925987106,-0.0010284033560398,-0.0126355894681977,0.0126773709684438,-0.0470089529689611,-0.104708055786711,0.117949051130457,0.0076100064297031,0.145568021774429,0.146187357290981,15.3609435973038,0.217961710651832,0,7.53386637793634,3.10628038722852,0,0.148475130556777,0.0907731597186318,0.0712458719939728,0.953763711905434,0.951848520270924,0.0615806985921961,0.251077110260781,0.109889711944292,0.387403810198876,0.0254748911057493,0.0153610048975773,,,,,1.70851046235541,-122.854304670078,1.90179236430304,HoldLanding,HoldLanding,0,0.492887940757144,0.166304663578768,0.116690791934794,0.954236983165373,0.351160128024759
131,1.54267530391091,2.1651611328125,-0.836874344333589,-1.28330364176413,1.54267530391091,0.0021338742360147,0.0017963983717445,0.002789348734944,-0.0387488251074681,-0.0878214264227167,0.0978545969985534,0.0063138074515789,0.114941306252019,0.115440788560133,15.384956357564,0.292726083578821,0,10.992288392794,7.90508850130849,0,0.173613154234129,0.0671904715401984,0.259641649066084,0.579188861005738,1.37688887765177,0.0766012572667733,0.25054326000425,0.0926973528125603,0.442911590981171,0.0245957584398773,0.0157249903202241,,,,,1.55679587126254,-123.368694018533,2.35992663581668,HoldLanding,HoldLanding,0,0.434468238754935,0.140570692104265,0.100992041756323,0.946330189134304,0.358801176527751
132,2.62192196192151,3.0,-0.610774978237539,-2.51760914459201,2.62192196192151,0.008445039274286,0.0038511386415778,0.0092817001234088,-0.0284147309712838,-0.330210704124956,0.332564378573349,0.021485489300157,0.193797134579932,0.196488311475188,15.2317612856603,0.25185113781362,0,8.35132905051099,9.62606538854176,0,0.142930487833811,0.15899980567974,0.0898722812573183,2.4377419236593,1.23827979914933,0.0457361300369462,0.158215388352959,0.181998421582816,0.504801601305771,2.6574365251789204e-09,0.0289327377866292,,,,,3.0,-102.159208261726,2.22108204201605,AttemptLanding,AttemptLanding,1,0.738476852140774,0.0867692035902844,0.0625825188940278,0.948248907159459,0.319111812629859
133,1.64160351350464,2.5089316368103,-0.803603939243817,-1.40644462919834,1.64160351350464,-0.0050336330486216,0.0050844025226074,0.0071546216308113,-0.0394133094544172,-0.106989842538295,0.117369420152477,0.0075717551447207,0.171939734132202,0.172603821786142,15.3956998097074,0.143009782433858,0,14.7216794670088,8.79400906976253,1,0.060331778945708,0.0639683454247899,0.110781201236612,0.565428110544105,1.08693074991524,0.0470390553041283,0.251957073784488,0.222750036664193,0.347591868403125,0.0244510800131353,0.0152050527055235,,,,,1.68420884954605,-119.152741236505,1.5,HoldLanding,HoldLanding,0,0.4722817012918,0.196460508376089,0.134272561772894,0.963497652730041,0.300999983704803
134,2.6112715340889,3.0,-0.582650321387542,-2.5130451754337,2.6112715340889,-0.0119527825734429,0.0152547877120056,0.0193798235127763,-0.0282342485671153,-0.338060381699919,0.340413059902344,0.0219799550308124,0.196840908342685,0.198846511987681,15.2684117074506,0.295688842498255,0,8.01803516606821,9.70990213306941,1,0.155089577514509,0.0364077056349039,0.141457764340032,1.73148509271697,1.17021575620774,0.0875221663720237,0.453506664770574,0.18252239082411,0.555268339497099,0.0242583066122644,0.0176486287247406,,,,,3.0,-101.974077911171,2.41799724043953,HoldLanding,HoldLanding,0,0.736108378154577,0.0910168724740058,0.0718092762624872,0.933439838715294,0.318878937411507
135,1.65746177598077,2.2769193649292,-0.779911078807254,-1.44950669288014,1.65746177598077,-0.0023013236628936,-0.0098807463916387,0.010145207728641,-0.033569684824005,-0.104342770435999,0.111008146311104,0.0071633276585829,0.112692635197791,0.113312083807334,15.386128566449,0.224353464027136,0,14.878584780795,8.58049909867882,1,0.144508599053039,0.0383907114294294,0.131168884854742,0.749881913219223,1.37904534845219,0.0582643074596932,0.251982962417767,0.20232391795602,0.467129350545347,0.0247496838810028,0.0179645013638035,,,,,1.64295583088074,-118.56675799978,1.81527513814464,HoldLanding,HoldLanding,0,0.464652223689673,0.141237912263646,0.10227515281133,0.954140560642735,0.310078258686214
136,1.54982494929164,2.24741792678833,-0.733957346337381,-1.34841007212,1.54982494929164,0.0018536065835856,0.0028094650562285,0.0033658507496443,-0.0306563196485909,-0.0968079253666069,0.103229975252164,0.0066605456260726,0.125764089519022,0.126596703373519,15.4311672225825,0.29202037072185,1,4.29393431606685,8.72253460516282,0,0.0560440196456023,0.0840877179398515,0.115323664879642,0.698643806828601,1.33041477022874,0.0320120835211932,0.122445630710606,0.107843012582552,0.365876870174802,0.0026932314654756,0.005582981359428,,,,,1.59091926420837,-117.420269890065,1.89288153155553,AttemptLanding,AttemptLanding,1,0.438605993819141,0.157575492574191,0.09777246234674,0.968051355133953,0.352069772185532
137,1.6320576734013,2.36943626403809,-0.790248570499889,-1.41365567575623,1.6320576734013,0.0067778852797671,0.0015212156501488,0.0069464973850093,-0.0360550015784307,-0.105670224098071,0.113250913706937,0.0073028525036124,0.116607697971427,0.117204043680453,15.4898946724489,0.239958993061485,0,6.55271205070754,9.73515059501733,0,0.0523128449054283,0.123844489892244,0.272031251249241,0.560765543099064,0.667719240319982,0.0700463343263868,0.251594849050322,0.0411846259374424,0.130188210537922,0.0245266317785098,0.0155655620512367,,,,,1.64400627564805,-119.681547410493,2.17338681981794,HoldLanding,HoldLanding,0,0.458656188309771,0.167183707413861,0.116871154065478,0.955324452395657,0.381695721805581
138,1.57573005059355,2.20240020751953,-0.810915579930067,-1.33832128039327,1.57573005059355,0.0029721410650449,0.0021802020830013,0.0036860417297216,-0.0362503429205733,-0.095088824253596,0.103434669080914,0.0066715208284027,0.11462418368356,0.11510330327141,15.4142789517727,0.160712230536551,0,13.5865606758899,5.99272954785612,0,0.09790074904056,0.121473908841034,0.165277603616098,0.565721920062153,1.08126212857513,0.0903019816546477,0.289059704058564,0.084076230263768,0.373767537023086,0.0629974927642181,0.0804727491381947,,,,,1.60523562484629,-121.327745837078,2.3446328989159,HoldLanding,HoldLanding,0,0.443215340812563,0.14167655962546,0.142267639316696,0.941908420219097,0.362632786549436
139,2.39657186572835,3.0,-0.502008018388232,-2.31537992143768,2.39657186572835,-0.0165885683866971,0.0089711844474186,0.0188590230794104,-0.0221063448035619,-0.304019223785911,0.305521971767488,0.0197110483049599,0.194291423126462,0.195890283825012,15.3909040609756,0.22593542062567,0,11.6270790098015,4.60285780897284,1,0.0771668498376011,0.167922793788821,0.0763455115227832,1.29419021114567,0.917821904767675,0.0815839677467474,0.452353372169955,0.18541023970903,0.437751559344352,0.0199510091931991,0.0072243335552925,,,,,3.0,-99.6944273233563,2.39548826379841,AttemptLanding,AttemptLanding,1,0.678263887625895,0.139228817775681,0.0950314362461285,0.941827920930164,0.317595449018209
140,1.49567580801639,2.14199137687683,-0.678311203445352,-1.32143816606567,1.49567580801639,0.0009484980563992,0.006709759486341,0.0067764681750552,-0.026558919172269,-0.0922979995693865,0.097100750443705,0.0062633099478769,0.108881824542348,0.109443340466928,15.4124541062313,0.129917472032062,0,7.85260658335903,3.86479045480441,0,0.0930797850085857,0.110557077372418,0.174741125842439,0.543717071169862,0.848850132450366,0.0482034937267541,0.250760585811524,0.247764039462666,0.327512230252571,0.0246042758697003,0.0162477779431657,,,,,1.52174770580897,-117.115006093661,1.54394050804824,HoldLanding,HoldLanding,0,0.420735550231089,0.14666335549236,0.104841529903707,0.964956653679607,0.289882649127704
141,1.54566016598157,2.42989468574524,-0.741715972365611,-1.33338218471051,1.54566016598157,-0.0008804756607817,0.0075318404438384,0.0075831298195843,-0.0338929547974144,-0.0965052454217947,0.104960755852534,0.0067703413906702,0.161554325726508,0.162138146794246,15.3882346619242,0.138984568321982,0,15.5670037799613,6.74874669731962,0,0.095001513778748,0.0873326369099649,0.279513303840135,0.593990411847222,0.878307653197721,0.0476847670579808,0.251352784929949,0.247105678001915,0.316011056540991,0.0248186712107786,0.0181207522757803,,,,,1.59025262603988,-118.88840106146,1.55516360591479,HoldLanding,HoldLanding,0,0.444603673620601,0.20034300741375,0.137825689450294,0.964589560245656,0.290175254221371
142,2.56522594646467,3.0,-0.63595569485189,-2.45225084762283,2.56522594646467,0.0059750185912284,0.0023666976255912,0.0064266713636613,-0.0302534972155715,-0.314435734491554,0.317203510005767,0.0204789968895098,0.208689294130413,0.211159738818407,15.3901909936836,0.218628032134896,0,8.81492398309554,4.07810615854355,0,0.0533811448302058,0.128933549505273,0.138300852851856,1.48886726279719,1.773550200095,0.0468977727243742,0.170371718499452,0.122769286394468,0.372436573209622,0.0011299301578185,0.0096393173233296,,,,,2.86513009173103,-103.173390896604,2.36664849383901,AttemptLanding,AttemptLanding,1,0.726292200154259,0.099002385128788,0.0634088285579181,0.950917833572231,0.34543587271357
143,1.76451420084236,2.55635070800781,-0.850899762930864,-1.53225557981293,1.76451420084236,0.0044627874405886,0.0064744385243366,0.0078635123160894,-0.0410720342381142,-0.126328864311999,0.134670647723196,0.0086906597443557,0.128387353663805,0.129097297776306,15.3884425084698,0.29568483871122,0,14.5476686412724,4.76180155173384,1,0.0420845935432916,0.0990762500407312,0.08207973326599,0.773689112381044,1.53428382365047,0.0774385389484662,0.250651135052654,0.124023708117859,0.375846221006379,0.0246166583422513,0.0154340871753038,,,,,1.79248213278172,-118.827132255119,2.40196415845743,HoldLanding,HoldLanding,0,0.496356579779889,0.179604858036844,0.124316047199581,0.943146657456948,0.344878351947618
144,2.66964703905552,3.0,-0.665282235845405,-2.54853320249109,2.66964703905552,-0.0143450526028248,-0.0051595625580573,0.0152447243323163,-0.0298745213307073,-0.332690018724391,0.335523176362408,0.0216499647992143,0.204020824517163,0.206194880744372,15.3816803033485,0.217901532145885,0,13.0241994149224,6.42220789678896,0,0.176327328030094,0.140910497462247,0.167941054201654,1.04578398898798,1.15582175663582,0.0506307503639161,0.251523195328329,0.239631368745438,0.330959871645346,0.0247113774727649,0.0150137975286299,,,,,2.99065240368585,-103.652251957395,1.5,HoldLanding,HoldLanding,0,0.753144853230346,0.0771242823400998,0.0627169665740834,0.957386293959569,0.293497169446472
145,1.61447072886009,2.47505640983582,-0.711361526961604,-1.4208154305477,1.61447072886009,0.0063519249916546,0.0009993021426097,0.0064300510007177,-0.0327262135013546,-0.109699940423334,0.117494016531491,0.0075815036172732,0.171211289226246,0.171770801129077,15.3901931884333,0.251561841186043,0,14.507477495263,8.29185357050145,0,0.108644421936914,0.0976440535807587,0.0929419027473469,0.934049069888811,1.21178274251102,0.0752781737125479,0.251650644575373,0.100553860794371,0.392495748972192,0.0248191825373229,0.0175826439201162,,,,,1.62717802274902,-117.276491250742,2.32115591297572,HoldLanding,HoldLanding,0,0.46487968792184,0.194810620903002,0.134310809034391,0.945500806046299,0.355309395202502
146,1.55756363063353,2.17618918418884,-0.688463962828869,-1.38553926347919,1.55756363063353,0.0053401290503905,0.0051502609375437,0.007419040773551,-0.0265547978192912,-0.101080707848698,0.105527801136796,0.0068157095504179,0.113285181096187,0.114116812248989,15.2885649763516,0.261879621806266,0,14.7575137209645,4.56807411695919,0,0.12882835169323,0.0806661987516813,0.161485696043829,2.0899836686052,1.16079345231327,0.0461135053654677,0.155592376742006,0.156272589055918,0.464070522804802,0.0021154525475623,0.0069645222467937,,,,,1.57859786558615,-115.506330805141,2.2899803238123,AttemptLanding,AttemptLanding,1,0.438173663952072,0.140550907025096,0.0878032988915965,0.951401427081478,0.330545515975148
147,1.55853891243105,2.35109543800354,-0.66066336114509,-1.39232807348784,1.55853891243105,0.0006176787495608,-0.0101245651724465,0.0101433893235336,-0.025820118984185,-0.0972016351459398,0.102186409777298,0.0065948306144645,0.124996089473273,0.125505809863311,15.3201000133919,0.174941580848373,0,9.40893368611439,4.51773658696511,0,0.147249258621811,0.106837640430307,0.181048762730399,1.39442537264618,0.719082725866429,0.0663204652222765,0.24987601653975,0.112466873300061,0.396571392508952,0.0250494924801764,0.0158728225784932,,,,,1.53737363016854,-116.223023798313,2.02269150994235,HoldLanding,HoldLanding,0,0.440711538620943,0.180184839629791,0.12501594702993,0.95023363232912,0.350014722977751
148,1.67640124177287,2.39366722106934,-0.75807550814526,-1.48231124796921,1.67640124177287,-0.0018991212984895,0.0005438694338542,0.00197546340575,-0.0329577659738964,-0.113940822655498,0.119978195330548,0.0077398990906634,0.118282773216267,0.118994725849781,15.3916229781263,0.292434216345232,1,8.27439614332959,5.12275788456399,0,0.109899003993144,0.0850562682842316,0.171649634813509,0.604066744165932,1.08934044818388,0.0488947109673174,0.251554848273152,0.228937187466519,0.353020232456641,0.0246899972703913,0.0168867211854942,,,,,1.68916796666871,-116.88139676066,1.56799153946565,HoldLanding,HoldLanding,0,0.470839276309388,0.161747013632759,0.114162166185464,0.962247302290736,0.298250138903769
149,2.62314798401351,3.0,-0.71118466687494,-2.49022727253655,2.62314798401351,0.006760122752425,0.004642629889607,0.0082008092234685,-0.0358001496738776,-0.322896332447884,0.326514425055531,0.021080168541061,0.200072226557461,0.20261961470555,15.3893884556957,0.162620926937121,0,6.20525346477306,8.96450717198301,1,0.0631390005921898,0.0771302592499659,0.257517230636097,1.12614214591122,2.0587070045379,0.0499116083481224,0.179305409504438,0.149644903688588,0.431348683953239,0.0004240420303233,0.0116451449321336,,,,,3.0,-104.467447061392,2.48566886877736,AttemptLanding,AttemptLanding,1,0.740030052011379,0.0862951852879296,0.0562001724544854,0.95002038107241,0.333491153916183
150,1.5608400338015,2.23735880851746,-0.719146179611123,-1.36790671966453,1.5608400338015,-0.0003862183683338,-0.0019942362229639,0.0020312909050699,-0.0294890219985925,-0.0967767943391438,0.103040101641323,0.0066523677846832,0.128251066101186,0.128784167814347,15.2610945798674,0.28155940606469,1,13.0105822958032,3.97020313904137,0,0.119036246699077,0.0313819465568825,0.249865338563702,1.49970917942682,1.01146519438314,0.0745255263182925,0.249754973659848,0.137017923298869,0.524024270535587,0.0244293068304637,0.018921087718949,,,,,1.55740833368322,-117.762259987245,2.26363541606918,HoldLanding,HoldLanding,0,0.441980842576602,0.152589127643687,0.109291341822804,0.943006581046633,0.339103145200502
151,1.69112583554309,2.29208326339722,-0.775600012736144,-1.48937071144479,1.69112583554309,-0.0010579172147441,-0.00885406407852,0.0089170420846708,-0.0334388387036254,-0.112159866940953,0.118493196549114,0.0076431213631459,0.115069776892907,0.115672513147513,15.4092512338848,0.169670485494662,0,9.16826502375795,8.66862403916901,0,0.0595250724605429,0.135867147554654,0.167255902411671,0.957157497836795,0.735206981580755,0.0636564597286597,0.251122950522171,0.0857263378276708,0.369371327065823,0.0250283620678949,0.017772880327235,,,,,1.69101625912663,-117.811995946369,1.98668646555251,HoldLanding,HoldLanding,0,0.474101392107661,0.136850212316034,0.0996967094377804,0.954874620654532,0.361899405409924
152,2.61639997313254,3.0,-0.540386167964301,-2.52924246095525,2.61639997313254,0.0036177290770571,0.0026989747361584,0.004513582645904,-0.0238249284902482,-0.333157474450717,0.334832572051735,0.0216312574690951,0.195897666484975,0.19853234968288,15.3062451012778,0.24351389145566,0,10.2949220765653,4.03084337314371,0,0.0791144582529379,0.116252665878645,0.136523401611297,2.24150777164661,1.42148688947113,0.0472325970298102,0.146083816978808,0.16217023285907,0.49026588279246,2.1835807371678502e-09,0.0052546271578244,,,,,3.0,-100.730250894483,2.26396922734971,AttemptLanding,AttemptLanding,1,0.737413129438586,0.0871374961969279,0.0541932722005732,0.947603029147741,0.327924340951525
153,1.66056753598875,2.34895777702332,-0.708458409452255,-1.48834932922195,1.66056753598875,0.0009064721982376,0.0024325499170727,0.0025959566531875,-0.0286383511755271,-0.117657080478372,0.122334549165089,0.0078891220500392,0.121012431973303,0.121581178435181,15.4560428358314,0.151608673286645,1,5.62628644082643,3.02872988196134,0,0.0324529801210646,0.149254169068095,0.225297813534147,0.717997976253992,0.62360445431302,0.0761840391838234,0.295086129366643,0.0690583009140586,0.280391874075824,0.0346864139813386,0.0545477406226807,,,,,1.69086530869602,-115.481230513615,2.13161897517214,HoldLanding,HoldLanding,0,0.467134245284035,0.155363729619196,0.128469963807835,0.951366818453633,0.369307421815974
154,2.42126603413345,3.0,-0.805170450802896,-2.25136828226276,2.42126603413345,-0.028850087545394,-0.0050323563774871,0.0292856989345813,-0.0388926852476665,-0.279735465923656,0.284546616703626,0.0183599052938125,0.202121374744121,0.203031794655461,15.4103791546988,0.217484204700318,1,4.31923829506834,3.97245579604919,0,0.145055208858003,0.146501969308426,0.159403450735983,1.53953165387117,0.650905804184754,0.103556070208906,0.761659553606246,0.167199600970238,0.354902334594911,0.0244123043457332,0.0172503977146852,,,,,2.8660583108225,-107.999041467264,1.81160184969528,HoldLanding,HoldLanding,0,0.68627730136668,0.135584187124646,0.0984732972135851,0.931011384867965,0.32568906623545
155,1.55906848174281,2.31239485740662,-0.681827766789164,-1.38479061524103,1.55906848174281,4.21199280248247e-05,-0.0009680451566223,0.0009689610485446,-0.0274367765760931,-0.099131544791339,0.104499868058739,0.0067406656481529,0.13156319956254,0.132109689068076,15.4002901539772,0.243780902851082,0,8.9077476178248,4.9344148276216,0,0.116460715061143,0.115745311718167,0.268107539589425,0.581602911590926,0.947006719969714,0.0557185233723469,0.25150100878129,0.115580911158868,0.369377849720646,0.0245026158448477,0.0169302092151056,,,,,1.56021062314875,-116.350158175446,1.76991346703326,HoldLanding,HoldLanding,0,0.442173532945031,0.169676077383257,0.118852137631137,0.96013023406585,0.348630706151614
156,1.5134958343761,2.11295676231384,-0.662817538372891,-1.35005376597873,1.5134958343761,0.0027284196043471,0.000878548621178,0.0028663777171126,-0.0244609579549512,-0.0955318546286068,0.0994856586048037,0.0064208144643563,0.100687006381994,0.101500834736129,15.4027622466187,0.278187629485821,0,7.61928759301313,3.92556974906952,0,0.0319545766544724,0.0673130602341352,0.276762711582345,0.585232534546717,1.74809257059412,0.0276885194897709,0.101659846221866,0.213942806936,0.4139581534637,0.0031698018205164,0.0047132410672106,,,,,1.5486906196655,-115.323008512155,1.70927518665662,AttemptLanding,AttemptLanding,1,0.423899056114186,0.135404211367462,0.0843652334722179,0.967822471571865,0.304914308028444
157,1.68388440919959,2.34600138664246,-0.740213811050731,-1.49726558649924,1.68388440919959,0.0032053906921604,-0.0053923847089713,0.0062731445335602,-0.0317258599034194,-0.114204028918605,0.119909153865966,0.0077413078900332,0.119630239048539,0.120272704644096,15.2217417875957,0.280210050547582,0,15.9190989093197,9.08736581563867,1,0.0441140411864958,0.174757474223725,0.0801178368834347,1.37520958468455,1.10173816611367,0.0661472444409244,0.248851623840676,0.190230598447827,0.588193271119293,0.0246688796373163,0.0153826930510614,,,,,1.67963675962339,-116.752551926055,2.00754127367739,HoldLanding,HoldLanding,0,0.473090383382043,0.150126396422464,0.106633490922975,0.947464645451838,0.315453067356521
158,1.55681801923608,2.37778687477112,-0.654753666181663,-1.39552183502617,1.55681801923608,-0.0035361957636036,-0.0066227616913386,0.007507706234183,-0.0250579982817418,-0.0984987148326065,0.103062804528444,0.0066491062123475,0.128780251995998,0.12933983199616,15.3791060019259,0.122491349710016,0,4.20286249893694,6.70749565789041,0,0.0889721426820607,0.171070389503571,0.217641585761685,0.577408723129914,1.1205525197362,0.0568320150471563,0.250746836988319,0.139864692762787,0.408042021441223,0.0240481999463768,0.0151568128070556,,,,,1.53324749594495,-115.000864111301,1.78206994597237,HoldLanding,HoldLanding,0,0.441019438195521,0.186094405304983,0.127856300341521,0.958242868425331,0.33783791432765
159,2.53632745017176,3.0,-0.73921110693509,-2.39459997092687,2.53632745017176,0.009492998607774,0.0053504999190808,0.0108970120652995,-0.0373312193262465,-0.300934745611137,0.305010104680544,0.0196893988570305,0.209185724344466,0.211548057422618,15.3833055202401,0.149140483207591,0,9.96895405051902,9.03029895663543,0,0.179945210501403,0.131657631347597,0.277658050251084,1.10328189586215,1.87308007751349,0.0458625679167178,0.172069536484771,0.11380076708157,0.422529045018921,0.0019723435961611,0.0060659290636268,,,,,2.78430276691677,-105.933145069938,2.36506191034171,AttemptLanding,AttemptLanding,1,0.718663598196993,0.106324109256659,0.066876855094618,0.953683014822261,0.34942188129708
160,1.70192351846591,2.57386207580566,-0.719575340430603,-1.51171921781426,1.70192351846591,0.001531637313416,-0.0131226200607835,0.0132117020144842,-0.0332284861974486,-0.116387396398769,0.124021017599603,0.0080099782693804,0.176686080189435,0.177265886532479,15.2392624748357,0.22611507356877,0,11.9905452904603,3.39945679464306,0,0.178404374061374,0.145975514764945,0.194336448404622,2.04317428402066,0.679291842640137,0.0686109235246671,0.249449875566994,0.176686875919198,0.528703926765011,0.0242587963707716,0.0173646651461802,,,,,1.68229936373703,-116.284080981345,2.02478945249689,HoldLanding,HoldLanding,0,0.489299448897406,0.198608320770766,0.136261103427878,0.94430373295676,0.321472499591468
161,1.60056535261907,2.31986880302429,-0.723911976888465,-1.40854315967471,1.60056535261907,0.0044914709360456,0.0076533210198483,0.0088739300088627,-0.0313527529600358,-0.108273474475402,0.114862209663616,0.0074123922808906,0.13620954866144,0.136788572884323,15.3706862242486,0.248919043265651,0,15.6883457537613,9.48980940364894,0,0.173394985800746,0.116216901659616,0.236593398251208,1.16240821257672,1.3014239275032,0.081518210466726,0.251585914030351,0.119815423350443,0.412681489052619,0.0245642593608349,0.015731854040227,,,,,1.63445116181305,-117.268187683498,2.4853725042645,HoldLanding,HoldLanding,0,0.454175141941949,0.163470163509467,0.114720220906942,0.939882213666009,0.346748700733137
162,2.57260177207232,3.0,-0.671715860287351,-2.45367424302819,2.57260177207232,0.0050054279037746,0.0079921813303607,0.009430231753104,-0.0317068228873923,-0.314557514000226,0.317451608780611,0.0205011489956592,0.194702162197196,0.197189624950736,15.3523457213971,0.144200693869896,0,15.1166366875124,8.48025376357013,0,0.0757954872870578,0.0951183533239034,0.062786091872422,2.1519597155108,1.50979728832855,0.0503987043637374,0.182346332644769,0.157531977591894,0.421215023780255,6.08180309127302e-08,0.0239013847424063,,,,,2.89081657121031,-103.869165643979,2.45009844353215,HoldLanding,HoldLanding,0,0.725465064209433,0.0978934771051297,0.0674275259269161,0.946029699930822,0.329985787736936
163,1.64802301009144,2.44712400436401,-0.675626673709059,-1.48535789797354,1.64802301009144,-0.0009114322400008,-0.0032875605285957,0.0034115631252101,-0.0274099801010507,-0.113038801700578,0.117841481992373,0.0075996871990497,0.13420623653287,0.134854135694009,15.390494541417,0.161791499070348,0,15.7978361139267,9.1416078400175,0,0.0708111112973036,0.179629249021166,0.0742745005104164,0.601123291541821,0.657742450154346,0.0558779166937464,0.250706052686142,0.0897536291834341,0.311005857533629,0.0245512398995364,0.0165335093204492,,,,,1.64906171874729,-114.380640755355,1.77394839561564,HoldLanding,HoldLanding,0,0.466443629829854,0.18042317695095,0.125177753555578,0.962169953682657,0.360109498140696
164,2.60894005716993,3.0,-0.838569989735408,-2.43577118959938,2.60894005716993,-0.0235923179592704,-0.0065466896419923,0.024483803053445,-0.0455816393911959,-0.308359068937076,0.314269504604317,0.0202826532147059,0.215754569863697,0.217548370821686,15.3921849738615,0.344677399000672,1,12.3423898091677,8.17779506376227,1,0.0741633219605425,0.113134508477161,0.0840604459941672,1.11736683429752,1.48863351834935,0.0785547584946359,0.251296102724063,0.148983939542531,0.418708908744554,0.0246130110821775,0.0149223369461334,,,,,2.86974882840161,-107.409446170029,2.19672700473057,HoldLanding,HoldLanding,0,0.739227022742986,0.0924771843632301,0.0718517309985099,0.940246903696171,0.333784915758875
165,1.705729786414,2.33345580101013,-0.800270054156612,-1.49298108047962,1.705729786414,-0.0015412157671285,-0.007093423898558,0.007258926135833,-0.035613253342538,-0.111741082523021,0.118723591010353,0.0076587857116644,0.112222779404298,0.112912525214937,15.3677577842374,0.239365220636756,0,9.30242049613074,6.62393827302022,0,0.0716385080968265,0.0895464901570251,0.243428679763621,0.632170602015128,1.01889514031076,0.0554012963283347,0.254593544681805,0.161639690017593,0.375473130231448,0.0246059834642292,0.0163519127021791,,,,,1.70066438927445,-118.076140138163,1.75744660401963,HoldLanding,HoldLanding,0,0.477443781420054,0.142569156409032,0.102423636569708,0.959326692431844,0.328160137769959
166,1.55298672312478,2.17910170555115,-0.743082096413419,-1.35316074571037,1.55298672312478,0.0037698969961634,0.0036963077805631,0.0052796604597582,-0.0302574150007022,-0.0961911431617055,0.101929355947328,0.0065752039128697,0.110041581401099,0.110853295890376,15.4188122557031,0.169175237725758,0,5.13436354710907,9.23204008326691,0,0.0917552560313468,0.13368088504405,0.250719049753158,0.561212746599808,1.07241671194868,0.0218616855304297,0.083716255353143,0.233479865712216,0.300519468342193,0.0032000155979057,0.0047323122297748,,,,,1.5818755043575,-117.768128957132,1.53061049281112,AttemptLanding,AttemptLanding,1,0.43630045201135,0.141843808796888,0.0882493552435848,0.976233497203333,0.296231170794571
167,1.69823852428703,2.48607659339905,-0.691692234572019,-1.53723936423777,1.69823852428703,0.0003342337767464,-0.0066116761832075,0.0066201188938804,-0.0274508580484329,-0.118973745510843,0.123228240482034,0.0079582017305595,0.114791703548804,0.115448235191861,15.2086361076449,0.151281080116114,0,12.2698797044121,6.38662190568584,0,0.0710604650026407,0.175367965151671,0.146643570960713,1.55232787615084,0.889791326717776,0.0659454480021084,0.250259345086185,0.167537398669328,0.541250371696942,0.0248449239223662,0.0188057113852014,,,,,1.69973286844467,-114.60986311528,1.96635330827015,HoldLanding,HoldLanding,0,0.475953253514913,0.178477254014083,0.1249669813221,0.947839196547835,0.325538933924743
168,1.59344275758184,2.59032583236694,-0.729317445263306,-1.39087160695799,1.59344275758184,-0.0033926978820217,-0.0044887775606488,0.0056266795632646,-0.0334645869393311,-0.101456122518407,0.109519174030695,0.0070626424655714,0.174157409449251,0.17458124809145,15.4244888115571,0.244721395747057,0,5.31018223184781,8.7073188902412,1,0.034776267471414,0.131207316380231,0.145619793024147,0.632339549616738,0.633033276459509,0.0601582047012512,0.28176085865715,0.233876503184626,0.323249925162171,0.0351298034510313,0.0552633058381041,,,,,1.60122796585367,-117.236533214506,1.75280911741751,HoldLanding,HoldLanding,0,0.459834318306781,0.22533024974658,0.170907143403676,0.959978682587347,0.2960548874735
169,2.50910196655171,3.0,-0.743386448674985,-2.36215979510722,2.50910196655171,0.0062461155719847,0.0095046873139134,0.0113733478217216,-0.0380846173892911,-0.293739795355152,0.298108752193608,0.0192364714278264,0.218406250961756,0.220682348264257,15.3733754270481,0.207412008881201,1,12.8275527244873,8.15880793333532,1,0.0880508450014068,0.0884088866733713,0.225460909381984,1.36888815694724,1.05267333444141,0.0372854589167429,0.136651802141,0.14573221897074,0.425008384215521,0.0018827372574845,0.0142064656332115,,,,,2.73453280736877,-106.252064921566,2.00487287047881,AttemptLanding,AttemptLanding,1,0.713230327399975,0.11253717129318,0.0735250623933316,0.962330715966432,0.335230124901893
170,1.47826528468283,2.33752369880676,-0.648982858788395,-1.30566507946495,1.47826528468283,-0.0009770615187446,0.006860359765093,0.006929587673009,-0.027229355005647,-0.0926964580385036,0.0987048982899836,0.0063669388854911,0.16104415197433,0.161565496918874,15.4123574110212,0.285104971340833,1,10.6286219786665,5.70641834534066,1,0.0578438939439257,0.154377379993963,0.183390167933549,0.571956224741865,0.875681023118525,0.0467020035171787,0.251638235048719,0.202237823079642,0.434886136515835,0.0247384158871012,0.0171691767577684,,,,,1.52065859676889,-116.006588270425,1.52860210222124,HoldLanding,HoldLanding,0,0.426517175299196,0.194603567584603,0.134000329058965,0.96527470557965,0.310116523075715
