scenario_id,mean_wind_speed,max_wind_speed,wind_velocity_x,wind_velocity_y,wind_velocity,wind_acceleration_x,wind_acceleration_y,wind_acceleration,wind_body_force_x,wind_body_force_y,wind_body_force,mean_wind_body_risk,mean_wind_gust_risk,mean_wind_risk_raw,min_thrust_margin_n,mean_abs_roll_deg,mean_abs_pitch_deg,mean_abs_vz,max_abs_vz,mean_tag_error,max_tag_error,stability_std_z,stability_std_vz,mean_imu_ang_vel,max_imu_ang_vel,mean_imu_lin_acc,max_imu_lin_acc,wind_speed_cmd,wind_dir_cmd,hover_height_cmd,gt_safe_to_land,label,success,onto_wind_condition,onto_gust,onto_temporal_pattern,onto_drone_state,onto_tag_observation
1,1.74854511488229,2.56552243232727,-0.788560235303279,-1.51460585785662,1.74854511488229,0.0771265264342874,-0.0208018923549146,0.0798825375496065,-0.0417318436108453,-0.122029813469717,0.133987298138509,0.00864255836696416,0.121197107517054,0.123907747957186,15.4390044737496,1.00459611755872,0.790949678328616,0.185072339180773,0.240111095571452,0.0895346392549503,0.22453169541202,0.159453521087372,0.0382490920513855,NaN,NaN,NaN,NaN,2.0716688985117,-127.374480982322,2.31472368639318,stable,stable,1,0.491060246893381,0.198465028309215,0.203856009325875,0.893355970584785,0.3602068269978
2,1.95494724313418,3,-0.782959425117289,-1.72216885317421,1.95494724313418,-0.00913867958848095,0.0140951054595835,0.0167984363122791,-0.048877242908223,-0.159798503101769,0.175547958439333,0.0113296404444287,0.189990301536013,0.191703640639779,15.4320249386346,1.70522949573898,1.53421353622961,0.0303935069012811,0.094321864240671,0.125043917312817,0.423526180442683,0.00403456457201396,0.0055622379680919,NaN,NaN,NaN,NaN,2.42882567996652,-126.095851442396,2.25979397863806,stable,stable,1,0.559659992963737,0.238216583618727,0.146745721969417,0.959350479869606,0.344424925638748
3,1.7494484917212,2.69886088371277,-0.893479203075267,-1.44862738868417,1.7494484917212,-0.0433459961889753,0.0105278448190577,0.0446061756055014,-0.0505945673573143,-0.112039411736864,0.129538530090845,0.00835708239287935,0.128011986841152,0.129080199992425,15.3969037865316,1.28156000996177,1.01810520749128,0.0912969691755163,2.72516512124861,0.0922488971491406,0.223651483972964,9.61012300484609e-06,0.00308272752626183,NaN,NaN,NaN,NaN,1.87319628751653,-127.297520073929,2.47743170680809,unstable,unstable,0,0.492335637790806,0.221795587059111,0.134202615228978,0.936282717275111,0.359000490155938
4,2.24162515283497,3,-0.61559959246197,-2.12218827891253,2.24162515283497,0.00352618968024592,0.0150586377419744,0.0154659815176758,-0.0304812683902091,-0.244478746521841,0.248111039537793,0.0160091307359041,0.219510028654072,0.221087485798378,15.4637230886465,1.31283046035496,1.14268245268919,0.063636133845637,0.240155078213531,0.0963043264632415,0.220289586940676,0.00191588239297426,0.00783344901972862,NaN,NaN,NaN,NaN,2.46779887999601,-105.553838771394,2.18721143263961,unstable,unstable,0,0.641984204582334,0.173469770557039,0.107781892536255,0.948888617331835,0.357198077127448
5,1.73150445281209,2.34281134605408,-0.574270302006169,-1.6013788561165,1.73150445281209,-0.0550458150957611,-0.00847173000520342,0.0556939132117486,-0.0223457488511144,-0.136420748226114,0.140395267737761,0.00905655089360775,0.145654439772252,0.148031937355577,15.3846280054218,1.07643591815894,0.762874907867535,0.181378534304369,0.240217124005625,0.156863952573753,0.349699991502455,0.15674309339632,0.0414893224522493,NaN,NaN,NaN,NaN,1.88084050141636,-125.058018224367,2.37472327794406,stable,stable,1,0.491340908221006,0.147754601734935,0.173403384452264,0.894859004929036,0.330282687744999
6,2.40583627859751,3,-0.290006835487037,-2.33073822619164,2.40583627859751,-0.0309697224427065,0.0441972061531998,0.0539677379545106,-0.0131453763924059,-0.29258543203878,0.294662065145399,0.0190337930353679,0.228301883972486,0.230770139914946,15.3445151296541,2.02477714599229,1.97535781592068,0.0313284628972866,0.0645333337328452,0.127615345570728,0.456109241595669,0.0146083371120567,0.00638885724420525,NaN,NaN,NaN,NaN,1.9161886291726,-122.783489357006,1.71745089675656,stable,stable,1,0.687710368942326,0.14358092260722,0.0949643686524316,0.952906136707755,0.343282068635232
7,1.89664657937514,2.73011445999146,-0.979870983157808,-1.58005340143261,1.89664657937514,-0.0727039503277421,0.00765713765383098,0.0731060609683527,-0.0578203472401641,-0.133425727187832,0.150716675577911,0.00972064960974688,0.141794994858357,0.144179072901724,15.4136005019551,0.802293434121163,0.907697706958578,0.175792976727632,0.240241201295398,0.139904802689237,0.443778632171727,0.156689757525379,0.0422586686592516,NaN,NaN,NaN,NaN,1.96867067391655,-123.586570068552,1.87840255385116,stable,stable,1,0.534608235747048,0.200933050982869,0.205566511426587,0.898667866956272,0.337820087693672
8,1.83249204867595,2.62119507789612,-0.946621241238219,-1.53533821246656,1.83249204867595,-0.0336141908404551,-0.00687258070555965,0.0343095641390701,-0.0516922090657578,-0.126124486199813,0.140110271399338,0.0090379247681381,0.127158187113975,0.129445537397179,15.4278459853823,0.963449139940767,1.0113639643929,0.177207641082852,0.240236988700465,0.163806637105787,0.438768853957114,0.156932145342759,0.0400939394188033,NaN,NaN,NaN,NaN,1.96461919299708,-125.030810267647,1.57927895173051,stable,stable,1,0.514553653793022,0.183748268333367,0.194576195486468,0.895879790781667,0.327197050175206
9,2.5722285421397,3,-0.551423573958593,-2.47620573826206,2.5722285421397,-0.0215877401800978,0.00762675357357819,0.0228953684433227,-0.0252577112391638,-0.320447595469866,0.322644923555401,0.0208304721214228,0.195049508712191,0.197608833321801,15.4031125799813,1.95144057929598,1.63276746488405,0.0232024984306313,0.0670040798095079,0.117979314308868,0.500563671687676,0.0042439649022688,0.00565626382088497,NaN,NaN,NaN,NaN,2.98365709536118,-106.900241715489,2.16931086042763,stable,stable,1,0.725449377901613,0.100446062233177,0.0642106671707314,0.960237116151841,0.347564749196059
10,1.86159767872757,2.78109860420227,-0.918753593486405,-1.56615160293837,1.86159767872757,-0.0618794227592914,0.00735397674973834,0.062314877317209,-0.0532192761972011,-0.132863718161194,0.15041988661841,0.00970604149472176,0.202606208885869,0.20526512778676,15.3419031226257,1.09669375721479,1.19780833113764,0.181018721420324,0.240272865287127,0.157338075641354,0.465086204092336,0.159075456844295,0.0382301030548034,NaN,NaN,NaN,NaN,1.92399487038037,-126.353098118705,1.76912847059518,stable,stable,1,0.537479073218038,0.218312102406628,0.215589320142178,0.89146240859564,0.330071966381621
11,2.38155148957522,3,-0.506237780386795,-2.27681881953175,2.38155148957522,0.00626190842693653,-0.0223563624073076,0.0232167706030407,-0.0229784189226634,-0.27826863866233,0.281478545813312,0.0181616414442519,0.213934738545087,0.215705225505574,15.4213239896994,1.48898635277145,1.11986940038741,0.06753583586064,0.240421859321398,0.0978376827818702,0.453217675552086,0.159721606947395,0.0345352438970475,NaN,NaN,NaN,NaN,1.90759543141243,-127.844704273722,2.27001807153114,stable,stable,1,0.678221442321173,0.143407322789467,0.169590045047206,0.945733929723432,0.35651658543028
12,2.40355002919833,3,-0.670777657028432,-2.27809566964021,2.40355002919833,-0.034798677691372,-0.0379762666659648,0.051508686635872,-0.0320266849730068,-0.277190160919743,0.280597768520383,0.018109702035136,0.172120614555424,0.174592911690712,15.4306680959368,1.68442277097482,1.51383527230749,0.0261445690720789,0.0715800000928885,0.112753955651096,0.370796535685128,0.0106640287630307,0.00852801215942548,NaN,NaN,NaN,NaN,3,-106.299635778902,2.39024371236854,stable,stable,1,0.67586525679103,0.143644502646953,0.0940273652579965,0.961798545123885,0.349887130821735
13,1.82696365824652,2.90103006362915,-0.717107964590184,-1.62747143690664,1.82696365824652,-0.0252609882499092,-0.00730015285326985,0.0262946716854034,-0.0398857423127108,-0.150959504813563,0.161285509407224,0.0104127229009287,0.210715294696641,0.21162685378929,13.9370052260259,1.09855146622926,0.708612995425263,0.075704505122584,2.84175073329959,0.107380808487317,0.347913890606904,0.00793977109233004,0.130551600842968,NaN,NaN,NaN,NaN,2.02726066309477,-121.319262228342,1.80136654347287,unstable,unstable,0,0.529515679623596,0.246485631020083,0.198893475161639,0.947948598097137,0.352275196227859
14,2.25330260733524,3,-0.532575514815912,-2.15701455226452,2.25330260733524,0.0110432002139485,-0.0145216545860172,0.018243648836813,-0.0254806843466824,-0.249718351359292,0.252249136760338,0.0162808065376397,0.187450357650562,0.188517637866837,15.4115072821404,1.66420079120748,1.30831721680747,0.0622330373132287,0.240146441870413,0.117707270930803,0.260024998095919,0.00189690800033991,0.00831345346481645,NaN,NaN,NaN,NaN,2.96211416560549,-104.652706865072,2.36026646352178,unstable,unstable,0,0.638584222862765,0.171351582302987,0.106677093591371,0.945527982708983,0.347685657364087
15,1.76207951380282,2.60576105117798,-0.86635245710164,-1.50348928274336,1.76207951380282,-0.0603981638394779,0.00425617361004848,0.0605479414099215,-0.043610516719716,-0.121643888780736,0.132190875641477,0.00852622547011681,0.139216831659913,0.141293509382193,15.4279550057158,0.917527046940743,0.877232976505101,0.176296121241133,0.240188009577942,0.121236531860531,0.370326751271506,0.159312941377839,0.0368713512854455,NaN,NaN,NaN,NaN,1.78867162897179,-121.8764556945,1.91700434474695,stable,stable,1,0.498146572223857,0.200928801834563,0.20477079692802,0.897750253480931,0.346117096950875
16,2.50940365433693,3,-1.23061811915743,-2.15173276577095,2.50940365433693,0.00949491608885569,0.00911137268841162,0.0131594279435522,-0.087272470959841,-0.245595270899704,0.266741921633409,0.0172169432870504,0.210261848065097,0.212099608652873,15.4146823716834,1.80338556604173,1.66893693030497,0.0179688232240016,0.0514578371810354,0.117534682391682,0.423431227652045,0.00112074192435718,0.00525327927734629,NaN,NaN,NaN,NaN,1.79698325918466,-123.928221238646,2.26845507520962,stable,stable,1,0.711594229553756,0.112796739563842,0.0700864346338223,0.963733054488132,0.347762363381475
17,1.91786811059835,2.68272089958191,-0.99868897230653,-1.61379309369423,1.91786811059835,-0.0472861941688772,0.00913309094546011,0.0481601236418139,-0.0556047555248244,-0.138977808421207,0.153414774031339,0.00989776647714043,0.141247883618508,0.143417643201827,15.395261059815,1.12277906207037,1.15316924231813,0.176488785652804,0.240239467479933,0.178211279877968,0.470048694610394,0.159562694821369,0.0349200284094523,NaN,NaN,NaN,NaN,1.90606506718967,-122.683382350962,2.3371593668318,stable,stable,1,0.540115024799925,0.1809212335223,0.192167685516213,0.893873156210545,0.320794986720903
18,2.0251701486354,2.84072494506836,-0.740221703649404,-1.85714929644439,2.0251701486354,-0.0592270569444271,-0.00979254285366991,0.0600311433327683,-0.0335064253042009,-0.18201677897062,0.18764944150791,0.0121058921759362,0.128011218422638,0.131191759790848,15.4206085921635,1.07086920298804,0.98892486887115,0.176304349065752,0.240261112709995,0.188374753558117,0.427021187551419,0.158401469460689,0.034912170210347,NaN,NaN,NaN,NaN,1.87952489310621,-124.36494621675,1.99653261661669,stable,stable,1,0.566283724927609,0.194505538808424,0.199799311000638,0.895663729188231,0.316277887307504
19,2.58369194904963,3,-0.955455320397169,-2.36594803533598,2.58369194904963,0.00719164893398415,0.00477805977110939,0.00863421505210343,-0.0563532854834832,-0.293178291094839,0.301836467029817,0.019488433060598,0.207299626042406,0.209619818165814,15.403443298024,1.83013875265168,1.9613759702046,0.0264656569058352,0.0516461174778485,0.136328535240332,0.441894697118984,0.00637668021669406,0.00674560932913225,NaN,NaN,NaN,NaN,3,-106.031594526481,1.83122523419183,stable,stable,1,0.730908483379731,0.0952522508900518,0.0624383794772968,0.95697669872464,0.339409539893186
20,1.91972167151315,2.75539326667786,-0.784666130228673,-1.69249603461161,1.91972167151315,-0.0398084666398637,-0.000598502965445655,0.0398129655014141,-0.0424689687568036,-0.153414077081427,0.165492040364619,0.010674618156444,0.170636451469196,0.173157001102764,15.4361455278522,0.992561819629303,0.88012762757789,0.17628421324566,0.240260908584144,0.162491615151672,0.44379441569832,0.15945439992177,0.0350259004402496,NaN,NaN,NaN,NaN,1.95533603544456,-121.682915799118,1.74306730722636,stable,stable,1,0.546557179290726,0.195325152587319,0.200800404809026,0.897143904863399,0.327781504377035
21,2.27178012457474,3,-1.11300364889556,-1.93784714520336,2.27178012457474,-0.00902949320012635,-0.000361805595182033,0.00903673894387975,-0.0723832473907832,-0.205042284324278,0.224539732690296,0.0144826664976417,0.212301289802253,0.21398728836593,15.4430492397571,0.995205411436656,0.831302350935672,0.071047517873198,0.240155803947208,0.0878501143966123,0.44170796869521,0.156016991972065,0.0327499660130049,NaN,NaN,NaN,NaN,2.01006102178809,-122.843348050567,1.5,stable,stable,1,0.648605490893117,0.165506207443728,0.180553688337338,0.950125108644761,0.360955504712617
22,2.05116503286843,3,-0.476204625296616,-1.97463095238025,2.05116503286843,0.00833747038658659,0.000370914144477788,0.00834571685056365,-0.017207630258643,-0.221876018553194,0.22330959209544,0.0144047026538694,0.196517576439261,0.196545628944007,15.45119822701,1.1265502356152,1.0409884135756,0.041952434962569,0.0841912863393589,0.114822068003833,0.423956738053616,0.0243663141861146,0.00569119206263541,NaN,NaN,NaN,NaN,3,-105.373889448931,1.55867029358945,stable,stable,1,0.58628646788705,0.215017915693872,0.141909746774343,0.961993121703645,0.348967969776074
23,1.78127296124301,2.61067509651184,-0.711481092871218,-1.60489128418186,1.78127296124301,0.0024053736770915,0.00173570040487468,0.0029662229218194,-0.0307700853636926,-0.137992252841419,0.143865381490368,0.00928083251709398,0.12740409739069,0.128063780470376,15.1321032035288,1.08683951624523,0.766632754415134,0.0677729912868885,2.41143014883294,0.0942188440272717,0.360154989566636,0.00343338391802683,0.0553474492026882,NaN,NaN,NaN,NaN,1.75191981509009,-118.497538474994,2.32961840538039,unstable,unstable,0,0.500618879092212,0.187159287971153,0.133947866355318,0.951550507944224,0.358124958210102
24,2.2163579139379,3,-0.564970461372838,-2.12024249504884,2.2163579139379,-0.0329250882829736,-0.00673098928747962,0.0336060657505423,-0.020145134762662,-0.231493028089288,0.233101917902265,0.0150373935238471,0.151531373917505,0.152871123990181,15.4049346527593,1.36404265230329,0.841169671861191,0.0598816307171412,0.240313286689961,0.110340217473597,0.262626558704299,0.00185196259734386,0.00741031302041652,NaN,NaN,NaN,NaN,3,-102.185830974197,1.96635522851552,unstable,unstable,0,0.621603001848143,0.182480581418239,0.113006102618803,0.952732516380137,0.350959903345068
25,1.79692492314747,2.64966511726379,-0.694915717893563,-1.63054404516329,1.79692492314747,-0.0547839639230712,-0.0126039507303154,0.0562151427743146,-0.0289298651399786,-0.144818584804803,0.149883103182718,0.00966842681261731,0.148026467896625,0.150252547226319,15.4214864456755,1.0392121694596,0.927094349054262,0.175989695416716,0.240229012163831,0.172092770721857,0.458075227111541,0.159519678265493,0.0365012988545629,NaN,NaN,NaN,NaN,1.79680657025774,-122.144595008979,1.92700616475698,stable,stable,1,0.509230488951257,0.202172653184796,0.205474426279019,0.896555601074747,0.323514324123619
26,2.34371426701546,3,-0.989984146802465,-2.07980785133892,2.34371426701546,0.00674768886973506,0.0796938602058517,0.0799790138698432,-0.0588109030006007,-0.238047833429914,0.250714963629188,0.0161862533773338,0.209627681205677,0.211934555453281,15.3574872197635,1.72953406189828,1.4225507605303,0.0390852691056093,0.0994086123211832,0.158221180862895,0.459321660501992,0.000648620380825926,0.00546926504645384,NaN,NaN,NaN,NaN,1.89015622586425,-123.159855511628,1.5,stable,stable,1,0.667377382294778,0.162327109130993,0.0996733648566635,0.955690984699542,0.329679475172047
27,1.90907078494831,2.78159093856812,-0.556855368305099,-1.78571672858756,1.90907078494831,-0.0280688377099224,-0.0547424037388689,0.0615190248418754,-0.0225448298045679,-0.176601111275408,0.180860741363169,0.0116688817068078,0.16709296620349,0.169565166808804,15.3470854241427,1.22417036713867,1.13499619972121,0.17681962157646,0.240215389623781,0.152358788078428,0.468415490968405,0.159582649745277,0.0375731470332434,NaN,NaN,NaN,NaN,1.77620387229689,-117.832865156267,1.67194698274102,stable,stable,1,0.542998576014643,0.207595522452133,0.209145898137835,0.893053880472157,0.332284983076254
28,1.74536726598082,2.39953351020813,-0.96537708520006,-1.43953176628282,1.74536726598082,0.0184735079476317,-0.0831288769269297,0.0851568005212962,-0.0512915537782323,-0.110179128994379,0.123943829728337,0.00799273854363585,0.113162825898181,0.115781218185963,15.480645895803,0.637856027822462,0.78264485240845,0.159097034963911,0.240202166730562,0.108417534974136,0.358083493802551,0.156878015067654,0.0416136675215203,NaN,NaN,NaN,NaN,1.77693740749085,-123.63065316624,1.58003598953723,stable,stable,1,0.488587514565411,0.162799485046716,0.182535496015419,0.909290404173373,0.351814428900384
29,2.62075221618017,3,-0.522971805731407,-2.53508920821162,2.62075221618017,0.00628238429796344,0.00424333891276313,0.00758117916922344,-0.023313470546573,-0.334433464668311,0.336075869025085,0.0216924962844521,0.197705497673381,0.200443816478851,15.4074657568544,1.97548892681495,1.29443692437046,0.00685060764396431,0.0378849888365297,0.111150470369828,0.40906507368587,0.0021419336856252,0.00552840455408082,NaN,NaN,NaN,NaN,3,-100.208461528465,2.33486963272973,stable,stable,1,0.738956020943814,0.0867206342071537,0.0549946799799934,0.97088242163299,0.350599790946743
30,1.87813714352147,2.5492308139801,-0.93382371439054,-1.61533099109132,1.87813714352147,0.0481230260828938,-0.0589718260804214,0.0761150570559751,-0.0480276456851935,-0.137676367792165,0.147757298440982,0.00952940597131729,0.126630491443788,0.129597780314293,15.4712029761573,0.825468611221068,0.8691891443837,0.161115510812502,0.240230325899063,0.162891968786329,0.367207737621877,0.159681005374522,0.0366043214666207,NaN,NaN,NaN,NaN,1.90894849737311,-119.745808657761,1.84597304746228,stable,stable,1,0.526756127668585,0.16495050298012,0.18325029986158,0.906127076513997,0.327603569428298
31,1.89258472467291,2.67131066322327,-0.899165786456515,-1.64375853506563,1.89258472467291,0.0572923903588257,-0.0938748816802339,0.109976867583624,-0.0462845250218248,-0.14430611317859,0.15444956007258,0.00996148625140111,0.139770198636337,0.142827485558616,15.4717543085099,0.942591479530545,0.854313834623274,0.161755671400837,0.240246991905406,0.109969374732355,0.380807039440717,0.1596035824179,0.0358039142914028,NaN,NaN,NaN,NaN,1.95935225919259,-119.13516242978,1.73330783112162,stable,stable,1,0.533254757024499,0.195375761897495,0.201179987854437,0.905003622545516,0.351124722341175
32,2.6299819513162,3,-0.636600796710935,-2.51946084605048,2.6299819513162,0.004503532599618,0.00220202100943975,0.00501305320157647,-0.0300406826722985,-0.330156922865701,0.332748842865309,0.0214843227771318,0.192532159232139,0.195131207969848,15.4066661167993,2.02160003242204,1.76693337183842,0.00758546145541614,0.0485220479280647,0.12152789171284,0.391983756495795,0.00162925308667496,0.00500499604432034,NaN,NaN,NaN,NaN,3,-103.01941117063,2.35229884507068,stable,stable,1,0.740354761944956,0.0841731207074779,0.0530479834690244,0.96644022109596,0.345987603683182
33,1.89414556992465,2.91908383369446,-0.771430464685012,-1.69677781472846,1.89414556992465,0.089131248915147,-0.114592861729743,0.145175423169991,-0.038118108568378,-0.15820172965044,0.1661994694825,0.0107192487161435,0.185695430151199,0.188884559124767,15.4332065403136,1.00133842143304,0.835441760352298,0.162023238464283,0.240293788289893,0.132911900249136,0.411608833358929,0.159687524808615,0.0344260589476785,NaN,NaN,NaN,NaN,1.93692079365451,-115.089103932968,1.7905876809627,stable,stable,1,0.542882397138194,0.257226603596038,0.237826762295961,0.904556536482402,0.340928044333717
34,2.67878810554817,3,-0.58350292400648,-2.57561657727765,2.67878810554817,-0.0275309225973642,-0.00679285444975237,0.0283565613330951,-0.0245518041564557,-0.341086631089692,0.343020851329772,0.0221286338713687,0.201505935876962,0.203586576621169,15.4234978246826,1.4571883109386,0.675675079534793,0.0481537516099139,0.240386664864217,0.109065793946189,0.436862721633237,0.00189119538438891,0.00694619255346391,NaN,NaN,NaN,NaN,3,-101.157933097739,1.71036082214915,unstable,unstable,0,0.755060810137078,0.0774713791627298,0.0498492469808481,0.959164911841324,0.351526313801694
35,1.82536901533604,2.69487261772156,-0.785729369063288,-1.61643169417877,1.82536901533604,0.075366247185941,-0.118506209827211,0.140441421890065,-0.0384894223982521,-0.143457380485126,0.152032920920117,0.00980427838984349,0.183114409968823,0.1858719046789,15.4659263999969,0.890844317426079,0.688396348397962,0.160884841687764,0.2402645310914,0.125572055517626,0.401368573953207,0.159582597393705,0.0358385801646409,NaN,NaN,NaN,NaN,1.86137587595629,-115.841095627455,1.53828626931233,stable,stable,1,0.523939451692056,0.221385904549921,0.216789352540559,0.907149259638929,0.344190197547722
36,1.96806214769681,2.89122557640076,-0.888341894202601,-1.74178109984066,1.96806214769681,0.00394987551679087,0.00325893974289106,0.00512076213526256,-0.0439654726156164,-0.1591893443777,0.166800563060994,0.0107655517920826,0.136780199103257,0.13806025145512,15.4119374679532,1.73270449669241,1.44443982346592,0.00683087627158319,0.053125716229919,0.100216891037934,0.42171652458367,0.000139085892884385,0.00431893499460316,NaN,NaN,NaN,NaN,2.00134863438598,-116.022448666907,2.07481889514999,stable,stable,1,0.552428623010174,0.208650577849852,0.126822684478524,0.971621285062964,0.355459159538696
37,1.80974281142498,2.64106416702271,-0.786210688376092,-1.60058347364996,1.80974281142498,0.073648286958252,-0.124774885893352,0.144889069020351,-0.0382817618404687,-0.14099712551205,0.149466916493251,0.00963918867315494,0.176969730373424,0.179827382810769,15.4851253263717,0.833497552863656,0.737696817905864,0.161494252606869,0.240171130696227,0.130571855389683,0.370752190308952,0.159559503661136,0.0339409832896759,NaN,NaN,NaN,NaN,1.84847057739295,-116.145839673518,1.5,stable,stable,1,0.518563559608815,0.213610300996553,0.211423691300137,0.906907775069091,0.341968064271252
38,1.93784246810021,2.68552255630493,-0.73608792191553,-1.77942783353111,1.93784246810021,0.0354575676291021,-0.0338605823785716,0.0490283401839016,-0.0310347195744393,-0.168714346676634,0.172606211551587,0.0111335437243147,0.122594296609998,0.125841093565902,15.4655108706978,1.03352747558065,0.869384487327332,0.162456473630117,0.240283553471242,0.166426115459791,0.344618554298484,0.156826797664709,0.0409347812226896,NaN,NaN,NaN,NaN,1.9993932608471,-112.620106358339,2.40783797897191,stable,stable,1,0.54192621020657,0.177216548879778,0.190916103280029,0.903820312047807,0.326032837573426
39,2.6160869873487,3,-0.623194498775364,-2.50714872576739,2.6160869873487,0.00790641862326296,0.0023233034909882,0.00824070352321434,-0.0294729990810139,-0.327333757289792,0.329850812121798,0.0212868754018613,0.200719396602941,0.203323785091734,15.4394957166391,1.67522041213826,1.30972818665897,0.0062067076538792,0.0210084093396219,0.0971532133763139,0.422983394558385,0.000311751877165202,0.00730356892103737,NaN,NaN,NaN,NaN,2.9987372183553,-102.731971335258,2.18370817297443,stable,stable,1,0.738287953644668,0.0878912234924644,0.0555291337293434,0.973443478611082,0.356820794054972
40,1.90621616229538,2.80670976638794,-0.252463032942711,-1.8646793102811,1.90621616229538,0.0807882966297016,-0.0531533836768132,0.0967058998646058,-0.00840053965319473,-0.190479484429916,0.190962136835484,0.0123157279904547,0.184579137485473,0.188215786557985,15.4595397126488,0.971254103451797,0.613278181535849,0.15865343101382,0.240308329139571,0.139937990143597,0.39619323346657,0.159728467439126,0.034967783371882,NaN,NaN,NaN,NaN,1.96262077332345,-97.9255988407311,2.18758549266088,stable,stable,1,0.545967467257032,0.220340475896003,0.215910273100322,0.908223387968187,0.337805337713957
41,1.87000233332316,2.86334085464478,-0.228859829127684,-1.8262787481612,1.87000233332316,0.0860953732341255,-0.0662510666221783,0.108635248059273,-0.00830863962655339,-0.181988146355437,0.182539559002388,0.0117719454245764,0.175839843193166,0.179365141528275,15.453141001187,0.805594654960614,0.581725677193795,0.155283974481667,0.240267300161048,0.153471783059526,0.38671808140798,0.156640937226689,0.0392410454100546,NaN,NaN,NaN,NaN,1.94919332297993,-97.076725643542,1.5,stable,stable,1,0.534540317191831,0.243417629441563,0.229938243046112,0.91145763872081,0.331790318640211
42,2.6106711212794,3,-0.652035623340487,-2.49469298550625,2.6106711212794,0.00810304196818597,0.00599364538573911,0.0100788428972861,-0.0313678410510869,-0.324009720685892,0.326811966904663,0.0210910315345488,0.196156878360875,0.198689169937592,15.4498202142907,1.62536029108585,1.44385707691399,0.00822140317691102,0.0445679312589934,0.106432305732144,0.370948363960177,0.00257091448590736,0.00473207583462808,NaN,NaN,NaN,NaN,2.97766096785849,-102.83550377438,2.39120192492857,stable,stable,1,0.735916799662025,0.0894467855766378,0.0565314548553416,0.971774019091546,0.352696753007936
43,1.82490712455195,2.5584397315979,-0.209681861566096,-1.79303787644574,1.82490712455195,0.0793708348787345,-0.0723535860718031,0.107400050497182,-0.00587965826578517,-0.172581412057835,0.172862606579914,0.0111491035033061,0.162497371953164,0.166062563201359,15.4583024338734,1.08102114174501,0.710279860898212,0.159933784168036,0.24023987736821,0.125737668869369,0.365476514401537,0.15965666390761,0.03443771719498,NaN,NaN,NaN,NaN,1.87761184680711,-96.9149867627548,1.94480446374181,stable,stable,1,0.519854412520792,0.184734845843155,0.194322231050884,0.905958600038071,0.344116591613614
44,2.47868568644804,3,-0.600153021556394,-2.37244928637177,2.47868568644804,-0.0179768012869213,0.0102567901781701,0.0206970318951405,-0.0283986089239818,-0.304861389543692,0.307478742677705,0.0198428106589194,0.222412402546817,0.224108249891328,15.4160967423785,1.63455629879588,1.13950122548161,0.0524999762596727,0.240404944143803,0.113896713101027,0.343031711718688,0.00192391186575065,0.00805538056391186,NaN,NaN,NaN,NaN,2.70268226585959,-102.84402520654,2.31123827462073,unstable,unstable,0,0.705804499697743,0.121090176396633,0.0764384070742815,0.951953845607983,0.349379238621766
45,1.66631569641608,2.44316363334656,-0.196289474910785,-1.63749586808413,1.66631569641608,0.0011962384490799,0.0117304589281804,0.011791295649452,-0.00494033738957173,-0.143085712393272,0.143312333634801,0.00924258225257247,0.135017188143226,0.137707850142808,15.4562292878685,0.75958996121447,0.668161918422579,0.154764375834409,0.240189076863029,0.136131544346963,0.431164843291398,0.159214769781117,0.0343430448899489,NaN,NaN,NaN,NaN,1.74484723470437,-96.8322370152764,2.49852277252281,stable,stable,1,0.471892422406182,0.176952523345091,0.189422013869755,0.911399761599933,0.33949709140135
46,1.66194638879004,2.30667185783386,-0.221683359572097,-1.63671841889478,1.66194638879004,0.00358626733213957,0.000927716949906328,0.0037043180366587,-0.00445086664283156,-0.141256693464543,0.141404634648277,0.00912780981008833,0.118846185930265,0.120004929134935,15.4150503731515,1.64008396272178,1.66269995596418,0.00634636141423,0.0208044868685392,0.126587690357869,0.338017332428044,0.000272334799635266,0.00730138961681352,NaN,NaN,NaN,NaN,1.71876069037497,-96.5690723186371,2.15761123822614,stable,stable,1,0.467186689504331,0.145742355508247,0.0902215017634254,0.970876374217495,0.343738804285391
47,1.74797741075357,2.48761963844299,-0.108518567935214,-1.72868464515116,1.74797741075357,0.0604640702654862,-0.0509409381902934,0.0790625257424587,-0.00279636895583065,-0.15980755522771,0.159911721581843,0.0103129671786837,0.13374264161953,0.137039490762526,15.438783376516,0.884289143669147,0.585267122196189,0.158757917110164,0.240234448321199,0.108383419184887,0.368959264013389,0.159570111133433,0.0363899015072619,NaN,NaN,NaN,NaN,1.8330973949862,-93.5355183886098,2.11165620724525,stable,stable,1,0.49353520768679,0.180914297616238,0.192701319419566,0.909074527927404,0.351829591473383
48,1.67388478690578,2.54864883422852,-0.148141635523163,-1.64241466754827,1.67388478690578,0.0531264459393619,-0.0521842305584372,0.0744688738811329,-0.00491831533657005,-0.148175896546392,0.148480770176325,0.00957515271471395,0.174947428585068,0.177798247376207,15.4780460142932,0.786024034301843,0.492953808031345,0.162459590609064,0.240214051130834,0.0743653911762748,0.333808845434621,0.156735587301971,0.042786704819467,NaN,NaN,NaN,NaN,1.76093856199151,-95.8152911333806,2.36468468928842,stable,stable,1,0.48192892598345,0.210474537525823,0.211503785291126,0.908721093077136,0.366948715032767
49,2.61828217426936,3,-0.668471796755662,-2.49894206644162,2.61828217426936,0.00549004456708662,0.00341748075505994,0.00646682024335008,-0.0321864252002722,-0.325265077019771,0.32818542472998,0.0211685266800239,0.197681659815243,0.200213494175604,15.4300159836699,1.21111803852657,0.73809607255851,0.0165059982528746,0.0647104211743188,0.102942516113331,0.418819952922457,0.000101523652073909,0.00515067474829273,NaN,NaN,NaN,NaN,3,-103.690253195533,1.62892680291789,stable,stable,1,0.738251278640283,0.0870720945006752,0.0541613509592919,0.976431747143608,0.354247770616297
50,1.67897206495616,2.4229896068573,-0.122703527954486,-1.66184946559523,1.67897206495616,0.0581818789515166,-0.0084782110476418,0.0587963527856727,-0.00254868798770411,-0.148354153623417,0.148429738240572,0.00957375472383064,0.133995190746056,0.136893900358157,15.4082189310606,1.07475273735815,0.561749454628004,0.157717469972086,0.240248543606985,0.146594742980972,0.433014061514605,0.156775045425378,0.039845046416374,NaN,NaN,NaN,NaN,1.72627812567413,-94.411640590645,2.20837451285376,stable,stable,1,0.475104664059941,0.178183278271796,0.191076872717685,0.908283033505494,0.334846780897346
51,1.602522027394,2.16568231582642,-0.0944846741754919,-1.58864475410061,1.602522027394,0.0473873717193507,-0.0288963406634988,0.0555028062552597,-0.00176397107153393,-0.133944866382313,0.1339968489482,0.00864183264264842,0.115898605737145,0.118588256699466,15.4729034193426,0.894307165109298,0.616792664960837,0.156860153766017,0.240171023859957,0.125574462336807,0.326886883667906,0.156750404735901,0.039886657454767,NaN,NaN,NaN,NaN,1.64198518080473,-93.7945426045898,2.20885585645606,stable,stable,1,0.451056858644961,0.136886579377424,0.166303033250205,0.909696995880726,0.344189127850308
52,2.61471603512764,3,-0.635436496712435,-2.50007932400321,2.61471603512764,0.0073777250326361,0.00355201367821483,0.00818826158762717,-0.0311346976099383,-0.325050326856268,0.327942032421595,0.0211590306096662,0.199788000063716,0.202378961602771,15.4434987202964,1.45758476330638,1.20983675046053,0.00579466974395123,0.0377591718477569,0.0908994312485577,0.433813072809065,0.000108363136341751,0.00447468560542772,NaN,NaN,NaN,NaN,3,-102.899260755177,2.08571393102611,stable,stable,1,0.737733401687925,0.088190073387346,0.054589363828311,0.976144353234142,0.359600252778419
53,1.72505957402032,2.51312828063965,-0.108530084277429,-1.7094117772525,1.72505957402032,0.0700185897688505,-0.0389249970648557,0.080110912550773,-0.00221705623331977,-0.154349742864002,0.154411626363226,0.00995779147589405,0.124051882423951,0.127370497614733,15.4728931510474,0.870548446501755,0.546552809567833,0.159993997690076,0.240106649557975,0.114019866102211,0.371350467696421,0.159518273073787,0.0331643391416794,NaN,NaN,NaN,NaN,1.76767167051157,-93.7767495596924,1.79509192413984,stable,stable,1,0.485489985928365,0.192002459623657,0.198158245717094,0.908868634142987,0.349324503954573
54,2.60281431951545,3,-0.544981544699398,-2.512172373362,2.60281431951545,-0.0141078983263856,0.0163098261002123,0.0215648608297573,-0.0258260209231526,-0.338783712014125,0.340774831690644,0.0219892533455464,0.199458259882805,0.20149846981467,15.4468123038933,1.48235426915882,1.1332294423096,0.0574762686300119,0.240448285947832,0.106422100408481,0.35434105573323,0.00193559423033097,0.00725714817683411,NaN,NaN,NaN,NaN,3,-101.106544404973,2.45611941316788,unstable,unstable,0,0.734383512500387,0.0933203359278127,0.0594914286324511,0.950710850809171,0.352701288707342
55,1.68113168406075,2.50310063362122,-0.133800059259087,-1.65199407288073,1.68113168406075,0.102089566491177,-0.0699017398107662,0.123727655820874,-0.00399400187531462,-0.148903603337135,0.149109039602452,0.00961633018145094,0.164516961332427,0.167619666824541,15.4587416886305,0.824865733662884,0.566725394786962,0.160464306203534,0.240234021534344,0.0949197267831642,0.354625673791355,0.159458093572888,0.0359218424407146,NaN,NaN,NaN,NaN,1.6954412846166,-94.4207914550518,1.60974326701559,stable,stable,1,0.481825715781109,0.207626417218264,0.208508602301391,0.90883391660327,0.357813454763038
56,1.69953705151876,2.54329252243042,-0.100240958922463,-1.68041419890108,1.69953705151876,0.00343330976634304,0.00422530408066673,0.00544433747353757,-0.00211442602844274,-0.149059818033922,0.14913980750127,0.00962405019028733,0.140495480145703,0.141684500433364,15.4462843569185,1.52047158665471,1.37623770126193,0.00569392687465401,0.021504042852164,0.0921184697301254,0.36690479764545,0.000258581516616562,0.00641093126306466,NaN,NaN,NaN,NaN,1.73280982852964,-92.1431804697514,2.16592289957774,stable,stable,1,0.481546780491675,0.190843109491939,0.116952038545683,0.974393177871899,0.359058457897722
57,1.57773608738376,2.22932505607605,-0.160964638252951,-1.5512407906435,1.57773608738376,0.0482460451103285,-0.0255313746191546,0.054585089161157,-0.00408694878018413,-0.128111990515019,0.128311929538055,0.00827501267172786,0.118568546406968,0.121112188731909,15.4351516001182,0.785985336675761,0.610972207006213,0.151715131419157,0.240159461716824,0.114725283889517,0.378799401907713,0.159415604730735,0.0385514966842483,NaN,NaN,NaN,NaN,1.65239533729994,-95.8334835366937,2.08610278154124,stable,stable,1,0.444952061048718,0.156614784301977,0.178838976528512,0.913166339304349,0.349010984937992
58,1.597661151634,2.45374774932861,-0.0676008207588041,-1.57208754347426,1.597661151634,0.0622714428321866,-0.00644458282680886,0.0626040353349038,-0.00231483281154077,-0.136020226870144,0.136203451946656,0.00878467566592584,0.155947913929301,0.158667096499168,15.4292738406969,0.918165057564277,0.766048401626397,0.162101250994509,0.240218747401537,0.152014516610249,0.376920324528257,0.1594683130728,0.0370778395693999,NaN,NaN,NaN,NaN,1.68060545220575,-92.4282145747537,2.37111431763367,stable,stable,1,0.4577763930689,0.204096890959354,0.206815791138255,0.905716268751961,0.332437992617667
59,2.52590461572011,3,-0.514868266007092,-2.43969176636163,2.52590461572011,0.00638220778924901,0.00402059305937687,0.00754305938026874,-0.0231790843492427,-0.312404213938216,0.314186002840229,0.0202799089035138,0.209289222690821,0.211680581668142,15.4264425446666,1.68057772232377,1.55055864651254,0.0102302219711324,0.0486461590434531,0.113423701655461,0.383455809171792,0.00207208067182885,0.0056499474407249,NaN,NaN,NaN,NaN,2.78982386220964,-100.41262924442,2.46122439015035,stable,stable,1,0.715910680525659,0.10805435568269,0.0678080644947311,0.969497388973577,0.349589465930906
60,1.66692899763584,2.41797089576721,-0.0573396825789672,-1.64939274851467,1.66692899763584,0.0639837281599424,-0.0304340669713583,0.0708530161790063,-0.00139283491010056,-0.145654843755451,0.145723810920669,0.00939798698596281,0.133952828291884,0.136913492325972,15.45395185283,0.870804958212913,0.585441606803568,0.157031026704133,0.240207026088441,0.121384272247902,0.38540637798403,0.15675770348996,0.0389431114965857,NaN,NaN,NaN,NaN,1.72864210057146,-91.9462754292346,2.09820693702268,stable,stable,1,0.471897097834752,0.181974146712376,0.193015709920712,0.910042549351376,0.346051434556488
61,1.60951777804093,2.44081568717957,-0.148680243380119,-1.57985493561916,1.60951777804093,0.0632157635509083,-0.0385507400857048,0.0740431787707681,-0.00439589594496009,-0.136464920833938,0.136711808745084,0.00881664204635074,0.156449642405707,0.159177185679347,15.4158603414542,0.821610912729447,0.665828010989991,0.161243136031154,0.240212853390878,0.109341230772499,0.397369552830512,0.159590662004693,0.0382473226790634,NaN,NaN,NaN,NaN,1.6541677253945,-95.777639022521,2.30766752900495,stable,stable,1,0.461040177946785,0.200616612330833,0.205207267849538,0.907691411869485,0.351403897434445
62,2.60132274985313,3,-0.538544760505458,-2.51245473795499,2.60132274985313,0.00630338245190288,0.00644054836070214,0.00901184184956106,-0.0240819728343828,-0.329028533228758,0.330800027211029,0.0213366861421448,0.199589085390037,0.202223892090634,15.4789547322229,1.20830997647404,0.693030513500145,0.018379341068866,0.0469415363508634,0.0969200469949174,0.334334041955815,0.000140548462300438,0.00488112743841292,NaN,NaN,NaN,NaN,2.96888331606625,-100.576107342626,1.54732374117392,stable,stable,1,0.734130845045629,0.0913545522887977,0.0566501527886734,0.97587122561577,0.356924423557815
63,1.53379290062806,2.09891390800476,-0.0538266223549253,-1.52402610159152,1.53379290062806,0.0539137857220499,-0.0333654946785489,0.0634030955555593,-0.00090660016816517,-0.122807304035499,0.122831068402262,0.00792072887466757,0.100828949744629,0.103361988850014,15.4771583510587,0.772655139608593,0.481957606563461,0.161761570468249,0.240153412666903,0.106007624635683,0.345037803373417,0.159482980771942,0.0352491578253969,NaN,NaN,NaN,NaN,1.60300708299886,-92.1234906695166,1.53850334570132,stable,stable,1,0.429683837937485,0.138776127511611,0.166964876867368,0.909261543188809,0.352885500161918
64,2.6373045266522,3,-0.60282309522398,-2.5338347272052,2.6373045266522,-0.0190721068008745,0.00835902536499596,0.0208235098596901,-0.0284314795090848,-0.340181728995901,0.342568277418788,0.0221129335522498,0.203659157488771,0.205692603003018,15.4255313854356,1.71604803452927,1.46112351160746,0.0510153497385811,0.240386737546999,0.128728945555486,0.3976011638493,0.0018952998534635,0.00734064568889415,NaN,NaN,NaN,NaN,3,-102.201792877698,2.18661201043362,unstable,unstable,0,0.744419727707858,0.0854241249775304,0.0547661561819989,0.949528834411064,0.342787135308673
65,1.5326522915594,2.05676174163818,-0.109949187334068,-1.51789478751165,1.5326522915594,0.0382121380046026,-0.00926828426230696,0.0393200786373797,-0.00206596791456887,-0.122212318264723,0.122272117202407,0.00788477764204511,0.108244569156293,0.110662469051789,15.4797112317613,0.68446179920107,0.545091069904798,0.16323162745932,0.240182300205822,0.113455011933801,0.346748424477953,0.156747657615495,0.0412380983915507,NaN,NaN,NaN,NaN,1.55228808798252,-94.2268777224065,2.39722583632567,stable,stable,1,0.430839771559532,0.125133307351245,0.159741282160016,0.908723413727366,0.349575550251644
66,1.5747090280056,2.48555445671082,-0.129350456682903,-1.54558531815746,1.5747090280056,0.00207939297562858,0.00177201908711869,0.00273201881256452,-0.00349823656234032,-0.129254293257114,0.129455286781129,0.00835182192567633,0.168723574394668,0.169735652526203,15.4676227710163,1.12470703423442,1.27316450774882,0.0052904460774252,0.0214460140379349,0.0905662552008434,0.319879978700717,0.000165873177563075,0.00495078278900556,NaN,NaN,NaN,NaN,1.60696450398557,-93.5145725727472,2.1481385117248,stable,stable,1,0.453869537973401,0.20544109157431,0.125138661007384,0.978514357702848,0.359748331021847
67,1.68510270118713,2.24463772773743,-0.0798548620397707,-1.66476759869823,1.68510270118713,0.0963876276493559,-0.0411535233315122,0.104805473361214,-0.00205192773337342,-0.147952574970177,0.148052714312915,0.00954856611183653,0.135507471366741,0.138660956765631,15.4665489180853,0.939907118777853,0.641871500821878,0.160379098815205,0.240190414578929,0.102939224430588,0.326913020397324,0.159632158822183,0.0376019552308713,NaN,NaN,NaN,NaN,1.70472744872138,-93.0615211949791,1.63535884914168,stable,stable,1,0.477092911669695,0.145109717756705,0.171686895062987,0.907382190009828,0.354249233586405
68,1.58434799621845,2.34482073783875,-0.114273590210329,-1.56645158433972,1.58434799621845,0.0726181353871911,-0.0520708927084881,0.0893575483916792,-0.0024645111509686,-0.130203553575542,0.130289236269127,0.00840343943344386,0.111890193683866,0.114748291867879,15.4541022528038,0.928039385051719,0.730626316170714,0.161003335316424,0.240173502796401,0.103622240349792,0.367405886362352,0.159370191587117,0.0379950013399288,NaN,NaN,NaN,NaN,1.6346567991892,-94.1375227104005,1.59153532920341,stable,stable,1,0.445442457365163,0.187488584069707,0.197140710826376,0.90646595897504,0.353945670955648
69,2.61032628655434,3,-0.393072646958328,-2.54785612554306,2.61032628655434,0.00463976783837833,0.00611476792816673,0.00767579522977172,-0.0166032944622767,-0.337920537359976,0.338863397181413,0.0218558109858187,0.199539224909809,0.202168016087378,15.4727388366635,1.06991563127705,0.755274161849687,0.0195966162088723,0.047315696357851,0.100467061971575,0.317469226243661,0.000212164472906995,0.00519682299339624,NaN,NaN,NaN,NaN,2.97762147861884,-97.4745863886534,1.52662854302241,stable,stable,1,0.736520612965299,0.0890838146507325,0.0554343379275119,0.975860914949568,0.355347972457078
70,1.72962801436246,2.4844388961792,-0.0497285992070004,-1.70898784170626,1.72962801436246,0.0872388666565558,-0.0508984491765191,0.101001346446941,-0.00152451051193223,-0.156460428482921,0.156551223033815,0.0100963555606274,0.145089616019416,0.148247252369119,15.4606440378836,0.840892093582986,0.618870521451865,0.158610741104449,0.240199450394946,0.105876434023064,0.348308630406419,0.159510626375747,0.036356919563638,NaN,NaN,NaN,NaN,1.74106956136438,-91.9626622500687,1.84072095432126,stable,stable,1,0.490883587637148,0.188349361924038,0.197123926900118,0.90922506604393,0.35294380710086
71,1.64337000816033,2.46777772903442,-0.16886530617047,-1.61339977424505,1.64337000816033,0.0895018427704101,-0.0498887700426115,0.102466917762094,-0.0048663193761179,-0.142686438216058,0.142930695846014,0.00921680059099129,0.161158721530735,0.164021114065017,15.4878580283293,0.732904240703312,0.48039357421129,0.16059821859378,0.240193217561096,0.0969982384904455,0.322162263839392,0.159497884861994,0.0360255311440064,NaN,NaN,NaN,NaN,1.67774962146967,-95.9395937551425,1.83603292777912,stable,stable,1,0.471036224989091,0.204277338786389,0.206554545242661,0.910167836443067,0.356889671782024
72,2.61124885919501,3,-0.613906117040019,-2.5075320513823,2.61124885919501,0.00505818524165701,0.00535302684291411,0.00736479017487096,-0.0281963091842785,-0.327524354630425,0.329824210830182,0.0212773856771052,0.192151200439572,0.194763505997885,15.4350501260078,1.24168471091476,0.971904480797193,0.0113204518627076,0.0441174437857897,0.0991275845839731,0.369125930573972,0.000335153690337984,0.00502221748797895,NaN,NaN,NaN,NaN,3,-102.28205700878,1.85552745400724,stable,stable,1,0.735285730318246,0.088819218213183,0.0552667490283352,0.976947287562338,0.355943295740456
73,1.65399402961498,2.44346642494202,-0.123142870206787,-1.63601597597838,1.65399402961498,0.0431210855614545,-0.0210226236164522,0.0479726872680413,-0.00279578842898827,-0.144010840608354,0.144103266136316,0.0092929215306586,0.12458652975003,0.127524383500223,15.4629576033322,0.852059219175504,0.465746147204855,0.160106524201895,0.240232719651411,0.137093864932201,0.355921620427746,0.156635352829813,0.0395430646420274,NaN,NaN,NaN,NaN,1.730743683828,-94.7490683234343,2.33715630262523,stable,stable,1,0.46656995126404,0.18642628161439,0.195850777570904,0.909592552877493,0.339069393363466
74,2.68412730213508,3,-0.610187702986467,-2.5773162871995,2.68412730213508,-0.0317423626702468,-0.00973612628917269,0.0332019539034707,-0.0262957747405391,-0.340937496113888,0.343034579511912,0.0221325258848422,0.206138963513356,0.208207794420291,15.4175625769658,1.44891078576119,0.91313191202254,0.048836165941372,0.240361319570221,0.0998943206205577,0.411044815922323,0.00189470547320429,0.00961418214433286,NaN,NaN,NaN,NaN,3,-101.440236798872,1.93122725687989,unstable,unstable,0,0.757408839453413,0.0771583819019103,0.0506331866968732,0.957023010118156,0.355602524168641
75,1.69632354974747,2.30847072601318,-0.150208375062787,-1.67318793796144,1.69632354974747,0.0663121688573667,-0.0257899923044032,0.0711507374637051,-0.00366254521012171,-0.149401497191723,0.149548328510048,0.00964544694725852,0.126948340743512,0.130022682171535,15.3980026509699,0.949571380131537,0.676583858231737,0.156087352319016,0.240211458648645,0.146092043612717,0.450214360808321,0.156705203496575,0.0401622629462415,NaN,NaN,NaN,NaN,1.72844746755899,-95.0560971705178,1.60433220478785,stable,stable,1,0.478357483033632,0.150777416528132,0.174717666279647,0.90917938982478,0.335070202838793
76,1.74268758376439,2.58840847015381,-0.231512427341562,-1.70272552643664,1.74268758376439,0.00636053678788032,0.00506630700293386,0.00813166003211863,-0.00711114399863694,-0.156104701618747,0.156510106010037,0.0100959357944866,0.17952744028853,0.180752491631863,15.4371225036384,1.0279663625411,0.738347193192457,0.0201183128203249,0.0581923806139071,0.128274643195622,0.392076559491409,0.000129470687400534,0.00476539870155557,NaN,NaN,NaN,NaN,1.80133462105751,-96.2777836497926,1.50694423586822,stable,stable,1,0.500867187330211,0.19177800377684,0.116857217048949,0.976062665651931,0.342989047468612
77,1.71730449872139,2.4786581993103,-0.116298552250095,-1.6956275254998,1.71730449872139,0.0865676016164851,-0.0552190134260685,0.102679545642639,-0.00298171132311034,-0.15447154050607,0.154580639914854,0.00996940138464799,0.128121929426115,0.131587577890661,15.4537311850857,0.89969621075615,0.651576554992402,0.158764451002577,0.240200348027611,0.13328132950933,0.374941173338133,0.156780575319123,0.0382071758958798,NaN,NaN,NaN,NaN,1.75923009576763,-93.8331549635916,1.90304082830561,stable,stable,1,0.484265381903837,0.190129166000322,0.197651273805174,0.90842920276783,0.340763853551409
78,1.77457346877114,2.49734902381897,-0.163280478101688,-1.75354247986377,1.77457346877114,0.0572692121626417,-0.0325977543937994,0.0658967089712994,-0.00375000630805849,-0.163329829312277,0.163455222747469,0.0105424595543348,0.134826027519012,0.138188800701429,15.408195996598,0.903460551777353,0.718218212864964,0.1528824006884,0.240254862753871,0.134947513600662,0.399718721573464,0.157269676766575,0.0422361602549655,NaN,NaN,NaN,NaN,1.84421771642335,-95.6415120879709,1.90463459140301,stable,stable,1,0.500857351812589,0.174705563197167,0.190079575765857,0.91081703793361,0.340023327288595
79,2.62011608362198,3,-0.417089284290131,-2.552954490826,2.62011608362198,0.00627411700942354,0.00261662418433877,0.00679788690476712,-0.0178560772716999,-0.339922425842456,0.34098196221453,0.0219984106529996,0.201272689026163,0.203869855128698,15.4624373981949,1.39666489221729,1.03752458236919,0.0089158754237438,0.0441610041568577,0.093169744059305,0.373782085854895,0.000252566628899455,0.00478788538932409,NaN,NaN,NaN,NaN,3,-97.5958361626102,1.93916470188292,stable,stable,1,0.739471593324934,0.0867201604509288,0.0538853973381052,0.976416287844949,0.358591224862531
80,1.83044008210174,2.61848664283752,-0.188744138105897,-1.80237045542097,1.83044008210174,0.0853394435417826,-0.0537405759709279,0.100850731924504,-0.0050773589840267,-0.173342167336621,0.173551451952177,0.0111923591533389,0.14780101947945,0.151327612264434,15.4856654412277,0.899364524924739,0.608188348271456,0.15913552041161,0.240236219223054,0.127410912120157,0.331885916158427,0.159729292694134,0.0365252407640384,NaN,NaN,NaN,NaN,1.84269174465958,-96.4089816842801,1.96395418597792,stable,stable,1,0.518382877680017,0.195799777018377,0.201752568696352,0.908587181504796,0.343372927946597
81,1.84750261636284,2.61262392997742,-0.159996213348139,-1.82248533274477,1.84750261636284,0.0540344388854298,-0.0302866395839899,0.0619435317281292,-0.00429094254028674,-0.176584613194416,0.176764627408908,0.0114000473664241,0.124678466419471,0.128172465383509,15.4475729257047,0.949973761628532,0.500275854207677,0.16162211299662,0.240249155276986,0.127395978930128,0.39024394978789,0.15964782834751,0.0367576319223631,NaN,NaN,NaN,NaN,1.90149022471625,-95.3637271300002,2.34099222890848,stable,stable,1,0.518301857440127,0.183508609713436,0.194426167812865,0.907794125091548,0.343379564919943
82,2.58630151112874,3,-0.399862723404095,-2.51880480606303,2.58630151112874,0.008444837856853,0.00242373430458349,0.00878577113335833,-0.017539973461116,-0.331019551824449,0.332110650462273,0.0214383947637486,0.20829843347683,0.210956166564364,15.4331167844038,1.84402818358716,1.51982123968542,0.00579183220286941,0.0318465346423651,0.118139532734693,0.391396713526698,0.00237344698568532,0.00545140344895259,NaN,NaN,NaN,NaN,2.91783086718893,-97.7855854258006,2.28613655402213,stable,stable,1,0.731871636280538,0.0946928847038151,0.0598529246761521,0.970673838429995,0.347493541006803
83,1.67700425406982,2.36030673980713,-0.271657168401539,-1.64158495999081,1.67700425406982,0.0701527427799081,-0.0535268500612124,0.0882413225026657,-0.00636864143947486,-0.143005490498211,0.143319680868721,0.00924231017166837,0.123907347387404,0.126871069798802,15.4709548292485,0.750589184822748,0.585074511997929,0.161618714540612,0.240142867097082,0.0908018777014957,0.311593680346139,0.159498030750464,0.0364101337638965,NaN,NaN,NaN,NaN,1.75027764965131,-99.5200046041142,1.55613913693961,stable,stable,1,0.47257534837838,0.16992063508305,0.186080443358119,0.908696142254674,0.359643609910446
84,2.65386057228672,3,-0.443785106210274,-2.58103655250974,2.65386057228672,-0.0226212308407962,-0.00904491383660511,0.0243624824487202,-0.0171156014001255,-0.341226271367728,0.342281068998009,0.0220847880709176,0.20613088241539,0.208301944455785,15.3340817852496,1.46564052104932,0.63211675611474,0.0493763144394161,0.24028033276686,0.160868160546936,0.521052140579321,0.0018910723613204,0.0113837852191171,NaN,NaN,NaN,NaN,2.95681470906161,-98.270421652992,1.61900223620511,unstable,unstable,0,0.749356541500948,0.0823478263510877,0.054388730677181,0.958829464174003,0.328503039756917
85,2.05244676928875,2.86361289024353,-0.403233275577291,-1.99971093941267,2.05244676928875,0.04988912992661,-0.0407220028932555,0.0643988105827467,-0.0114222875051318,-0.211202664825669,0.211786008075317,0.0136587292829893,0.13751125834446,0.141629408371093,15.4738453291984,1.04582032563657,0.594562496925753,0.158051931831894,0.240288747757557,0.148417919947787,0.389702804360559,0.15669940192288,0.0417375429672535,NaN,NaN,NaN,NaN,2.10680641889481,-101.731697741666,2.26539416333222,stable,stable,1,0.575645020151218,0.194318825821663,0.201412762477117,0.908085311906778,0.334036480023206
86,1.9502142337958,2.73685932159424,-0.537665410898981,-1.8546325366742,1.9502142337958,0.00393224508638467,0.00433584782184311,0.00585338600756673,-0.0195367962183334,-0.181005520113069,0.182801764917851,0.0117923682067474,0.157508009363489,0.158931833317893,15.456076888503,1.35108548936191,0.978335865732674,0.00592880629986313,0.0226632745287372,0.0875391749585933,0.364426506454674,0.000211559428305315,0.00457624191180753,NaN,NaN,NaN,NaN,2.01104491577433,-105.279667622794,2.05772243269808,stable,stable,1,0.551843495675792,0.178068265522702,0.108599073694131,0.978733000488611,0.361093700018403
87,2.02913850347201,3,-1.11588245158253,-1.65972871444699,2.02913850347201,0.0556527421128185,-0.0926525441974498,0.108082013540349,-0.0722187714298335,-0.151030149495317,0.174331743438208,0.0112439844940965,0.182186761839659,0.185538429288088,15.4024537246629,0.99858301644476,0.938544659340804,0.155622497631535,0.240342912971273,0.156055486165502,0.435314267326538,0.156894812847882,0.0410054813481904,NaN,NaN,NaN,NaN,2.06469467336038,-124.238920485483,2.01440128560693,stable,stable,1,0.578211286783487,0.238258872534528,0.227597435579724,0.90696846230306,0.330642006148666
88,1.96710045964031,2.71241593360901,-1.06827043842694,-1.62749710342654,1.96710045964031,0.0630226852296197,-0.0883352877278496,0.108512588723676,-0.0640719065460372,-0.141773240810123,0.160066601376068,0.0103229524997728,0.139936650266687,0.1429795969848,15.4511902415929,0.724250762092334,0.852326119287159,0.15841739455578,0.240264970677869,0.166244649566266,0.398807513278449,0.156899955444153,0.0427758416710958,NaN,NaN,NaN,NaN,2.00959748573364,-123.70580417537,1.58076924055924,stable,stable,1,0.553156041967709,0.187589956242298,0.197842138792876,0.908403912939843,0.32611348908166
89,2.61815136671066,3,-0.248729014268391,-2.57183323397513,2.61815136671066,0.00749950223487457,0.0049746787649373,0.00899944234856843,-0.0101866551962001,-0.344201268402122,0.344702850549497,0.0222353291572405,0.200397411723969,0.203156707191788,15.4405031625616,1.25992960434368,0.711283520531641,0.019078516712623,0.0465377484997694,0.0986120797040626,0.36408893330315,0.000232860327781105,0.0054967936094091,NaN,NaN,NaN,NaN,3,-94.0907171926139,1.52795979602873,stable,stable,1,0.738805039227868,0.0875658402540051,0.054641831671202,0.974972638519668,0.356172409020417
90,1.9250247389817,2.96245312690735,-1.00180380986678,-1.60708751223038,1.9250247389817,0.0563555771613855,-0.0910157826658867,0.107050566422961,-0.0594908169334196,-0.143045553130829,0.161226659814995,0.010398417285305,0.178956841818581,0.181832035859597,15.4688046356957,0.915134699128334,0.926524751407691,0.157493500203236,0.240349235838198,0.156188760941683,0.393565815782909,0.156542207846129,0.0409329090747841,NaN,NaN,NaN,NaN,1.99637079272466,-122.311062912018,2.24293620304672,stable,stable,1,0.54970633756704,0.253047324460813,0.23628740348378,0.906783068501313,0.330582772914807
91,1.89628621451875,2.64462161064148,-1.10688833473688,-1.52265471994747,1.89628621451875,0.0341228054998346,-0.0836536491192574,0.0903454418670216,-0.0663768026354143,-0.123473175352205,0.143352149662647,0.00924514943368148,0.120364306082073,0.123287908590325,15.4217947038502,0.732610241040902,0.874809711357535,0.158765105152681,0.240206148981743,0.110444190317878,0.433766377882345,0.156784143257713,0.0405479937455154,NaN,NaN,NaN,NaN,1.94546366280019,-126.251978914843,1.62232517334506,stable,stable,1,0.530333905589732,0.184938795136568,0.195389843528182,0.907987719226243,0.350913693192054
92,2.6195225862662,3,-0.475183956647203,-2.5449372832388,2.6195225862662,0.00614918606436146,0.00311236630488215,0.00689197455522748,-0.0202665107643303,-0.336915688574817,0.338193154809926,0.021825965800403,0.191932929592455,0.194650335175411,15.4074891987153,1.63152020882532,1.39102942312948,0.00716162566109943,0.0570235573115939,0.0897873564295601,0.447918669247084,0.000198687802708071,0.00584726482036088,NaN,NaN,NaN,NaN,3,-99.2513675644137,2.06601523795106,stable,stable,1,0.737469423372735,0.0868709467585634,0.0543371518617254,0.972670582918377,0.960094508253529
93,1.68903125183923,2.7123875617981,-0.991913331046136,-1.33647082377941,1.68903125183923,0.0427326029139186,-0.0937941729097356,0.103069987016687,-0.0574083899478035,-0.0993909535370966,0.120439634147681,0.00776791936404464,0.167311519134884,0.169726226675334,15.4095945142125,0.898228490861764,0.920942075864441,0.158064565132082,0.240221216296442,0.104925746798168,0.416030287122207,0.156713514725588,0.0431163533912333,NaN,NaN,NaN,NaN,1.74681180591764,-126.657123786368,2.057885777823,stable,stable,1,0.484353579158861,0.249151334027138,0.234819925365881,0.906674234409682,0.35336633475637
94,2.607790489152,3,-0.237280630365661,-2.56537135757782,2.607790489152,-0.0129081539686488,0.00849573492752789,0.0154530887151133,-0.0100461188735588,-0.351408778104836,0.351878415015907,0.0227045248057442,0.202420505510975,0.204661192821952,15.4187559526378,1.51944234674602,0.948584045312566,0.0527204299349517,0.240421499088735,0.0995491673566954,0.364559614040745,0.00191699340932268,0.00713646324038464,NaN,NaN,NaN,NaN,3,-94.2734617915732,2.32445522704661,unstable,unstable,0,0.736343035671591,0.0910802062052366,0.0580951983359101,0.954248149094921,0.355755925619247
95,1.82113566236981,2.55414533615112,-1.12545440216029,-1.41430721579131,1.82113566236981,0.0274938691936228,-0.0847767279800671,0.089123545992304,-0.0682998231751668,-0.107108237928158,0.130422195958628,0.00841097017405612,0.12299706806187,0.125564797988531,15.4415733818935,0.69077240909914,0.819512326099104,0.157064839737648,0.240238810992142,0.114443475230642,0.404703780446615,0.159516383747712,0.0374060804400391,NaN,NaN,NaN,NaN,1.86493072097439,-128.583435678336,1.97147184773146,stable,stable,1,0.510749136229655,0.181266493366051,0.193258277643275,0.909601057211761,0.349136233230826
96,1.72212171574434,2.68960523605347,-1.05976809056204,-1.32579675803306,1.72212171574434,0.0045240066138588,0.00310936925566214,0.00548951846798015,-0.0648501769078562,-0.0968871523428048,0.122517153688664,0.00790271317580733,0.189367986848733,0.190268478459047,15.4501052192547,1.06126995393062,0.932617641925997,0.0141669706070091,0.0506538702245733,0.0890645851944342,0.419169247888313,0.000145179844270989,0.00446259687596316,NaN,NaN,NaN,NaN,1.76269102467469,-127.19753908103,1.71009120739114,stable,stable,1,0.497286153223633,0.218690203788684,0.132901409148792,0.977250255014765,0.360415739913585
97,1.7636540299755,2.53490710258484,-1.06623472088293,-1.38978518158702,1.7636540299755,0.0200869044088556,-0.0701650804368604,0.0729837121653975,-0.0621661117387068,-0.103172066935679,0.123305006481908,0.00795233082048366,0.124175343875811,0.126744789183955,15.4275449771698,0.801459328942915,0.887125064768168,0.158606754916371,0.2401964341427,0.127690205408361,0.420298032447343,0.159600427569315,0.0355874976633295,NaN,NaN,NaN,NaN,1.81622668042125,-127.513201967813,1.74005111030053,stable,stable,1,0.495656699163592,0.186912288567423,0.196021804745805,0.907429173734084,0.343248797596284
98,1.87320933586512,2.55976295471191,-1.16196952260601,-1.44974592560599,1.87320933586512,0.0269490310076373,-0.0856873159119865,0.0898251990281746,-0.0730631370108588,-0.11265706844444,0.138223741732465,0.00891359738486886,0.122652802223015,0.125291985465927,15.4694831870658,0.734377505321646,0.815740074346629,0.16046373099656,0.240227194682631,0.10177790705761,0.38055596816449,0.159708987309223,0.0361663941231973,NaN,NaN,NaN,NaN,1.91962505408224,-128.853168090004,1.95771301953559,stable,stable,1,0.524580886657217,0.170942517395694,0.186698698619648,0.907588639232898,0.354765374641062
99,2.62634758088102,3,-0.148685723500956,-2.59218703552625,2.62634758088102,0.00493865009920705,0.00725513109086646,0.00877651365566391,-0.00530415116515566,-0.34938446123342,0.349624316615038,0.0225651990125794,0.187519687251765,0.19037873222985,15.387420715683,1.76296413732022,1.30231901213981,0.00697525525748002,0.031282759407368,0.105371234927437,0.375152292951232,0.000225230473841047,0.00657642628908145,NaN,NaN,NaN,NaN,3,-92.2002194325483,2.07329662309952,stable,stable,1,0.738435101347576,0.0856808218053081,0.0539000232574873,0.97242800476836,0.35316834003225
100,1.63053293366078,2.29846143722534,-0.992056757163813,-1.27178109502904,1.63053293366078,0.0323660466599691,-0.072725631431199,0.0796026283703113,-0.0543852506629192,-0.0880254042862997,0.107307908931165,0.00692157900675006,0.136159643134071,0.138302699737519,15.4414922204888,0.963882586938528,0.862053462706767,0.157787703392178,0.240192764334357,0.110216725905183,0.356289754569908,0.158460997810086,0.0338146665822878,NaN,NaN,NaN,NaN,1.68546986904653,-128.540481584722,2.14266724832894,stable,stable,1,0.462469322257044,0.164877728503251,0.181649989633326,0.906759507913841,0.351014788486585
101,1.68465975029715,2.55844044685364,-1.04801641383124,-1.28283542565877,1.68465975029715,0.0375400080670454,-0.133224593045855,0.138412587570306,-0.0632143019815948,-0.092497472116537,0.118960956708522,0.00767187994160113,0.15390862049897,0.156145283676246,15.4673385350817,0.660723398473341,0.868203293602991,0.160728436342806,0.240226974566903,0.111719655636569,0.399039539410669,0.159590180929123,0.0375459867374614,NaN,NaN,NaN,NaN,1.69807149429304,-129.55767099295,1.5,stable,stable,1,0.48047165681449,0.221976297779765,0.217767834056041,0.907622786390854,0.35034681971708
102,2.62147742072741,3,-0.150698752187356,-2.58630113306237,2.62147742072741,0.00771631745866882,0.00757359741968478,0.0108120734828438,-0.00551278358993299,-0.347565773436537,0.347817584859205,0.0224539786555992,0.19497380779565,0.197822263210705,15.3279584512719,1.91987520392243,1.44542497595566,0.00973072758544047,0.064415268063602,0.113984897975163,0.434016369443782,0.00260231745182171,0.00550472283209531,NaN,NaN,NaN,NaN,3,-91.8482151525671,2.43685712453795,stable,stable,1,0.738625098169451,0.087149793808187,0.0554481792125444,0.968692991936809,0.349340045344372
103,1.72883301202593,2.43585681915283,-1.06409599966455,-1.34812773031382,1.72883301202593,0.0391108708796588,-0.0686369970504393,0.0789980859582519,-0.0611705156481307,-0.0971299114315554,0.117423347739764,0.00757334523731228,0.124865611435464,0.127308875185101,15.4594932808652,0.902111246504562,0.886284395129834,0.161142751079684,0.240169260135696,0.101005588259678,0.356872515690319,0.159540380346305,0.0349288463765722,NaN,NaN,NaN,NaN,1.75398132014352,-128.600052606655,1.53856890440153,stable,stable,1,0.486483911577269,0.173563339029232,0.187746237809398,0.905376944418745,0.355108627440143
104,2.61236799297468,3,-0.342373271690472,-2.55675882277774,2.61236799297468,-0.0206059688129677,0.0143338171157156,0.0251010809294695,-0.0142259549081521,-0.35133587128573,0.352072786717341,0.0227189887392645,0.198326592165355,0.20043613002509,15.4122003541927,1.4375333348491,1.16510669680286,0.0511035337270566,0.240322961964218,0.110744673650027,0.387775082581955,0.00192741820597638,0.007003317742711,NaN,NaN,NaN,NaN,3,-96.2939600424606,2.2646502593225,unstable,unstable,0,0.736718690798265,0.0918190664177671,0.058494731161777,0.953998918602063,0.350780145044433
105,1.72021694254067,2.631502866745,-1.07533429015129,-1.31169365827212,1.72021694254067,0.041185137174451,-0.103578064562152,0.111465828766127,-0.0659028383718455,-0.0969984468094804,0.123359579820171,0.00795620154759794,0.171028230800827,0.173288285909327,15.4045493520169,0.835284235709059,1.0313968838667,0.158826236900302,0.24024785967539,0.108704263117454,0.442989396625004,0.156809779634188,0.0416303721421175,NaN,NaN,NaN,NaN,1.78074250763471,-129.221424924807,1.99380724713481,stable,stable,1,0.493382175192711,0.22547473488643,0.220116393467419,0.905920101324611,0.351686994170021
106,1.83895393570264,2.646644115448,-1.0694521322608,-1.48049491103589,1.83895393570264,0.00327104883677371,0.00113714635988934,0.00346307122889036,-0.0619795671912106,-0.115210141810669,0.133602860547778,0.00861896874112378,0.127446121916565,0.128498650001707,15.4020971507999,1.28204616778622,1.09279976816422,0.010840408422061,0.0685961113281883,0.0796554573186947,0.441984202521245,0.000174533546739137,0.00707508650397417,NaN,NaN,NaN,NaN,1.88415857146299,-124.959215831678,1.86370454595859,stable,stable,1,0.516087446187713,0.182365186834668,0.112069441294736,0.975920292006502,0.364597574525025
107,1.69959812225967,2.48079204559326,-0.988552597617535,-1.35940784362999,1.69959812225967,0.0460935900288059,-0.107161380748585,0.116654106510174,-0.0543599436799311,-0.0999952805854654,0.117780270199893,0.0075953575060733,0.142720496225392,0.145005758262429,15.4658541351547,0.751711339543121,0.727245333526704,0.161168225675536,0.240221789140849,0.0931678355087345,0.390081503506818,0.159693189796191,0.0374949276328377,NaN,NaN,NaN,NaN,1.72726488943798,-126.550224489005,1.5109148272959,stable,stable,1,0.482227317588397,0.197155218943591,0.202902401525897,0.907795513302398,0.358592073107229
108,1.68715105505071,2.28738284111023,-0.998047843194904,-1.34680209807508,1.68715105505071,0.037036117092281,-0.0583659799647747,0.0691249707885771,-0.054574462767294,-0.0967177140348193,0.113405401891454,0.00731384890112709,0.123945407466216,0.126265068596426,15.4295593355559,0.670191328446747,0.900650129669856,0.160245271837444,0.240206624768725,0.141277033260962,0.444941895265776,0.159704709548595,0.0354521632694822,NaN,NaN,NaN,NaN,1.72684939224008,-126.925173742408,1.55286966456347,stable,stable,1,0.475159961732808,0.147725063174631,0.172506604549622,0.907535038338933,0.337210207439572
109,2.64292714039485,3,-0.308144203677223,-2.59068927608644,2.64292714039485,0.00384102702160818,0.0024654592914276,0.00456420618491441,-0.0124203730077851,-0.348204057521095,0.348819041871292,0.0225063741270788,0.19428626386417,0.19711961083736,15.3928393684636,1.54552533693933,0.770682657920159,0.0189787020453448,0.0671170352067842,0.142688513426468,0.427892362447969,0.000114796522472604,0.00520077362220656,NaN,NaN,NaN,NaN,3,-95.4171668207032,1.52373934270315,stable,stable,1,0.744204492939431,0.0811781645450605,0.0506491098117659,0.97231187187486,0.33658288292157
110,1.56362167848804,2.39107918739319,-0.88689567920836,-1.25924847115468,1.56362167848804,0.0384847193534594,-0.0481965591473861,0.0616764293499715,-0.046399477481252,-0.0883017960021844,0.104458715286821,0.00673642919277979,0.155937467379485,0.157871955603347,15.4198900066792,0.704948230139468,0.826102839787366,0.162609057168724,0.240212108168482,0.12066239198774,0.435468371797948,0.159596999540355,0.0361541396372056,NaN,NaN,NaN,NaN,1.65985778043302,-125.136897277648,2.36574074534201,stable,stable,1,0.448540172050814,0.197485284884486,0.20257013059448,0.906665784437641,0.346372270227671
111,1.53365673402608,2.45466327667236,-0.891283679311634,-1.22251003477564,1.53365673402608,0.0367693297732071,-0.0863996388537599,0.09389824921707,-0.0463478429907465,-0.0831341101015377,0.0993371262265656,0.00640602980400101,0.148198359333917,0.150024546306029,15.4560948348821,0.615400716399129,0.790104949790597,0.158449366788719,0.240179910122536,0.136528017551196,0.409454441751755,0.156893235108636,0.0405254956175296,NaN,NaN,NaN,NaN,1.59306398738573,-126.486183134521,1.70329661607471,stable,stable,1,0.438980038334828,0.224441151118542,0.219131561246994,0.909732057799864,0.339320881088358
112,2.62828667521477,3,-0.240803417833022,-2.5842709391143,2.62828667521477,0.00800372077148336,0.00747083415683396,0.0109486487379398,-0.00956548612719881,-0.34705566126531,0.347497830592719,0.0224114030521978,0.194620233469889,0.197458626180943,15.473043704184,1.14809046388196,0.515006876749603,0.0201017996356169,0.0430835805157759,0.109156687685797,0.34863951474694,0.000162479507912375,0.00575677003795274,NaN,NaN,NaN,NaN,3,-94.1056534981467,1.5,stable,stable,1,0.740368171960126,0.0856427503452997,0.0535512342446994,0.976881906791515,0.35148591658409
113,1.72551173939664,2.39394760131836,-0.968783756664543,-1.41247454825317,1.72551173939664,0.0239255212807792,-0.0787930863313578,0.0823454978865137,-0.0511744410655642,-0.106014495113512,0.120304518081382,0.00775822792370197,0.106750317440276,0.109264081959901,15.4746647757952,0.710532261172957,0.775371040737346,0.160748886719613,0.24019574787308,0.0982134807385342,0.342596755055151,0.156811900160272,0.0402945819866713,NaN,NaN,NaN,NaN,1.77528590773906,-124.910768203071,1.50278589624638,stable,stable,1,0.481989280231085,0.165494743544914,0.183643599243839,0.907950602125184,0.356349564116207
114,2.65088158014536,3,-0.403112802026285,-2.58676246619835,2.65088158014536,-0.0177150382898081,-0.00164751318718009,0.0177914833926601,-0.0175454314430583,-0.349252364318254,0.350308601808279,0.0226070439386521,0.200499031841034,0.202582783186362,15.4428792336302,1.68146336395813,1.10045754046531,0.051511073689511,0.240326680610269,0.11422014636088,0.41836980862691,0.0019229284261842,0.0108251483421272,NaN,NaN,NaN,NaN,2.9979851142919,-97.9705526263991,2.19003110018593,unstable,unstable,0,0.747418311342703,0.081813416422614,0.0538791022886056,0.952386513191917,0.349235490506275
115,1.85636970897516,2.5991530418396,-1.02971403052385,-1.52274615469712,1.85636970897516,0.0340217475093172,-0.0771835073169805,0.0843491144312619,-0.0589917217954633,-0.124942154183744,0.141993643100749,0.00915695723028589,0.140218334749515,0.142822058742746,15.4657281511055,0.815601072011579,0.777431442293914,0.157630739002376,0.24024031144874,0.138996558702847,0.385202679085212,0.159604664216811,0.0358256116653439,NaN,NaN,NaN,NaN,1.89315516909655,-124.179562229341,2.11307545543243,stable,stable,1,0.523596334141924,0.182590254206898,0.193517053993755,0.90866794645784,0.338223751687624
116,1.69062997579575,2.46374011039734,-1.02765130303126,-1.32059303850172,1.69062997579575,0.00630252530673955,0.00644964683358773,0.00901774747484651,-0.0581993535054242,-0.0932702561641498,0.113764971823919,0.00734146058322231,0.141050826065956,0.141879024217908,15.4325142320334,1.53820141325572,1.42775120267982,0.00559051933287628,0.0198136292498492,0.0946362540832692,0.379746437603712,0.00123967013233632,0.0089050629170844,NaN,NaN,NaN,NaN,1.69700248239393,-126.66944677606,2.26818177375411,stable,stable,1,0.47921046505578,0.17560303398908,0.10915098959383,0.97390082692264,0.357939442629658
117,1.63628579933068,2.35155129432678,-0.939969319467156,-1.31696438251726,1.63628579933068,0.034718826522464,-0.104147396780825,0.109781952848907,-0.0496202208990284,-0.093883916313092,0.109881563848892,0.00708707607523253,0.126889286089757,0.128985017048161,15.4674427643147,0.936800486799226,0.902929666112955,0.160861503575236,0.240186747710007,0.143895902055659,0.374761818172991,0.159497001794225,0.0361602231223131,NaN,NaN,NaN,NaN,1.6721231422542,-125.43586516234,1.86138663863847,stable,stable,1,0.462139883231146,0.181061427729756,0.19267358503532,0.905114225582358,0.33604626575304
118,1.72298870007854,2.53831076622009,-1.03192411783761,-1.36390585021566,1.72298870007854,0.0348096802981758,-0.0420854872598081,0.0546159507868964,-0.0580344226691179,-0.0990971639023689,0.117727912527076,0.00759513636172156,0.118830838688253,0.121151305512041,15.4307320153122,1.06909001772347,1.0548854276953,0.157308625413827,0.240193446679694,0.140758589201248,0.399067312388179,0.156711638260556,0.0410766123396051,NaN,NaN,NaN,NaN,1.78141492798702,-127.597402747289,2.17159288497509,stable,stable,1,0.483693914456685,0.193460389192781,0.200662800462035,0.904657308793368,0.337440627021668
119,2.56740680217743,3,-0.371259429153428,-2.50831138068956,2.56740680217743,0.00627960759014577,0.00503697149013981,0.00805012753182815,-0.0153541018340458,-0.32887510161095,0.329710550078402,0.0212764440604704,0.20530860641697,0.207989686195815,15.4379370077499,1.58629798101065,1.31522730978521,0.00679413796701413,0.0353857085641671,0.0927234647635203,0.390238673884824,0.000152524576157216,0.0080225464919648,NaN,NaN,NaN,NaN,2.88139783872518,-96.8469577847742,2.05428338080227,stable,stable,1,0.726239751153144,0.098809326224247,0.0622706740685042,0.973805232303097,0.358789571216213
120,1.71547415802876,2.45184397697449,-0.982788699852658,-1.38447530285229,1.71547415802876,0.0373174841059897,-0.0797865485994946,0.0880822794744795,-0.0539894713925879,-0.103705957009347,0.120672659620863,0.00778268251301089,0.134793824316069,0.136992206695372,15.4224153069923,0.798777436852362,0.897125176494107,0.157161244299561,0.240193957222613,0.129410809329601,0.452301543210044,0.156754433195289,0.042378435351661,NaN,NaN,NaN,NaN,1.76744363452008,-125.864521808831,2.10348549435315,stable,stable,1,0.484858216813411,0.181831627166443,0.194177953403427,0.908094428745354,0.3424840847424
121,1.72504882083451,2.44103384017944,-0.96373817687967,-1.41813757001657,1.72504882083451,0.0278462910972384,-0.0482062857222247,0.0556710149988745,-0.0505974755144214,-0.1073426045234,0.120722977567261,0.00778583680820859,0.1124071466996,0.114822712860824,15.4342412599577,0.704119254692536,0.887583543065712,0.158427518168951,0.240185875456358,0.143126161583352,0.432696027793606,0.156738465954362,0.0415833675607695,NaN,NaN,NaN,NaN,1.76448514358837,-124.664357217421,2.18988412911923,stable,stable,1,0.482977561461369,0.171302982102403,0.187564554253155,0.908280004647424,0.336388372629621
122,2.62894130110741,3,-0.383642144825465,-2.56825939520108,2.62894130110741,0.00553895947139252,0.00448442815411063,0.00712672210031435,-0.0158515128823747,-0.342912051003748,0.343759623595007,0.0221875615154363,0.196534182515113,0.199191549833618,15.4453899271509,1.7499717444853,1.53231160320589,0.00750373106439419,0.0306639552430751,0.105894895610755,0.388004177947052,0.000136283698285234,0.00590586482327321,NaN,NaN,NaN,NaN,3,-97.1526305433791,1.99693049622571,stable,stable,1,0.740889323595365,0.0847947729692245,0.0530850215225689,0.970458765307372,0.352935601950775
123,1.60335174511219,2.279709815979,-0.898107836603667,-1.307702749858,1.60335174511219,0.0499552736009923,-0.0753183115475571,0.0903790762008822,-0.0453145901788548,-0.0914489392917531,0.10522794342139,0.00678677581862696,0.135363629392772,0.137479349090232,15.4296331145667,0.88866646778785,0.835860322489561,0.160793855783558,0.240184413887055,0.133431223909324,0.416308151653558,0.159704656377534,0.0359934995845216,NaN,NaN,NaN,NaN,1.66518818535526,-124.488998271363,1.68682999205723,stable,stable,1,0.455056335181297,0.168750063248528,0.185318430531484,0.906053218756041,0.340697233818078
124,2.67738696565769,3,-0.568031856183199,-2.5774683396887,2.67738696565769,-0.0324316056592564,-0.00720863609751015,0.0332230865517314,-0.0236332048431482,-0.341805675019502,0.343572595543867,0.0221647909557135,0.204925044153528,0.207073699867682,15.446830998611,1.40128176089238,0.895929461762628,0.0494442832672283,0.240476295642705,0.110003154776661,0.393771392245842,0.00189155570275107,0.00931967513562905,NaN,NaN,NaN,NaN,3,-100.530616564359,1.78655290706616,unstable,unstable,0,0.755384597482254,0.0786788319281705,0.0514369633569396,0.957228341616954,0.351109708988151
125,1.56062692908917,2.24972677230835,-0.772975842810419,-1.33540760096563,1.56062692908917,0.051076591220572,-0.0683157327638613,0.085298637232823,-0.0343155050324141,-0.0956269042171355,0.10401163882422,0.00670753247212721,0.11856993418895,0.120670146883532,15.4664915986776,0.590864609399541,0.762661443096887,0.158260078853199,0.240166651734097,0.109789866400632,0.40268132215108,0.156816329474228,0.0414915685909085,NaN,NaN,NaN,NaN,1.59718321662841,-120.692341177793,2.00688370089001,stable,stable,1,0.440301210467153,0.170685548216999,0.187195318487156,0.910235113018071,0.351204503821942
126,1.54322757196906,2.30211305618286,-0.856962261604086,-1.27200950450839,1.54322757196906,0.00320689693630064,0.00427303308328028,0.00534256489814229,-0.0399065175034057,-0.0849862032962288,0.095487981706352,0.00616253393062153,0.102436039481742,0.103150415700702,15.4360760591568,1.48982411229203,1.44688988409258,0.00975873241489207,0.0460113741410448,0.114867692243223,0.421430029677251,0.000749890484275908,0.00890379208732178,NaN,NaN,NaN,NaN,1.57811714801433,-123.111297136965,1.87778059475627,stable,stable,1,0.432157435665224,0.17172870417943,0.106608249744544,0.972046452392389,0.348947692336345
127,1.46488092654993,2.27730989456177,-0.69961413550258,-1.26319806808724,1.46488092654993,0.0466454168744769,-0.0536321174144415,0.0710788219777886,-0.0301075670633955,-0.0889662477238891,0.0966263662380033,0.00623181811842841,0.15582578723907,0.157631924961162,15.4241521916653,0.734105932524394,0.844456363895286,0.157451963594634,0.240197108089728,0.134722262057857,0.45356803485559,0.156774346596319,0.0402303763680984,NaN,NaN,NaN,NaN,1.53181850141805,-119.504479623187,2.21130785124035,stable,stable,1,0.42216129873888,0.195827635165259,0.201803296245515,0.908871028730814,0.340123439085397
128,1.63493753404453,2.18844532966614,-0.860332405669865,-1.37683393589876,1.63493753404453,0.0417374070815409,-0.0673364883145553,0.0792225587091612,-0.040346824275982,-0.100754230764518,0.110368273930077,0.00711762509921008,0.100649549009495,0.102832619304574,15.458075422911,0.719931208524435,0.7385598181104,0.160708295359441,0.24017163907176,0.11040211198799,0.39729060457191,0.159640408909167,0.0383569382513601,NaN,NaN,NaN,NaN,1.67347133841587,-121.814224359451,1.66190409208229,stable,stable,1,0.456549866272789,0.139063389778208,0.168337304261393,0.908186279968149,0.350932394672004
129,2.63276336312294,3,-0.522826232099285,-2.54795358547739,2.63276336312294,0.00767475114026435,0.00282438983809653,0.00817795714237558,-0.0232824539962285,-0.337218971200174,0.338864005035375,0.0218637318310606,0.194446921559418,0.197177714687553,15.4382982653335,1.38527504253766,1.23970729020026,0.00524197591203871,0.0265404172060577,0.0904297327325504,0.414597223013328,0.00280210073506164,0.00449048598337513,NaN,NaN,NaN,NaN,2.98812679975473,-100.15154225882,2.22109236659993,stable,stable,1,0.741505773103628,0.0841275354401074,0.0533548033624908,0.976754150858183,0.959809007674422
130,1.63806416081988,2.27627921104431,-0.899254013224251,-1.35397231026759,1.63806416081988,0.0394067501647894,-0.0414723354890405,0.0572087980075238,-0.0444879538011997,-0.0973321235825532,0.109273870685854,0.00704752003755961,0.107742644488565,0.109930539525871,15.4441941126572,0.783181432523069,0.800448777662907,0.15848713455396,0.240188859376615,0.123201189220844,0.432283035361761,0.159531856704302,0.0374346977606068,NaN,NaN,NaN,NaN,1.67291748571223,-123.514973806059,2.28950087416115,stable,stable,1,0.458803217457142,0.15408666593521,0.176967664352754,0.908313623928702,0.345243915901847
131,1.52624918747756,2.09719300270081,-0.732042852849085,-1.32734119482428,1.52624918747756,0.0284414339884837,-0.0682828391626421,0.0739693266931133,-0.0298825426162569,-0.0944559784076334,0.100324124015491,0.0064703473827158,0.111986511029883,0.11397629640424,15.4595663879419,0.786493360940593,0.854275524850394,0.158870032280019,0.240175894358634,0.11636020661917,0.426759832065881,0.159538956526926,0.0375626527035269,NaN,NaN,NaN,NaN,1.54515709711904,-119.107877075441,2.03245669923373,stable,stable,1,0.429795042608199,0.1420234016523,0.169779390329882,0.907673228328775,0.348284352613702
132,2.61895313262939,3,-0.454244609088195,-2.54628273361874,2.61895313262939,0.00488473712610497,0.0059104131765902,0.00766770113587895,-0.0197232083307492,-0.33737056895158,0.338617665791263,0.0218462753097389,0.197150203031815,0.199796926978994,15.428525321166,1.28711984572472,0.997311140440011,0.0124197059714138,0.0539190058988015,0.0931428110121734,0.420563129423871,0.000158751486767277,0.00511947900425565,NaN,NaN,NaN,NaN,3,-98.8062245222683,1.77820844583654,stable,stable,1,0.738346887430304,0.0871412903666307,0.0542169591651397,0.975841046408713,0.358603195105701
133,1.63986829596181,2.43139266967773,-0.8111913882902,-1.40676791468595,1.63986829596181,0.0230783236703717,-0.0409314900384204,0.0469893168730909,-0.0371169775146956,-0.106286235162291,0.114907086044387,0.00741047279182157,0.120531478670592,0.122624272428717,15.4165853862033,0.750527323368548,0.77737945967319,0.151086518115855,0.240193676313925,0.126155342176853,0.425966600106022,0.156740810853552,0.0395300327242949,NaN,NaN,NaN,NaN,1.68330103474598,-120.509023497779,2.00709226275985,stable,stable,1,0.461823066742226,0.186707692179483,0.196061755263557,0.912451759075316,0.34393095903251
134,2.6789058584546,3,-0.645106815153348,-2.56245496400362,2.6789058584546,-0.031423458073619,-0.00565826507092797,0.0319288221035066,-0.0275523728738374,-0.338117282039588,0.34039672925302,0.0219607240914887,0.198295539498566,0.200402740413842,15.4010423420895,1.4157892415714,0.76685246423246,0.0494163714328649,0.240280988750608,0.11218791771709,0.434581239363388,0.00185395773128343,0.0105518109085096,NaN,NaN,NaN,NaN,3,-102.269542710179,1.79429166220099,unstable,unstable,0,0.754455443670661,0.0780997992333581,0.0515208829024676,0.958142486595109,0.350138703236849
135,1.67167306980811,2.39972829818726,-0.826394278168424,-1.43510026985171,1.67167306980811,0.0477821866493165,-0.0456271054343894,0.0660679204403394,-0.039049143488458,-0.110788761637729,0.119769419110026,0.00772538063344938,0.134933420010312,0.137273592755529,15.4601837695181,0.918382206213731,0.919679357928631,0.157754066939174,0.240211080419006,0.146144586368558,0.43502802615935,0.15680984437854,0.0424243107132883,NaN,NaN,NaN,NaN,1.71044333906111,-120.370167332204,2.27649867895218,stable,stable,1,0.473234203833268,0.175924878466037,0.190675213325422,0.906681054240723,0.335046850502863
136,1.62142236749331,2.43208003044128,-0.756404797333392,-1.4148303575845,1.62142236749331,0.00237303258087112,0.00246305160649879,0.00342022029205023,-0.0329814893893171,-0.106250919475239,0.113293873185892,0.00730798224630583,0.133487399876555,0.134326342750641,15.4379865066025,1.23890770424379,0.967711614585432,0.00986604004776334,0.0452365040959053,0.0788737178772832,0.378591544695744,0.000296098751933287,0.00615072633431488,NaN,NaN,NaN,NaN,1.66149639163359,-116.91481150861,1.89309564542122,stable,stable,1,0.459244566548345,0.18302501455017,0.112183235933338,0.977729256756746,0.364945014276763
137,1.44970903682709,1.9510657787323,-0.673228841995286,-1.273233977631,1.44970903682709,0.0126542274199334,-0.0294033266072189,0.0320107026971633,-0.0252003325412509,-0.0861827815964649,0.0908204500940768,0.00585733259869115,0.0918221714281904,0.0934540888965274,15.406233480578,0.69943761360716,0.790694827475189,0.167242509234542,0.240138199389831,0.117484043906415,0.467435196188115,0.159496014693027,0.0366547093745279,NaN,NaN,NaN,NaN,1.50463962214456,-118.009747287404,2.48184720526465,stable,stable,1,0.405279894266529,0.118673895756486,0.155420440322338,0.904670561917082,0.347784869374926
138,1.56141357238476,2.16177272796631,-0.685975579250106,-1.39150487083032,1.56141357238476,0.0375554072744405,-0.0714092179325956,0.080682619078052,-0.0264631204248896,-0.103436694826399,0.10773409120315,0.00694781382324175,0.110590017859838,0.112728346860116,15.4394158819429,0.767388688540028,0.69911814331223,0.159501537713927,0.240138457643959,0.157082243088732,0.427369931349149,0.158692551958025,0.0346681419598857,NaN,NaN,NaN,NaN,1.62198882751374,-116.427624599585,1.7077635851088,stable,stable,1,0.438922622007959,0.149872623503491,0.173060194270872,0.908726677464197,0.330185669738342
139,2.61757670601209,3,-0.528997249677381,-2.52917893319611,2.61757670601209,0.00711275346343694,0.00653668844940956,0.00966020484856706,-0.0241550114066425,-0.333585240444616,0.335383419273474,0.0216330689873342,0.198556912947415,0.201106432074245,15.4325384066284,1.17201430472228,0.760578053595441,0.0186711344226018,0.0478291391262453,0.103531393618414,0.386204992379364,0.000116653855665579,0.004834353763201,NaN,NaN,NaN,NaN,3,-100.33835635475,1.54289189211961,stable,stable,1,0.738241741351406,0.0878162787028503,0.054499560202766,0.975479778544774,0.353986047280705
140,1.58481215729433,2.28537559509277,-0.726040311042355,-1.39023381143209,1.58481215729433,0.048323987170404,-0.0501891516826439,0.0696717925897476,-0.0310483449481849,-0.103878000970083,0.110382351273976,0.00711804444763987,0.128493965583178,0.130675786106983,15.4696232463945,0.727389984497097,0.610730890915093,0.157837322397104,0.24017702677939,0.0932517006602177,0.364429106549178,0.159613093084386,0.0371115662857586,NaN,NaN,NaN,NaN,1.62484937329115,-117.662804067615,2.07136637496771,stable,stable,1,0.448751732499885,0.170399935479437,0.186674228782615,0.910567531923209,0.35855479970657
141,1.58132364650567,2.31403613090515,-0.756402328112778,-1.36796325403832,1.58132364650567,0.0396177481015974,-0.0681155687374267,0.0787990905345025,-0.0328745473299869,-0.100842312880761,0.108453665523038,0.00699399490761749,0.131404815812052,0.1334117001784,15.4482946130109,0.643340076321423,0.771618805087711,0.155546157092179,0.240185016150309,0.114600339846631,0.393602028605501,0.156865914903149,0.0422781092139527,NaN,NaN,NaN,NaN,1.58700801541868,-119.377240163094,1.67105775933466,stable,stable,1,0.448368645770526,0.179306808921208,0.192676127650107,0.911109387385696,0.349066515623719
142,2.63641493320465,3,-0.620225762666512,-2.53208020561615,2.63641493320465,0.00619044261533786,0.00835271134629951,0.0103966036092751,-0.0284928145654485,-0.333197698646688,0.335493541299586,0.0216416549794704,0.192098175729781,0.194744815529865,15.462580227342,1.28157671985531,0.777342862499159,0.0113584378180056,0.0435469955706803,0.0844924247128315,0.365647363760579,0.000166887993726853,0.00546516401591345,NaN,NaN,NaN,NaN,3,-102.460692774955,1.84209087259398,stable,stable,1,0.74199294529388,0.0837126840239873,0.0522891152254719,0.978143555801069,0.362447811238742
143,1.46586790951816,2.08137273788452,-0.622257718438661,-1.30920236864245,1.46586790951816,0.0482817034314696,-0.0384151306791313,0.0616996365575934,-0.0232235405194778,-0.0924081962811338,0.0968222893509757,0.00624463079733055,0.1229705201777,0.124817834737932,15.4490516709254,0.99666630401144,0.726336334938746,0.157900864376729,0.240141432754581,0.14065656461483,0.366178672294419,0.156953162280802,0.0398950993002829,NaN,NaN,NaN,NaN,1.50542716708844,-115.316950545559,2.27085654369631,stable,stable,1,0.415861676152428,0.149800186417991,0.174144381700951,0.90751168993417,0.337485971282298
144,2.68291636356141,3,-0.55765140857531,-2.59070321033273,2.68291636356141,-0.0246617699585752,-0.0108436443155613,0.0269404439371754,-0.0243372539108869,-0.34241614641485,0.344223601357349,0.0222316639641043,0.198357914953515,0.200450080970944,15.2006358993763,2.08877408442701,1.13938809202451,0.0510276159214101,0.240238447709475,0.180854320495127,0.553685433969195,0.00185007576649624,0.00898529750089737,NaN,NaN,NaN,NaN,3,-100.955060334027,1.93540256753725,unstable,unstable,0,0.755534379810566,0.0762828995871642,0.0498593765579363,0.94912206065289,0.319620302002166
145,1.65017148572156,2.281653881073,-0.731155658161455,-1.45958771606787,1.65017148572156,0.0488178408112982,-0.0962994171058445,0.107966473112734,-0.0310007922340642,-0.114617214898807,0.120774886278494,0.00778932886596291,0.130590954020829,0.132757996480642,15.412033476576,0.850876021569365,0.814983915759984,0.159611937243514,0.240185614401985,0.169891939611425,0.471582946660066,0.159641947069626,0.0370972623398601,NaN,NaN,NaN,NaN,1.68254359450145,-116.590495520199,1.89182326131702,stable,stable,1,0.466597328821876,0.161877392358076,0.181568325468366,0.907105131870655,0.324492471283811
146,1.73442743778229,2.60870146751404,-0.819556306537416,-1.50192665115792,1.73442743778229,0.00498954225488156,0.0025716306955976,0.00561327144789813,-0.0406625082301678,-0.123150557329716,0.132856180839868,0.00857226722486744,0.187026754092183,0.187986396829077,15.4562841760054,1.46069297733464,1.25852270824627,0.00549821056741303,0.024491226225005,0.0984783341399845,0.398428407025857,0.000161633395311283,0.00462078191518768,NaN,NaN,NaN,NaN,1.779143412243,-117.297381887505,2.14707051508277,stable,stable,1,0.500111262774426,0.197740756455092,0.120396575270433,0.975885628615301,0.35623185149334
147,1.45017540760529,2.0653383731842,-0.688591935015373,-1.26051328522167,1.45017540760529,0.0463533646609813,-0.0541844758237017,0.0713063239529512,-0.0276750703846013,-0.0855692104803221,0.0916074104551121,0.00590786703958889,0.121826247407285,0.123596686012876,15.4218061430092,0.744488951159795,0.770626546900186,0.160316623386451,0.240163709102386,0.131721708414738,0.414882608462647,0.159640494258149,0.037304715490555,NaN,NaN,NaN,NaN,1.48754464037965,-118.732441752547,1.77686053443126,stable,stable,1,0.411432779230654,0.151484493313296,0.175407377856852,0.907937209393446,0.341457018482338
148,1.70685764352481,2.39305090904236,-0.747620516238124,-1.5159435174747,1.70685764352481,0.0435295504240978,-0.051641777180591,0.0675403206277101,-0.0324841900485283,-0.123806798728099,0.129927459650832,0.00838016062103098,0.12354691442615,0.125950762305561,15.4302664083916,0.839960206183604,0.895198550518881,0.158753699676777,0.240193154958749,0.104732970920174,0.459988481619779,0.159617199004781,0.0371651476958991,NaN,NaN,NaN,NaN,1.75445964810256,-115.915142708198,2.11165270345778,stable,stable,1,0.480352190734394,0.16677587685653,0.184521102611521,0.906989759930378,0.353452012924367
149,2.57393035809199,3,-0.605381618144144,-2.47012053553774,2.57393035809199,0.00489540942976741,0.00529762015713978,0.00721316940147598,-0.0278984785331149,-0.318518181970228,0.320866701662584,0.0206958579529592,0.198646741208371,0.201127661284418,15.4393584765564,1.17809106594117,0.716100250605973,0.0148334037690656,0.0550616688268076,0.0973635779052365,0.417600241098139,0.000191934025017807,0.00524657780126579,NaN,NaN,NaN,NaN,2.89228411426449,-102.374592577792,1.6834948312267,stable,stable,1,0.726606961081414,0.0971880838195728,0.0603060007760503,0.977700366342597,0.356727298708784
150,1.518330251875,2.29638695716858,-0.623371054258169,-1.36592052649357,1.518330251875,0.0372405137377275,-0.0584579248774367,0.0693122272360794,-0.0231577905903962,-0.100180295401338,0.104416493865401,0.00673511658755154,0.114413082217177,0.116331905779421,15.3941804123972,1.10139873490479,0.782785366702708,0.157552284757504,0.240155923950626,0.14568112490009,0.402174818800127,0.156599812035698,0.0429426087851724,NaN,NaN,NaN,NaN,1.57055207434036,-114.528428258895,2.21477360468249,stable,stable,1,0.428154448322552,0.187770000351003,0.197877410774611,0.906419553965761,0.335252833377738
151,1.49623003971478,2.16165995597839,-0.641628399418961,-1.33568227872838,1.49623003971478,0.0436830303982632,-0.0412812971869633,0.0601028505331816,-0.024366461180527,-0.0966521715627441,0.101074300641453,0.00651807005734941,0.118608931361571,0.120561387620375,15.4676764196859,0.659072229152805,0.673457710204725,0.158024303263433,0.240198345535762,0.108233315451735,0.373102333487543,0.159504105840361,0.037345702395571,NaN,NaN,NaN,NaN,1.53043490962982,-115.371127707452,2.14854645636084,stable,stable,1,0.42310695478135,0.160740587090396,0.180915321377636,0.910517970273331,0.351896304243673
152,2.63643717486723,3,-0.662569478869926,-2.51637478347772,2.63643717486723,0.00943254210672562,0.00694451493506512,0.0117132035873408,-0.0327022292431986,-0.329499720499337,0.332548120913091,0.0214524343588022,0.199701472727717,0.202316900855147,15.4474736188366,1.26667685938966,0.8872018013947,0.0144090100241489,0.0523821035479187,0.0786804890409109,0.371354552173564,0.000223396119185197,0.00438101450648561,NaN,NaN,NaN,NaN,3,-103.235441300153,1.70266916615997,stable,stable,1,0.743513293468957,0.0839490563125528,0.0520618171357906,0.975872162653191,0.365030893759595
153,1.44307751990547,2.43579506874084,-0.634049987943702,-1.273274722688,1.44307751990547,0.0442221354795038,-0.0644916635564575,0.0781970071975066,-0.0250662794796449,-0.0896218741070149,0.0952141803788012,0.00614055534877249,0.1401141910058,0.141976143587941,15.4380513675352,0.897181062527414,0.682147717733059,0.15802004411229,0.240157801302086,0.131378580917955,0.4366560044389,0.159607849443043,0.0345265118434641,NaN,NaN,NaN,NaN,1.53053947457772,-117.277382087191,2.13073330119612,stable,stable,1,0.41321590069238,0.237697566474169,0.226110457074992,0.908580966098951,0.34160951959202
154,2.60147421238317,3,-0.619533470463669,-2.4945189990266,2.60147421238317,-0.0135321795839241,0.0145800868061445,0.019892179759048,-0.0301515909949336,-0.332952410875817,0.335589982299595,0.0216618732395956,0.199353632449465,0.201289027047431,15.4218480699014,1.6912047959245,1.34078119773447,0.0574275182224053,0.24046628671213,0.121333576540878,0.415685954955355,0.00192000670007329,0.00758092318882407,NaN,NaN,NaN,NaN,3,-102.931426400997,2.46337450950321,unstable,unstable,0,0.733984262044999,0.0933152018362782,0.0595991567543012,0.947463493795763,0.346073965981832
155,1.65356320344796,2.30703139305115,-0.760270927798418,-1.44745389560832,1.65356320344796,0.0555857161659954,-0.0672601965395573,0.0872565520761993,-0.0335974912161935,-0.111812135586956,0.119044803695542,0.00767801749752472,0.122377903358274,0.124612948589478,15.4495277906191,0.981276099366858,0.846090196033616,0.158445304578281,0.240198214177779,0.149156574947852,0.392931917080807,0.156895329282865,0.0414323803266639,NaN,NaN,NaN,NaN,1.68981233095603,-117.495671617653,1.98711122297412,stable,stable,1,0.465872777304017,0.163027377208021,0.182614003902651,0.90641946967557,0.333708188912066
156,1.59816252926985,2.53353524208069,-0.706608787869886,-1.40843823423607,1.59816252926985,0.00553940181953366,0.00467216114105122,0.0072466586953024,-0.0309150334918455,-0.107877932026322,0.114563245493322,0.00739243844238528,0.16659867740445,0.167479983903412,15.3997746313729,1.52325670722036,0.987040071032702,0.0121295019870965,0.0647139534116935,0.116263230100211,0.44348125171997,5.78056620223382e-05,0.00465264052669475,NaN,NaN,NaN,NaN,1.64682358488304,-115.230680905002,1.81093538137159,stable,stable,1,0.459672671252643,0.211787414476576,0.128790009373724,0.974211488605892,0.348327453288795
157,1.65394794529882,2.50759267807007,-0.699001066095619,-1.47150179391408,1.65394794529882,0.0693219844286097,-0.111409103127523,0.131215569902354,-0.030665159357871,-0.120039554442559,0.126644725591658,0.00816765151368159,0.16759117290771,0.16998617021115,15.4075336522589,0.773964410861378,0.837232579364368,0.16135645682979,0.24022553706955,0.128983309220911,0.427659490485059,0.159604593971985,0.0357057906169052,NaN,NaN,NaN,NaN,1.69535374865113,-115.407012304463,1.65147678004076,stable,stable,1,0.475050019455249,0.216126252688963,0.21359505057273,0.906662366661903,0.342674084790706
158,1.63224532157183,2.34502053260803,-0.738722534312552,-1.43514442782412,1.63224532157183,0.0402262607090566,-0.0699814133513729,0.0807189585245543,-0.0318582736787274,-0.110428908770666,0.117138379194412,0.00755396586310927,0.134060299582753,0.136276458015856,15.4640985057682,0.764744647682021,0.703974420424723,0.157315021729448,0.240194516073493,0.120435790439936,0.369956960761052,0.159493513938904,0.0371022533937182,NaN,NaN,NaN,NaN,1.65925020896733,-117.23842078182,2.11194261290868,stable,stable,1,0.462520710688992,0.175172898212648,0.189481473629464,0.909802553600152,0.346472982026695
159,2.56387511293093,3,-0.743495244701566,-2.42012729066414,2.56387511293093,0.00629297487552672,0.00792800838708579,0.0101219983091143,-0.037898672463299,-0.306729989683205,0.310887848982054,0.0200756262241719,0.20815251150949,0.21055171497094,15.2890961648903,2.12250208704847,1.18735021752218,0.0104267048798435,0.0622537919626381,0.125467780798125,0.437909511871798,0.000212865292000088,0.00552710448461775,NaN,NaN,NaN,NaN,2.88835322200788,-105.56852442763,1.9571634960744,stable,stable,1,0.725810373109104,0.0999837992805442,0.0620947425409956,0.968780665167023,0.9442365418675
160,1.54617413120755,2.22001934051514,-0.6586875350278,-1.38101968501141,1.54617413120755,0.0505206296318986,-0.0608030166401387,0.0790527725696224,-0.0255384884290696,-0.101751573126833,0.106458000546786,0.00686569110300527,0.118731255379804,0.120799964834465,15.4635554280522,0.757835997664323,0.73852360985728,0.159349831083057,0.240206011134995,0.137118753607056,0.372804843398504,0.159519253210445,0.0372286821988146,NaN,NaN,NaN,NaN,1.56544004446909,-115.546181583882,2.00870841987827,stable,stable,1,0.436473094622239,0.166108180398638,0.184100056728243,0.908567973256516,0.339058331730197
161,1.65483442121301,2.30571103096008,-0.746831368343805,-1.46350662609764,1.65483442121301,0.0293939009761691,-0.0595423566508274,0.0664025123781561,-0.0311066376642708,-0.113435748168029,0.118913577338146,0.00766899784652479,0.108724275796777,0.111037576921328,15.4767901361537,0.881487767291999,0.634812917889705,0.157328876248608,0.240187655789443,0.146290532711084,0.385063941236156,0.156754819847354,0.0428089429865706,NaN,NaN,NaN,NaN,1.70136515468512,-117.053321105748,2.2213776141477,stable,stable,1,0.463496694374401,0.158621031129087,0.180408315857252,0.90942177077784,0.334981985461741
162,2.5716069885095,3,-0.715727730800799,-2.43875469669294,2.5716069885095,0.00534082854402561,0.00079891026547961,0.00540025065612397,-0.0353515009704466,-0.31115315287314,0.314745846934839,0.0203138436146414,0.202303680548399,0.204716082851591,15.4320641190933,1.72013727814165,1.2975237064318,0.00891236071000138,0.0415812559688482,0.122141228619429,0.399802284212098,0.000321434638107304,0.00544457143485922,NaN,NaN,NaN,NaN,2.85921158454158,-105.062668776886,1.9688456538186,stable,stable,1,0.72670508017285,0.0973784735389861,0.0605497881206811,0.971833626194779,0.345715009502476
163,1.68204798963335,2.32424020767212,-0.731049452933724,-1.49319786624135,1.68204798963335,0.0553452688189375,-0.0764996190657876,0.0944208160198325,-0.0317943377675901,-0.119225471629115,0.125600281104139,0.0080992293877127,0.141414042071678,0.143874439360574,15.4587321682427,0.689745976358466,0.622173905782475,0.159864879380242,0.240189848243679,0.120129053690656,0.405713136343413,0.159575468961286,0.0359119977113085,NaN,NaN,NaN,NaN,1.71874998102098,-116.787170824054,1.92998718483883,stable,stable,1,0.477321018441008,0.161803731995693,0.181063578105534,0.909759618378772,0.34660930947082
164,2.47072558573314,3,-0.76568555501074,-2.31564703870139,2.47072558573314,-0.0220493900784035,0.00677024346607424,0.0230653809727808,-0.0394012110541064,-0.290296875419789,0.295136069319627,0.0190424840933362,0.224888981058888,0.226519882103569,15.4365835371547,1.36543165803784,1.13003388106382,0.0497640781283386,0.240326224086912,0.104874219847616,0.424253775618756,0.00191696434213516,0.00868514232446956,NaN,NaN,NaN,NaN,2.64390369362176,-106.697557678757,2.10338129731068,unstable,unstable,0,0.704164132616218,0.123315396388386,0.0779994555576263,0.955510731700032,0.353389235623282
165,1.64128571954267,2.25077128410339,-0.670936602500114,-1.47836288141557,1.64128571954267,0.0689494953826452,-0.0739887627483198,0.101135403922408,-0.0267057838887234,-0.117413620872137,0.122065697119886,0.00787152463398242,0.130714733998739,0.133035589568603,15.4686750957864,0.670663129884521,0.642764524987258,0.161640796332687,0.240210701938534,0.14385380796768,0.387477992230784,0.160234477427186,0.0362112030441178,NaN,NaN,NaN,NaN,1.65443912380199,-114.70021335318,1.62850186802271,stable,stable,1,0.464283309791765,0.155675742745271,0.177788479145995,0.908859813116807,0.336064974236587
166,1.66603853503863,2.3388683795929,-0.722470256004204,-1.48824399705965,1.66603853503863,0.00716566920498133,0.00425574119501871,0.00833415552255878,-0.0293563469836069,-0.115973129529569,0.120796152028019,0.00779196671041357,0.11410535249487,0.115079836551004,15.4307052383553,1.21006817595198,0.829615081455982,0.0117694208585577,0.0582634707953758,0.0817666431889344,0.370895620181591,0.000170740329967343,0.00570385275921941,NaN,NaN,NaN,NaN,1.6985678915868,-115.061450151433,1.80376083161354,stable,stable,1,0.467292909987169,0.152914643537179,0.0938987989894837,0.978089206833944,0.363659269693807
167,1.49838922455393,2.24985671043396,-0.680722803400782,-1.30890724070667,1.49838922455393,0.0699805674535501,-0.0727633128459106,0.100954343727413,-0.0287587902128602,-0.0938889930480781,0.100845413375158,0.00650356327466169,0.154445547662919,0.156322320519077,15.4377268603948,0.832151462213591,0.807454750731976,0.161031648344821,0.24016317839058,0.111906149379011,0.427345925623294,0.159591812879131,0.0342241519457182,NaN,NaN,NaN,NaN,1.53242316823457,-117.234742424214,1.58671229100249,stable,stable,1,0.430834923984863,0.187588480673032,0.195927929178846,0.906601555583017,0.350263933609328
168,1.75398168584396,2.33718156814575,-0.84593760308589,-1.52024930590999,1.75398168584396,0.0509037478640374,-0.0839386902982153,0.0981676895703734,-0.0401285693704439,-0.124369538700616,0.132679442442312,0.00855648367972097,0.124945954090565,0.127471461871928,15.4768057796668,0.846073323991549,0.715812872971654,0.161103921341643,0.240176060843272,0.111429913983014,0.354618350096844,0.1594875970634,0.0351242980130963,NaN,NaN,NaN,NaN,1.76822611766951,-118.998443980142,1.77832428768977,stable,stable,1,0.493222741932775,0.149217383272471,0.173186278440867,0.907176076353039,0.350475593785327
169,2.46146183609962,3,-0.777142435554578,-2.2978628578524,2.46146183609962,0.00619257077465894,0.00781317022026931,0.00996963197365195,-0.0418746284364668,-0.278572946090381,0.28426683011232,0.0183419079979741,0.223052924591681,0.225239765303954,15.4207875582753,1.47905416875175,1.17920868482416,0.0060586620279619,0.0501440411963686,0.0897784637758086,0.435121409737364,0.00015230823417114,0.00511325415879367,NaN,NaN,NaN,NaN,2.66549340284327,-107.193726307889,2.09189543416896,stable,stable,1,0.701437776020691,0.122998852739421,0.0757263693408251,0.976084317993637,0.960098460544085
170,1.69879093741582,2.4446337223053,-0.732270401285138,-1.52143715631897,1.69879093741582,0.0316600781595726,-0.0544884216847398,0.0630186372969478,-0.0300216819556627,-0.123920951120387,0.128619677356952,0.00829527378382144,0.119893116503046,0.122290001795565,15.4243241673017,0.837423427820513,0.743515479595775,0.157345599596837,0.240239719446723,0.160006651066224,0.454355537125355,0.156776470527179,0.0409454102320866,NaN,NaN,NaN,NaN,1.77840570795084,-115.675983280215,2.12718640458593,stable,stable,1,0.477468917003333,0.179368043437905,0.192188497492551,0.908905537357596,0.328885932859456
171,1.65279298205661,2.40020728111267,-0.771483766233862,-1.44364075727632,1.65279298205661,0.0418870242076016,-0.0714133724495876,0.082791258968515,-0.0340730269652982,-0.112343094322027,0.119492278075304,0.00770697454938182,0.132901541963441,0.13519879482071,15.4287382365479,0.938061502912261,0.803070263460289,0.160773891075193,0.240208623363233,0.126138217108442,0.404876443982332,0.159723694241002,0.0379300189240886,NaN,NaN,NaN,NaN,1.68221562017466,-118.331726157389,1.51547361179424,stable,stable,1,0.467784554179238,0.183346614765175,0.194789011564876,0.905932733440905,0.343938570174026
172,2.40420439640681,3,-0.848962870215323,-2.21633403298236,2.40420439640681,0.00792934094122656,0.00192217843927691,0.00815899612174395,-0.046868350114189,-0.261999222128487,0.268881267757718,0.0173429371913535,0.227253867781702,0.229255427166617,15.4279225121756,1.04562210635077,0.888137393286221,0.0152515168273817,0.0676609955041587,0.0891234702977488,0.43435159941905,0.000215331275987423,0.00530632944522827,NaN,NaN,NaN,NaN,2.5789773418386,-109.450212225276,1.6770506262547,stable,stable,1,0.686972257808473,0.135549826764121,0.0833551731915197,0.977180416946304,0.360389568756556
173,1.57722871030791,2.39737939834595,-0.694287400911917,-1.39228262826107,1.57722871030791,0.0526729459673809,-0.083337781306578,0.098588158670226,-0.0295519498154683,-0.107190879989873,0.11362424892706,0.00732783566012294,0.152855591452928,0.154914463639532,15.4624165548593,0.835398314130993,0.795904449073015,0.157915483847364,0.240186936605472,0.119717505511178,0.388952694873167,0.156854412238743,0.0412564074637579,NaN,NaN,NaN,NaN,1.60572032516396,-117.151648626796,1.98055376192893,stable,stable,1,0.451577215476683,0.202608400564766,0.206280442431788,0.908224879222572,0.34679221977281
174,2.24754661616157,3,-0.733058282794628,-2.09349668823047,2.24754661616157,-0.0153123661239722,0.0187204591459688,0.0241852051252509,-0.0368199201389359,-0.247918032522609,0.252751308963926,0.0163074011210751,0.23557029649458,0.236991327866252,15.4398531013775,1.34640368245682,1.11788655036914,0.052594947317355,0.240418720853624,0.0995851758461632,0.420072712227305,0.00197735083562129,0.0114363217055222,NaN,NaN,NaN,NaN,2.36078838964489,-107.709824257803,2.3024389373009,unstable,unstable,0,0.646744029883003,0.173735965636609,0.109279064413947,0.954340245940547,0.35573992184615
175,1.66853256831909,2.28024792671204,-0.791332896214516,-1.45590243882448,1.66853256831909,0.0498764699319999,-0.0625727219371819,0.0800187964387467,-0.0347326257222156,-0.112740475647732,0.119446572744308,0.00770488596470771,0.114168823071578,0.116356560076127,15.4398456420685,1.02356515456002,1.00271202138084,0.161224996929233,0.24018715027944,0.129477990925221,0.396434265671907,0.159662597107996,0.0356582176355711,NaN,NaN,NaN,NaN,1.70036876942666,-118.357386427334,1.87469673605231,stable,stable,1,0.46821333023365,0.15230606831885,0.175311419856283,0.903466752295848,0.342454226255458
176,1.76349538822969,2.68157958984375,-0.878816045170225,-1.5014900726253,1.76349538822969,0.00542744537182126,0.00244898137323643,0.005954382674179,-0.0459580379557875,-0.122438878713624,0.134482002479566,0.00868053461033984,0.181226951578018,0.182222494426951,15.4271285229374,1.85849601311133,1.49705019362517,0.00600855118622901,0.032519825493909,0.109698126235517,0.417212540830155,0.00245962355733703,0.00609052454917391,NaN,NaN,NaN,NaN,1.79740384781532,-119.424856454763,2.23827092062015,stable,stable,1,0.50670993574664,0.207660582186763,0.127904251537241,0.970630718496813,0.351245277228659
177,1.94039452268231,2.80703854560852,-0.947423400135253,-1.67864540716606,1.94039452268231,0.0363497027397803,-0.0199122936061745,0.0414463547966392,-0.0497861609400944,-0.150078798694242,0.160200435876304,0.0103346017782072,0.135637922085463,0.138747622738124,15.4121166432349,1.10471349948667,1.04871640499003,0.164238732281159,0.240315842649035,0.151199578872755,0.432741771009082,0.159572815745598,0.0355784442407691,NaN,NaN,NaN,NaN,2.00389774569212,-119.82849383685,2.45742857196873,stable,stable,1,0.545188063929575,0.202593403537781,0.205414909652709,0.900960827467103,0.332800187167664
178,1.85339350050146,2.63195300102234,-0.962732636896263,-1.55260543815762,1.85339350050146,0.0612438542046317,-0.0913230140084389,0.109957730812452,-0.0546427708857228,-0.132723005829763,0.148646441612853,0.00958656920900292,0.170418607677364,0.172965465059703,15.4698118460763,0.847871235706654,0.89970585942186,0.157247113247315,0.240225935188231,0.135665181842765,0.421244275218391,0.159548998610988,0.0327948061777588,NaN,NaN,NaN,NaN,1.88108853169074,-121.75609313085,2.25772138865645,stable,stable,1,0.52883135981233,0.195334804932814,0.200036933073656,0.907645480486047,0.339704363625438
179,2.46824441825267,3,-0.640912887559512,-2.34811866971791,2.46824441825267,0.00476456444399877,0.00236180406943846,0.00531781842520345,-0.0314349372458367,-0.292657288658687,0.295866770614695,0.0191013518324342,0.216433704376136,0.218490351302846,15.3942912206467,1.96998635850447,1.60622076570588,0.00703916978701268,0.028776689861526,0.138309943733621,0.415192627426083,0.00194200076571392,0.00767431010416716,NaN,NaN,NaN,NaN,2.73243854491602,-104.018907315581,2.18429536490942,stable,stable,1,0.701896581794615,0.120619939271103,0.0760257332337874,0.968381644844841,0.338528913896168
180,1.80293018527392,2.60962986946106,-0.861379337207643,-1.55295916016061,1.80293018527392,0.0490397019835118,-0.102737333669891,0.113841346180683,-0.0449138421129905,-0.133331211125433,0.145156872111767,0.00936190641581184,0.175609937461987,0.178206341301889,15.4033957768332,1.00134163491922,0.873361616604435,0.158588655000749,0.24027111087097,0.109214241165044,0.442945098277667,0.159769140751402,0.0370870665231617,NaN,NaN,NaN,NaN,1.85620598441334,-119.444845846151,1.96181568826762,stable,stable,1,0.516422651000089,0.202378342408566,0.205921718454185,0.905975861237654,0.35146033725998
181,1.84822260031179,2.60215449333191,-0.861015950489512,-1.61306166460284,1.84822260031179,0.0626423624461732,-0.0628372012740508,0.0887275573696995,-0.0428554502658396,-0.138837539321921,0.148150758345383,0.00955494186182076,0.133139259487769,0.135983674882289,15.4249216229851,0.737432699622116,0.887145853198269,0.156895959022563,0.240230882619051,0.122608004772916,0.425422069244578,0.15678690138055,0.0395137645538345,NaN,NaN,NaN,NaN,1.8944468966032,-118.434379956689,1.71686488587308,stable,stable,1,0.520056095059602,0.185901394780638,0.195592545804567,0.908787474716558,0.34550755343426
182,2.43875794927279,3,-0.451485574891227,-2.36741864677817,2.43875794927279,0.00719112407244028,0.00749024054715762,0.0103834468689118,-0.0186554257012041,-0.296701927493529,0.297909776323026,0.0192297248734896,0.219398140455377,0.221788106001683,15.4180920757102,1.71768908268244,1.58775799713853,0.00637960707123641,0.039810043924833,0.105666712665561,0.417334383580469,0.00270547511533104,0.00530599183176059,NaN,NaN,NaN,NaN,2.61222307005049,-99.3162222201901,2.29689565282758,stable,stable,1,0.694693074339748,0.128183093339589,0.0800417409635307,0.970838826551503,0.353037016593084
183,1.80802518706168,2.39711833000183,-0.936811477493238,-1.53225356473125,1.80802518706168,0.0325750826038584,-0.0296628138280996,0.0440569918497473,-0.0484987618174918,-0.124761820304698,0.135983803369788,0.0087693705443199,0.123487325341694,0.126069022382772,15.4319904183528,0.705211255985662,0.767847082517969,0.165276859498633,0.240219863489921,0.0899548245742711,0.443728750646745,0.159619007403248,0.0393791565972134,NaN,NaN,NaN,NaN,1.87171872539055,-121.350351106356,2.41740906549211,stable,stable,1,0.507353854359669,0.140623072333988,0.169635317776581,0.905787540448155,0.360020077966991
184,2.55909725885228,3,-0.287561490303796,-2.51068124216051,2.55909725885228,-0.0227105063411408,-0.01781581683378,0.0288646917136802,-0.010604406015075,-0.322691191348712,0.323217230058813,0.0208549233952294,0.222427155147583,0.224376437358377,15.3964806575789,1.40086326875963,0.956261315289053,0.0490402911934091,0.240298789738023,0.0890459782190143,0.425839854493641,0.00189173874193445,0.00986956656851677,NaN,NaN,NaN,NaN,2.70378156394852,-95.0700514349474,1.85339129474782,unstable,unstable,0,0.727301223165617,0.104494976905745,0.0671266922152826,0.956959589814341,0.360424009680438
185,2.07808770888891,3,-1.16420056149138,-1.69158036915726,2.07808770888891,0.0581687884841885,-0.114272135285362,0.128225305054792,-0.0770268341251348,-0.155464486210607,0.179594710234933,0.0115829067025779,0.167131829283735,0.17065717598051,15.4666550990703,0.944313761362978,0.853966247667373,0.159446956701472,0.240372448639676,0.143160374758232,0.403910739489423,0.15677317346594,0.0411092117238404,NaN,NaN,NaN,NaN,2.15708888634091,-124.745911655981,1.89409376753648,stable,stable,1,0.588288157566478,0.230938238093374,0.223188713104101,0.906147178721168,0.336373166774119
186,2.08265212019285,2.88251495361328,-1.13498469081842,-1.72915826779292,2.08265212019285,0.00337645652234893,0.00151431090958789,0.00370048593811807,-0.0698897346458862,-0.157358006738462,0.175219273922365,0.0113075336459598,0.14405034246936,0.145430360841582,15.4427725498708,1.55333641041477,1.28993780914967,0.0102893138781755,0.0503059870171864,0.102827776434944,0.457947743350267,0.000256923777500054,0.00733822571074279,NaN,NaN,NaN,NaN,2.10837557196529,-122.363616262261,1.88468844885423,stable,stable,1,0.584459970886409,0.180647559941586,0.111171170023505,0.972515331335763,0.354298766028914
187,2.02790869077047,2.85535335540771,-1.07168813197732,-1.70602911087299,2.02790869077047,0.0398822048684746,-0.0487096199370438,0.0629540891410735,-0.063224455733161,-0.154723612783973,0.169865057266818,0.010956099760921,0.140139222119433,0.14342280491846,15.4039383208532,0.920314900207001,0.9298461068305,0.155132536701324,0.240259768842343,0.143879223795298,0.492639460224881,0.156836653596649,0.0409181949028274,NaN,NaN,NaN,NaN,2.09849345512064,-122.244984043751,1.88976834360214,stable,stable,1,0.569460211855817,0.197716632552578,0.203214502508863,0.907896752308329,0.336053678313201
188,2.03900229536797,2.81976580619812,-1.11598077815644,-1.68398557635069,2.03900229536797,0.0271948862511884,-0.0871462042488822,0.0912908689475732,-0.0691262142518961,-0.153074637309295,0.172359219949469,0.0111160960135677,0.158884870719678,0.162099641643133,15.4234274168743,0.744432008492871,0.930359695596907,0.157797854410937,0.24030646445631,0.131475726987799,0.480295168574427,0.156800868245184,0.039986641073467,NaN,NaN,NaN,NaN,2.08252249604559,-123.526280590972,2.23444997882284,stable,stable,1,0.576153873760086,0.192408449243838,0.199674941075928,0.90794199511954,0.341566343560978
189,2.49291811426481,3,-0.77185601527493,-2.33716095682068,2.49291811426481,0.00373734156648595,0.00521009253800267,0.00641192531453188,-0.0400916176322076,-0.287837669455367,0.292755384436963,0.0188893832379874,0.216777680263542,0.219021884011274,15.4279638032845,1.54488544244971,0.922093154013442,0.013462551547667,0.066422495685345,0.105215974145116,0.452515356318277,0.00012014281352814,0.00516215110610295,NaN,NaN,NaN,NaN,2.71977714743149,-106.924123588306,1.7613931706487,stable,stable,1,0.708582540606203,0.115268943931416,0.0710919090216269,0.973885320968242,0.353237344824393
190,2.00945278180057,2.89813685417175,-1.07163627835427,-1.68428818224315,2.00945278180057,0.043665132030637,-0.0930052027309219,0.102745372111219,-0.0622377538972766,-0.150468043901942,0.165422905581461,0.0106699727105663,0.128503743732183,0.131755359449992,15.4333475741203,1.05865344976883,0.96035514422107,0.16051856100056,0.240239574849979,0.144160808773996,0.38295696680351,0.159632533397595,0.0356462125214489,NaN,NaN,NaN,NaN,2.06580628279313,-122.281189709167,1.60386600270671,stable,stable,1,0.562205147036816,0.218790567837241,0.215184392422206,0.903877080546942,0.33592852943378
191,2.0561375525491,3,-0.960099569889792,-1.78162039131859,2.0561375525491,0.089833373648499,-0.117804269717849,0.148148172397862,-0.0565513389575774,-0.173467926702977,0.188053529140279,0.0121286070695444,0.18745945264024,0.190830784274308,15.4573733546852,0.986073909581039,0.891002363143324,0.159848545513664,0.24028525868697,0.135634351369476,0.41411372628775,0.15943425942391,0.0370242951666295,NaN,NaN,NaN,NaN,2.07634549688122,-118.754548572983,1.63308154438316,stable,stable,1,0.586469504201288,0.239529548949394,0.2280407802853,0.90532727081462,0.339718066058011
192,2.47637117465337,3,-0.959090374864314,-2.24930608178495,2.47637117465337,0.00850929950368524,0.00400553251388787,0.00940491726509228,-0.0567462752913672,-0.267509647273354,0.276882542187691,0.0178719796974114,0.215449484686641,0.217511633007803,15.4010983420204,1.77655012729626,1.59892181158999,0.00903759515171382,0.0645113286307632,0.0965951594138962,0.437094039542559,0.000260064221615856,0.00478449846034472,NaN,NaN,NaN,NaN,2.68099720733185,-111.612146549017,1.96404450163845,stable,stable,1,0.703867973175793,0.119540720534925,0.0735798340413945,0.968959637190037,0.357068818038268
193,2.07406014923392,2.85389256477356,-1.04266478590205,-1.76820468717269,2.07406014923392,0.0645575533736822,-0.0963542482789369,0.115981976440285,-0.0617703960949709,-0.167119131176764,0.182335164933119,0.0117604421556161,0.159218587454249,0.162736607917316,15.4527597173752,1.03660283669305,0.8914349911149,0.159781368218477,0.240311258419804,0.103351637303967,0.38913066602933,0.159791990315176,0.0348978994967629,NaN,NaN,NaN,NaN,2.11900443077325,-120.570247299149,1.80372399716491,stable,stable,1,0.585630028045841,0.196725655843805,0.201744201140134,0.904960447243699,0.354065938976015
194,2.41934887290279,3,-0.948759434320246,-2.19345768456159,2.41934887290279,-0.0110840503134865,0.0192509013013426,0.0222138103950208,-0.0573508727097019,-0.265162256238506,0.274966671283738,0.0177461390082445,0.223155549317142,0.224673285971764,15.4200225147515,1.58541749891247,1.35670007696822,0.0555196733163266,0.240433145616102,0.114036534130237,0.43106135760883,0.00193618093121588,0.00754502282424479,NaN,NaN,NaN,NaN,2.61715863552686,-112.220792726245,2.41915967767398,unstable,unstable,0,0.690094356635096,0.134719035502627,0.0844355908232558,0.949123525245631,0.349317095942117
195,2.02606923816618,2.70831108093262,-0.988504294567086,-1.75448077358204,2.02606923816618,0.0400648706847796,-0.0594629320553276,0.0717010052342687,-0.0538786428424007,-0.162658987603634,0.173423970974936,0.0111854191110455,0.121795000686808,0.125240685998341,15.4148212875922,0.872907095147844,0.883175892536829,0.157745706467634,0.240258017176573,0.145788340064709,0.470114219714088,0.156836863783362,0.0416681939189252,NaN,NaN,NaN,NaN,2.08957514186263,-119.371133784789,2.15015386889844,stable,stable,1,0.565333267377316,0.166649598915398,0.184847102657817,0.907329351862946,0.335205182193463
196,1.96260721007983,2.70880079269409,-0.917534085905927,-1.71870973067129,1.96260721007983,0.00329526085035042,0.00362652149897276,0.00490004104619174,-0.0468766560152522,-0.154784185154081,0.163733044776512,0.0105694296004942,0.140074036564345,0.141439162154849,15.4053625685254,1.86871633171698,1.53856643297195,0.00657335008816348,0.0421316504751533,0.122641017544604,0.447052774056427,0.000282667087062709,0.00493971074409989,NaN,NaN,NaN,NaN,1.98818975952798,-117.123132335998,2.17187348489916,stable,stable,1,0.551649755118924,0.168791896946678,0.103197026436879,0.969941817519077,0.345492881091287
197,1.92438754953187,2.85913777351379,-0.814540377578889,-1.7107821561353,1.92438754953187,0.0813282526879855,-0.109058314795482,0.136044113107886,-0.041308715662337,-0.16021702673459,0.169183834705564,0.0109121369023319,0.187413861663863,0.190448609387084,15.3864804619806,1.08493211539165,0.906011702353589,0.160671907125861,0.240241519825832,0.134801472275935,0.43656582402308,0.159713699829074,0.0372450533017166,NaN,NaN,NaN,NaN,1.96491164649544,-115.571452830696,1.63422848131824,stable,stable,1,0.551259735085916,0.235260221132378,0.225683655016205,0.9040209164405,0.340088234544029
198,1.85555170116753,2.53213810920715,-0.763824986040041,-1.67574336609861,1.85555170116753,0.0512567746237002,-0.0728636730134958,0.0890863165129328,-0.033021910102408,-0.149304382115639,0.154254778526572,0.00994761207001691,0.116874460056493,0.119941279664281,15.4628963179533,0.804935470742615,0.692572564457758,0.160566709844409,0.240242464117595,0.118422965544308,0.40095076228211,0.159562236249698,0.0376340945235431,NaN,NaN,NaN,NaN,1.88489007794024,-115.359098105949,1.58521226970483,stable,stable,1,0.518802042910865,0.168564433169619,0.18574033462737,0.907950510515507,0.347367570869196
199,2.47306483864784,3,-1.12020369544552,-2.17025392157492,2.47306483864784,0.00556038416419141,0.00424812833032155,0.0069974614228498,-0.0741065800104479,-0.24908902262029,0.265015794793571,0.0170985270081386,0.212804369380224,0.214847240019512,15.4111079683463,1.25161023915963,1.09435056137284,0.0141102497490141,0.0703193422530833,0.0819791624544467,0.45269380513636,0.000153844303542465,0.00523146878461512,NaN,NaN,NaN,NaN,2.68563096804021,-116.007396076949,1.7275225133907,stable,stable,1,0.70245340497666,0.119843279231758,0.0738766950703882,0.974512325978452,0.363564816686913
200,1.93452342453166,2.53712153434753,-0.809065835671553,-1.74319933665955,1.93452342453166,0.0549306037502161,-0.0604687104436102,0.0816935503640063,-0.037066668873942,-0.16057697415093,0.16620240195689,0.0107191146847574,0.13042585351152,0.133743072116725,15.4676766854912,0.969672234998729,0.703610491597865,0.159605613660087,0.240233200093371,0.11894185480662,0.392780086341376,0.15961762769066,0.035574398197712,NaN,NaN,NaN,NaN,1.97177383483815,-114.893051128023,1.9428829939076,stable,stable,1,0.542621527631788,0.15056172560864,0.174214348026868,0.907049971746697,0.34713695341928
201,1.80589076852411,2.96639132499695,-0.72483234143219,-1.62815019702343,1.80589076852411,0.0573646964992533,-0.0388984817508843,0.0693094530852417,-0.0336787344380113,-0.14638245594907,0.152747940823233,0.00985229670210112,0.178228041929553,0.181046467788518,15.4147012158998,0.961599729498245,0.930185058374356,0.161408858258225,0.240258028126591,0.124154241807987,0.455263367655566,0.156804634398837,0.0412308254814213,NaN,NaN,NaN,NaN,1.87135485490829,-114.338554000358,2.33438168130072,stable,stable,1,0.517780165164132,0.273819358272017,0.248975591032705,0.904431547537603,0.344820336974228
202,2.32266874114672,3,-0.935148786745176,-2.09328665124601,2.32266874114672,0.0105139545282539,0.00786860982218882,0.0131323364393408,-0.0545377581471066,-0.23553586317319,0.245229390210232,0.0158293447736588,0.229501546307664,0.231265435268236,15.4248622853896,1.76295299896657,1.73978011473318,0.00648802198672256,0.0423456677324242,0.113353442350178,0.433840449698097,0.000172094349523443,0.00459875801147457,NaN,NaN,NaN,NaN,2.45321237213052,-112.912057666969,2.10882831763515,stable,stable,1,0.665631418026107,0.154807128255866,0.094633038971622,0.969234514541855,0.34962069228881
