scenario_id,mean_wind_speed,max_wind_speed,wind_velocity_x,wind_velocity_y,wind_velocity,wind_acceleration_x,wind_acceleration_y,wind_acceleration,wind_body_force_x,wind_body_force_y,wind_body_force,mean_wind_body_risk,mean_wind_gust_risk,mean_wind_risk_raw,min_thrust_margin_n,mean_abs_roll_deg,mean_abs_pitch_deg,mean_abs_vz,max_abs_vz,mean_tag_error,max_tag_error,stability_std_z,stability_std_vz,mean_imu_ang_vel,max_imu_ang_vel,mean_imu_lin_acc,max_imu_lin_acc,wind_speed_cmd,wind_dir_cmd,hover_height_cmd,gt_safe_to_land,label,success,onto_wind_condition,onto_gust,onto_temporal_pattern,onto_drone_state,onto_tag_observation
1,2.04025025222753,2.68556070327759,-1.25758048028282,-1.58830080991417,2.04025025222753,-0.0643246588687116,0.0082515101695355,0.0648517475373954,-0.0858204012986655,-0.132855915112439,0.162017867512885,0.0104491965446248,0.129188723460946,0.131812383728113,15.4614453039297,0.815877377047011,0.840798171504173,0.175652690142024,0.24030643159577,0.118891273722676,0.351771339854477,0.155367390135307,0.0414779781455672,,,,,2.0716688985117,-127.374480982322,2.31472368639318,AttemptLanding,AttemptLanding,1,0.570429210672963,0.157084338534787,0.178385677658184,0.899156918476086,0.347159433901033
2,2.30948198579021,3.0,-1.35477786254844,-1.83110751249916,2.30948198579021,0.0214972248885329,-0.0052668051463637,0.022133005090993,-0.103412510146199,-0.182387917420477,0.219010936703122,0.0141283988561292,0.221042747485387,0.222801904166741,15.4309799713719,0.95704072846353,1.14980622048684,0.0409831920497698,0.138055592333893,0.202394001960182,0.629474383595678,0.0279977881531589,0.0141327548002771,,,,,2.42882567996652,-126.095851442396,1.88171177427172,AttemptLanding,AttemptLanding,1,0.660422243710738,0.159424270797217,0.113237207443472,0.962954606519076,0.310047110239919
3,1.64229668189984,2.52216029167175,-1.03056200090761,-1.25677456272169,1.64229668189984,-0.0462326121849244,-0.0098960872446142,0.0472798791474199,-0.0652531826427946,-0.093745892656277,0.118381881833148,0.0076347216621151,0.166257962056388,0.167117055956898,15.4562928380403,0.601246934608006,0.858832780031751,0.170657104275386,0.249921953640132,0.273043053474053,0.525614219587066,0.150465071376806,0.0058545295302118,,,,,1.87319628751653,-127.297520073929,1.50406953897996,AttemptLanding,AttemptLanding,1,0.471369193031336,0.206637290042375,0.192984658910951,0.903199392961566,0.27864753178931
4,2.31106997724029,3.0,-0.590567507720187,-2.20215530010528,2.31106997724029,-0.0020784731745847,-0.0121340200464533,0.0123107470620267,-0.0278119305466455,-0.257285528964364,0.260238832224645,0.0167848499029219,0.225883930961823,0.226580277873997,15.4650140964102,0.991511614416918,0.709744759221612,0.057529037448845,0.244948713984762,0.324162799344906,0.693166917585604,0.0031468399454096,0.0047486080067892,,,,,2.46779887999601,-105.553838771394,2.43135342826865,HoldLanding,HoldLanding,0,0.661601382838876,0.157266225415641,0.0974850973286009,0.957868466911275,0.255927644735597
5,1.8353350962678,2.64559435844421,-1.06438190014652,-1.47256744112672,1.8353350962678,-0.0486599595897185,0.0217445726775613,0.053297449359259,-0.0631643100099237,-0.116689405010356,0.136808100184864,0.0088264803986366,0.150954512761586,0.153200967656793,15.3426665645112,1.13199573567915,0.945647374627247,0.178759173577522,0.240255266876821,0.113910655157204,0.396987517308068,0.158584149769066,0.0379442123420904,,,,,1.88084050141636,-125.058018224367,2.42442110600119,AttemptLanding,AttemptLanding,1,0.52006288586944,0.19207953303889,0.199527459562265,0.894296074487403,0.349373042152354
6,1.87839605417539,2.69569039344788,-1.03557627752875,-1.54550428538715,1.87839605417539,0.0073629192089007,0.0031543968366406,0.0080101684551455,-0.059685382969986,-0.126281756221118,0.143337360483859,0.0092542341475598,0.147440811905911,0.148577128367077,15.4161105179159,1.91507613673501,1.84593441409894,0.0291441294311707,0.0509415262308178,0.132336925276213,0.42388947943031,0.0197258470092081,0.0059291830412806,,,,,1.9161886291726,-122.783489357006,1.78565601767679,AttemptLanding,AttemptLanding,1,0.530621040120185,0.185359757219754,0.122138964007521,0.955877138099291,0.341183588766127
7,1.92853799865053,2.59818840026855,-1.08099495291677,-1.58067984191009,1.92853799865053,-0.0553998907213712,0.004005418180756,0.0555444980780509,-0.0636648253205278,-0.132283072611899,0.149686745797284,0.0096555611695938,0.12996752951479,0.132402897873427,15.4049118580249,0.926634610149262,1.03329840986811,0.176699225160308,0.240265647028665,0.160004429892927,0.473353443972538,0.158784763608155,0.0378845001554638,,,,,1.96867067391655,-123.586570068552,1.94162704797532,AttemptLanding,AttemptLanding,1,0.540757379214825,0.160854498345033,0.180859886929803,0.896250913691138,0.328886920047588
8,1.88003030079323,2.60619568824768,-1.09316943885385,-1.5128612387862,1.88003030079323,-0.0500116486159419,0.001227489239389,0.0500267101368585,-0.0651444063293442,-0.121629952173249,0.140974178509086,0.0090920651931733,0.115394652373396,0.117644467868833,15.4608689656482,0.745815188950744,0.93598555280094,0.175633473048503,0.240248785832254,0.146824624144528,0.463827157174171,0.155514925635897,0.0407543784994697,,,,,1.96461919299708,-125.030810267647,2.29453166476995,AttemptLanding,AttemptLanding,1,0.524870307118628,0.172558775702342,0.187472784148278,0.898969114790557,0.334744611491321
9,2.6151975133275,3.0,-0.805641500905522,-2.45227501945162,2.6151975133275,0.010168183445689,0.0022106476755771,0.0104057156279959,-0.0434667207203469,-0.314189767951586,0.31942836982481,0.0206337079870877,0.202816999426166,0.205306066709926,15.3201615243246,2.16288677462684,2.20354962682821,0.0250818078890669,0.0648939549125354,0.13481114643522,0.501823059823859,0.0050412745324624,0.0062825424409839,,,,,2.98365709536118,-106.900241715489,2.03366231895632,AttemptLanding,AttemptLanding,1,0.738447216895986,0.0884882740331112,0.0576180917663694,0.953151381472605,0.34008393491768
10,1.87436655703807,2.54259395599365,-1.12248735311926,-1.48614120695292,1.87436655703807,-0.0499625081638965,0.0057504225699781,0.0502923411839292,-0.0682105511443082,-0.116777932192362,0.138066006198187,0.0089051185148466,0.12038240262566,0.122685065689137,15.4450461785409,0.858081879656955,0.970784013810186,0.176061586294814,0.240260514554228,0.155931724625163,0.42473554545791,0.1566673838463,0.0407232853094394,,,,,1.92399487038037,-126.353098118705,1.53980893082706,AttemptLanding,AttemptLanding,1,0.524368095014646,0.159571427315393,0.18018127215062,0.897599546261065,0.330697011277705
11,1.85583616672335,2.56035423278809,-1.14821466323528,-1.44399755203626,1.85583616672335,-0.0508914835874951,0.0076531413270951,0.0514637122049,-0.0709081278415552,-0.110473143193862,0.133983568377612,0.008641631327367,0.122796613752896,0.124958844454787,15.4014715575662,0.847382431761678,0.930100709649366,0.176046001421539,0.240225737196188,0.149373641102369,0.531705929835019,0.157012536441359,0.0420681720703808,,,,,1.90759543141243,-127.844704273722,1.89087660920599,AttemptLanding,AttemptLanding,1,0.519881413350519,0.167951578768796,0.185851813907273,0.898011060321001,0.333611715065614
12,2.6197752872837,3.0,-0.790092418341137,-2.46456958234642,2.6197752872837,0.0069468672301659,0.0046085042854694,0.0083365026277656,-0.0414843685156538,-0.317215762440354,0.321936097542839,0.0207846339851025,0.197853135026038,0.200258637318035,15.400150974265,1.91419396913716,1.64159829552063,0.0309125716138486,0.0694558328922972,0.126843342667296,0.534203512615112,0.0221392290069973,0.0056324625548523,,,,,3.0,-106.299635778902,1.51833527829159,AttemptLanding,AttemptLanding,1,0.738658470739261,0.0870789191762572,0.0641351770439621,0.956605346399336,0.343625181036757
13,1.9676219877359,2.955730676651,-1.06292081074558,-1.62393774751439,1.9676219877359,-0.0773245141269856,0.0144412286830779,0.0786614872148458,-0.0667757707596268,-0.145824576460519,0.16609289250021,0.0107143168377568,0.197574793964025,0.200105179584991,15.4401156575736,1.03761165891726,1.02632158737616,0.175861702478554,0.240311891541955,0.155592259523748,0.461695890689792,0.156659234782675,0.0409366376687976,,,,,2.02726066309477,-121.319262228342,2.15304805077697,AttemptLanding,AttemptLanding,1,0.564720232646572,0.236745727661952,0.22655981322863,0.895852530396989,0.330847884656112
14,2.6653589963913,3.0,-0.73380908664925,-2.52283615215342,2.6653589963913,-0.0336026361458437,-0.008940719957842,0.0347717360698962,-0.0355931302319384,-0.327706034297516,0.331465966864218,0.0213956541143971,0.211761904000336,0.213758519217838,15.3654528196071,1.65093016394685,1.42303089601518,0.0630210445360104,0.240265694503658,0.121651057970622,0.458191162971158,0.0018645071281974,0.0088109510824889,,,,,2.96211416560549,-104.652706865072,2.00308188324262,HoldLanding,HoldLanding,0,0.753514102881247,0.0816690440914393,0.0530340785014322,0.944336926546579,0.345932863124168
15,1.71624775391978,2.59760141372681,-0.92242325657406,-1.41923664783346,1.71624775391978,-0.0711126215625537,0.0030535395476809,0.0711781500832118,-0.0510066195383452,-0.111676251518757,0.127218971847877,0.0082065901293296,0.184775101553902,0.186698576994699,15.4090856560382,0.981122242766522,1.03736227644007,0.176024259526157,0.240247100223537,0.185701234659873,0.506454410698018,0.156912670178871,0.0411111306888878,,,,,1.78867162897179,-121.8764556945,2.17413914891856,AttemptLanding,AttemptLanding,1,0.495005783110882,0.211353900971836,0.211500807175731,0.896128349014584,0.317466117928945
16,1.7658542398625,2.47985315322876,-1.00197689556435,-1.43927210457447,1.7658542398625,0.0052056342090649,0.0002970293976603,0.0052141014548685,-0.0544620027466862,-0.109025776566951,0.124272294296109,0.0080260984713952,0.125383103813335,0.126359044138225,15.4184416942125,2.09830347389062,2.09384598911124,0.0162277898657905,0.0517023357749102,0.144696522785732,0.476182652533337,0.0003673193631516,0.0073628571292087,,,,,1.79698325918466,-123.928221238646,2.39841015809768,AttemptLanding,AttemptLanding,1,0.496166272790978,0.161605674107468,0.0998040601072099,0.958947787857804,0.335690434317452
17,1.86582814367025,2.57328224182129,-1.02477940715127,-1.54294317865044,1.86582814367025,-0.0593280359470575,0.0001288887510199,0.0593281759507697,-0.0576145406987742,-0.125941264902399,0.141190748961579,0.0091071812751936,0.125623404842074,0.127800975548538,15.4406156701966,1.05497526930456,0.889370236403273,0.176240768819462,0.240215109291466,0.150008054504195,0.439982214211821,0.155890455266085,0.0394555289276929,,,,,1.90606506718967,-122.683382350962,2.29975906580828,AttemptLanding,AttemptLanding,1,0.523114366755109,0.170054004341624,0.185664514454517,0.896602615188279,0.333329753553691
18,1.78833161858288,2.65918302536011,-1.04305678265029,-1.41845130555182,1.78833161858288,-0.0836745871871289,0.0020905613745122,0.0837006988489166,-0.0644038486627249,-0.111196280766486,0.134843207646621,0.0086982024497879,0.182338196613282,0.18443171400693,15.3770463423231,1.00203771619549,1.02668395701597,0.176748770748704,0.240254564637379,0.151409103763411,0.487220672973828,0.156485139229684,0.0425365310704427,,,,,1.87952489310621,-124.36494621675,1.5,AttemptLanding,AttemptLanding,1,0.513774774423487,0.211286694647178,0.211788797037216,0.895685658621844,0.33270706499404
19,2.62648575880057,3.0,-0.783636081871246,-2.47414773182169,2.62648575880057,0.0059373453250976,0.0046760087306013,0.0075575873900418,-0.0407202329959643,-0.318739309918889,0.323221179374251,0.0208726412423663,0.198228479546721,0.200803992686035,15.3980451136673,2.05035956317225,1.73210565948213,0.0280995673596167,0.0524870186415553,0.123116899486395,0.472854361083502,0.0102447184765775,0.0045073662184552,,,,,3.0,-106.031594526481,1.9019163001775,AttemptLanding,AttemptLanding,1,0.740557000884026,0.085426261958046,0.0574480076478962,0.956230846713622,0.345281378006046
20,1.88910431394706,2.77712106704712,-1.03083976861824,-1.55185467972001,1.88910431394706,-0.075914426982472,0.0034304511617645,0.0759918957471803,-0.0625367102868429,-0.131751959651583,0.151184296619824,0.009751623855219,0.187316210268703,0.189753029026821,15.4259543768632,0.931462112154012,0.957388895699244,0.176533137027034,0.240273430920459,0.130131528135738,0.441000302026563,0.158234545328928,0.0371437004047074,,,,,1.95533603544456,-121.682915799118,2.21593563530198,AttemptLanding,AttemptLanding,1,0.541711756191247,0.213735617001163,0.212074634938499,0.896892459281922,0.342163765273005
21,1.97023390363527,2.81713151931763,-1.08559940372991,-1.61995710437983,1.97023390363527,-0.0680111438147272,0.0095754003207695,0.0686819042709977,-0.0662190357471661,-0.140384161896846,0.159508769526951,0.0102885428562069,0.16528612630969,0.167923891403803,15.3981484388823,0.936089455419215,0.926121994305201,0.176669508320113,0.240286603854756,0.14978259927618,0.507434700097756,0.154598138923109,0.0425821052160386,,,,,2.01006102178809,-122.843348050567,1.83122523419183,AttemptLanding,AttemptLanding,1,0.558980485916832,0.203143645978214,0.206080873449496,0.897033584449252,0.333429955877253
22,2.63430153047759,3.0,-0.748364514735217,-2.48962167244888,2.63430153047759,0.0082469642859128,0.0050275566510768,0.009658609931709,-0.0388688198535035,-0.322128843594163,0.326380533380357,0.0210801163029796,0.19708829688752,0.19966339021474,15.37470801358,1.94139120644395,2.05088742042323,0.0285141859681283,0.0577557509571028,0.144829412274387,0.494970876843448,0.0093425759393923,0.0049830977369705,,,,,3.0,-105.373889448931,1.89493596093845,AttemptLanding,AttemptLanding,1,0.742413086170306,0.084052900796688,0.0563960319917926,0.954375003519122,0.335631372322495
23,1.72174060425243,2.41992545127869,-0.837381224871295,-1.49182645561988,1.72174060425243,-0.0555351890646685,-0.0039203402001753,0.0556733894399612,-0.0388914316767275,-0.117731001197214,0.125491527263599,0.0080939130401442,0.118321510672172,0.120261118414562,15.447060486503,0.928543605365808,0.833843520785889,0.175978232572101,0.240218478910845,0.119068417165969,0.395052992928489,0.15868360860353,0.0373847153839116,,,,,1.75191981509009,-118.497538474994,1.95804215625627,AttemptLanding,AttemptLanding,1,0.48318305148356,0.167298378644901,0.184499517412962,0.898163556294186,0.347080703481791
24,2.59380897313881,3.0,-0.569418024323855,-2.49598284051089,2.59380897313881,-0.0123815393176576,0.0004838318094385,0.0123909890281013,-0.0268118692973549,-0.328349566108605,0.330639385881506,0.0213288101150276,0.195372866390352,0.196658176542795,15.4515284769477,1.14969755286679,0.935837868611922,0.0721062391805795,0.252240155703119,0.31847711369044,0.668371058823268,0.0602337263342803,0.117791429251147,,,,,3.0,-102.185830974197,1.70910974513301,HoldLanding,HoldLanding,0,0.731014028145576,0.0936646623655857,0.125802589457227,0.94756053066952,0.258454616137582
25,1.75471130738387,2.58457350730896,-0.952061914679026,-1.46216059281166,1.75471130738387,-0.0462671485401225,-0.0120481572021232,0.0478101153104741,-0.0498911165189301,-0.113755288477041,0.126115350293539,0.0081346289160823,0.123364389824457,0.125297057690368,15.416031511775,0.904638037856104,0.934569757184734,0.175413991214127,0.240241175823017,0.150587003500845,0.460853532063994,0.156883139963305,0.0405449603829925,,,,,1.79680657025774,-122.144595008979,1.79307200168549,AttemptLanding,AttemptLanding,1,0.49298242684044,0.195484182790065,0.201759971615182,0.89784208600333,0.333072442888513
26,1.85667144574449,2.60955834388733,-1.03660879055068,-1.52675477455955,1.85667144574449,0.0037505377197679,0.0016454615757378,0.0040956168014881,-0.058049773128338,-0.122718486603089,0.138018616343992,0.0089126434309543,0.125702655224046,0.126778179943705,15.3982486515959,1.93592465860194,2.00119575312336,0.0245518348761577,0.0490639867949057,0.133912827498915,0.408022057544035,0.0045980338886938,0.007199891149561,,,,,1.89015622586425,-123.159855511628,2.06619457527629,AttemptLanding,AttemptLanding,1,0.520468021520606,0.170150415162411,0.106751961950848,0.956789565041222,0.34048318777826
27,1.71639001369476,2.59818053245544,-0.825123515807191,-1.47653979233732,1.71639001369476,-0.0792476337718547,0.0065358398732618,0.0795166942301233,-0.0418183913059478,-0.120217198473214,0.130775219675483,0.0084341723136103,0.180228893406925,0.182255786278002,15.4579430772401,0.82445528090703,0.7745991211031,0.175274687856638,0.240248275819897,0.134624592082722,0.435938402145802,0.15655936879044,0.0396994816941378,,,,,1.77620387229689,-117.832865156267,2.17621020852131,AttemptLanding,AttemptLanding,1,0.494155160907537,0.212980927330009,0.21180667324415,0.899798657198744,0.340166847963235
28,1.73549200554152,2.4146945476532,-0.980088789242984,-1.41779351022077,1.73549200554152,-0.0550303440852113,-0.0028678184697718,0.0551050193077937,-0.0527762191761679,-0.106345620955393,0.121108245606739,0.0078122663155538,0.116575840275742,0.118523125026588,15.4434513791231,0.857918145060783,1.06956025951699,0.176362261371663,0.240239670238055,0.175799303089148,0.467603632820419,0.15967900304571,0.0352473048009867,,,,,1.77693740749085,-123.63065316624,2.00860308240157,AttemptLanding,AttemptLanding,1,0.486502493149722,0.162923158848224,0.181539542852841,0.896674396135343,0.321866976404823
29,2.62316651168874,3.0,-0.523150506273063,-2.53373565378127,2.62316651168874,0.0084731983275599,0.0048960061967052,0.0097860087153211,-0.0242400954218047,-0.333826024176183,0.335645487114769,0.0216704609050433,0.204257077378127,0.206882667356404,15.4353314406248,1.89391245562461,1.7952407079469,0.0278610638804195,0.0459914141135754,0.129717416284773,0.448446605109758,0.0113819050212216,0.0056916942077386,,,,,3.0,-100.208461528465,1.90892479059135,AttemptLanding,AttemptLanding,1,0.740887603254946,0.0865816364678417,0.0590773133192135,0.957083264631728,0.342347814984545
30,1.83376910222457,2.6087498664856,-0.938220122121879,-1.5562436213878,1.83376910222457,-0.0614082477952146,0.0026019465862129,0.0614633469908366,-0.0498470588035436,-0.129514107695529,0.141485316905449,0.0091258183901283,0.138674591427217,0.140821715536412,15.4445374896243,0.972880057976979,0.867424358938264,0.1759564028962,0.240242213227938,0.140685140016935,0.420782553986119,0.156770666423634,0.0408689488082276,,,,,1.90894849737311,-119.745808657761,2.04275806720678,AttemptLanding,AttemptLanding,1,0.517169437033834,0.185638952240385,0.195920659018333,0.897562263847566,0.337473271103584
31,1.90024074267697,2.52503943443298,-0.946153884082221,-1.63452105104816,1.90024074267697,-0.044177130199737,0.0064823763064694,0.0446501963630978,-0.0489812165042782,-0.140784631524476,0.15088149280816,0.0097319680359799,0.122733430191688,0.12516806714034,15.4570742130597,0.923432506624942,0.905339457912752,0.176775178221749,0.240242219268131,0.161345262677277,0.482373182734176,0.158534776278962,0.0351955494918419,,,,,1.95935225919259,-119.13516242978,1.87912510438216,AttemptLanding,AttemptLanding,1,0.531764478141926,0.148765574978338,0.172517627188828,0.897243488310615,0.328290994365655
32,2.62800656194272,3.0,-0.646915773286837,-2.51375876234406,2.62800656194272,0.0053372123078434,0.0054922605201446,0.0076583784732889,-0.0309671059691922,-0.328815781754408,0.331551677644837,0.0214088296961333,0.195737185418967,0.198329316353006,15.3946119026311,1.91112690803413,2.00038056992926,0.0228943702666943,0.0618655101234574,0.133767937891501,0.461560147269468,0.0004458889932718,0.0076547904397891,,,,,3.0,-103.01941117063,2.14018311505395,AttemptLanding,AttemptLanding,1,0.740467613121994,0.0851025596163237,0.0540432688156161,0.957819541825512,0.340547583159333
33,1.87943268862347,2.69199919700623,-0.817594461243654,-1.6614981996511,1.87943268862347,-0.0851366652624214,0.0003064511745051,0.085137216799282,-0.0413385804689616,-0.151112121674305,0.159913455173401,0.0103141555191268,0.198496886832893,0.200899223895141,15.4257705541435,0.894648756274533,0.815604410374673,0.175820430027694,0.240300352940513,0.131731035757796,0.390310347100325,0.155832554763605,0.0414235304434238,,,,,1.93692079365451,-115.089103932968,1.76205874903016,AttemptLanding,AttemptLanding,1,0.541361895078619,0.198435954132656,0.203383587687289,0.898652081533909,0.341452872996535
34,2.66848809998892,3.0,-0.564782043714211,-2.57393148675894,2.66848809998892,-0.0242717121697235,-0.0119944750421422,0.0270736669697046,-0.0246704513916623,-0.33933788541263,0.341190420473452,0.0220273246032298,0.206380419013072,0.208399414578185,15.3959239649638,1.73280269304708,1.59788300240426,0.063661059780507,0.24033089604953,0.136961918147491,0.464862398333066,0.0018755342287902,0.0103494463014416,,,,,3.0,-101.157933097739,1.51178931892145,HoldLanding,HoldLanding,0,0.75327670957935,0.0795536831136048,0.0523292156552201,0.941999796788343,0.339128036378893
35,1.8169711417443,2.60423254966736,-0.804716232449713,-1.61510823364096,1.8169711417443,-0.0409982011063141,-0.0036525453399568,0.0411605828604772,-0.0366120523384249,-0.137997238971652,0.144209261254197,0.0093030898095689,0.130925570594757,0.133202869317307,15.4408499878979,1.00486805943429,0.988495997990654,0.175475765045168,0.240228931949341,0.171298772247117,0.44127641924446,0.158521042748127,0.0352736478041088,,,,,1.86137587595629,-115.841095627455,1.58128571839002,AttemptLanding,AttemptLanding,1,0.511166211661942,0.184679923640441,0.194088531980886,0.896599971311934,0.323867212334615
36,1.96614934648558,2.76462149620056,-0.88095439316722,-1.73619513748024,1.96614934648558,0.0049399833229554,0.0023827180751275,0.0054845948489034,-0.0449965771743365,-0.159445578196889,0.168188375716484,0.0108585896746135,0.165644825295073,0.16691680111532,15.3790879604049,1.79413693177851,1.82787327910438,0.027949450207115,0.0528901237126793,0.133200448530897,0.404903081474317,0.0103922312429746,0.0054007800302579,,,,,2.00134863438598,-116.022448666907,1.91588607244981,AttemptLanding,AttemptLanding,1,0.55768985261922,0.180661742741502,0.114979735097226,0.957566623239505,0.340799800652935
37,1.7970779932834,2.52608275413513,-0.800829364419008,-1.59340663471803,1.7970779932834,-0.0594303895417071,-0.0103504160295447,0.0603249725492164,-0.0362633591810207,-0.134565258450896,0.14088194103988,0.0090887724608709,0.131361424753152,0.133675752535042,15.4069235515222,1.1459071144113,0.855404644314098,0.17628771247165,0.240246440594304,0.16438650046266,0.372464181483073,0.158821427631913,0.0356677747861914,,,,,1.84847057739295,-116.145839673518,2.27154379912732,AttemptLanding,AttemptLanding,1,0.505955948715915,0.175085649492329,0.188608790787388,0.89613155137419,0.326939333127707
38,1.94291182949736,2.73714995384216,-0.775052816426124,-1.7602637283997,1.94291182949736,-0.0713531007065551,-0.0079286198590388,0.071792255803178,-0.0360951343459583,-0.164769623705799,0.170636128995979,0.011011391360695,0.155619608433588,0.158377460580558,15.3740178811751,1.24587856775699,1.14173673828108,0.177561208879463,0.240259150426956,0.167707740708841,0.514910481866291,0.159040414608288,0.0370038498833199,,,,,1.9993932608471,-112.620106358339,2.35188419902042,AttemptLanding,AttemptLanding,1,0.549785313315408,0.191865491541496,0.199259869051809,0.892459561012827,0.325463226351626
39,2.62122021311502,3.0,-0.632794094827437,-2.50821153132088,2.62122021311502,0.0077557167611507,0.0028924680562863,0.0082775306665594,-0.0306827074051106,-0.32733526878432,0.33010245839689,0.0213147054920749,0.200117297078609,0.20294730624465,15.3931096140186,1.83024372520362,1.90654768992278,0.0269137869487444,0.0539788998356357,0.130640676177941,0.413157589511015,0.0089386587770024,0.0071188638136045,,,,,2.9987372183553,-102.731971335258,1.94635627827008,AttemptLanding,AttemptLanding,1,0.739581518079601,0.0867429993379906,0.0586072145874194,0.957182602549635,0.341937477254249
40,1.90292907808278,3.0,-0.309416230740305,-1.8517652825227,1.90292907808278,-0.079577416300826,-0.0304089783968555,0.0851896188056701,-0.0105931450377017,-0.186265938371391,0.186930583468287,0.0120593045271661,0.188993262904077,0.192057208047592,15.4313089959216,0.986022721333839,0.933686092927866,0.175479154775914,0.24027141054726,0.172264286626831,0.440343494522788,0.156917654827316,0.0410959133366216,,,,,1.96262077332345,-97.9255988407311,1.94789185163038,AttemptLanding,AttemptLanding,1,0.545859195764927,0.262459054212414,0.242160580936744,0.897176996214273,0.32343809483252
41,1.89129417168128,2.79207754135132,-0.270904972183095,-1.85687186797925,1.89129417168128,-0.0514506475091109,-0.0280264837399486,0.0585888463782347,-0.0068543044782269,-0.183877962801029,0.184151437431213,0.0118763520260287,0.13155272140985,0.134652464488062,15.4493755389401,0.89490049027313,0.642763750608827,0.175890868434175,0.240242610020926,0.133222076181695,0.43712333517369,0.158677001074362,0.0375205276885304,,,,,1.94919332297993,-97.076725643542,1.63120111320593,AttemptLanding,AttemptLanding,1,0.531275605345952,0.213417546678436,0.212217467846042,0.899972918175983,0.340790188363691
42,2.62623117201304,3.0,-0.634003519007878,-2.51698509522541,2.62623117201304,0.0085876481577771,0.0086669548044357,0.0122009756357394,-0.0297843928876245,-0.329467665957046,0.332033947691939,0.0214410702363209,0.192178548048707,0.194858264065381,15.3665960733247,1.97356094798126,1.7942063145436,0.029656025421538,0.052102534476289,0.139526575760184,0.439915720541331,0.017495137538088,0.0082098521733897,,,,,2.97766096785849,-102.83550377438,1.77419970861484,AttemptLanding,AttemptLanding,1,0.739299965349888,0.0863348318302841,0.0625619165720887,0.955568101655107,0.337988188551029
43,1.82277373929281,2.74702644348145,-0.254236000206131,-1.78300677643676,1.82277373929281,-0.0664548026296206,-0.0416118412370488,0.078407819276391,-0.0076888336350786,-0.172640471370489,0.173028967275525,0.0111615907832691,0.172051931367637,0.174952911628932,15.4246266005792,1.07464001607345,0.80030881036256,0.176317290059191,0.240262951270703,0.158622028584847,0.4418677309654,0.158266727570758,0.0352941034558003,,,,,1.87761184680711,-96.9149867627548,1.9007516701848,AttemptLanding,AttemptLanding,1,0.521063579470537,0.22233162530978,0.216573962433567,0.897109614191265,0.329501320628957
44,2.48620227849965,3.0,-0.613794571539508,-2.37655886389661,2.48620227849965,-0.0184155088622081,0.0097477373845641,0.0208362508809165,-0.0295449899702319,-0.306777473803444,0.309554932340572,0.0199846061188609,0.221580731539825,0.223368778060318,15.4081408751697,1.73802864345014,1.45649462596802,0.062418223581139,0.240615635695988,0.13058989597879,0.415876628264848,0.0019488826455764,0.0097787383268743,,,,,2.70268226585959,-102.84402520654,2.15705491103681,HoldLanding,HoldLanding,0,0.707661029878637,0.119424466665747,0.076076754910285,0.943691062521145,0.341960046231649
45,1.67157783379426,2.23406219482422,-0.232706986882153,-1.64597088740587,1.67157783379426,-0.0381839351201808,-0.019971985349545,0.0430916824928503,-0.0046697831475974,-0.142651721529164,0.142813040301977,0.0092124428707878,0.106265803462963,0.108683122463671,15.4038008623271,0.997282544727815,0.784487447298211,0.175805814735644,0.240170586442986,0.145684537076361,0.445152698935292,0.156126560669244,0.0390085065042966,,,,,1.74484723470437,-96.8322370152764,1.86865982922093,AttemptLanding,AttemptLanding,1,0.467490713504537,0.134459123022097,0.16424996778903,0.898097471266259,0.335251316854951
46,1.68868354251951,2.40122318267822,-0.228166445216243,-1.65707240255063,1.68868354251951,0.0061608481237409,0.0065530788263188,0.0089943811186623,-0.0055184414560162,-0.14471251669371,0.144949353384707,0.0093594701171296,0.139635502512292,0.140833796164826,15.3776461661095,2.07876766081636,1.87017460141855,0.0299771421153386,0.0732540790136332,0.12739667539689,0.45244889011051,0.0146477023582589,0.0060473740140867,,,,,1.71876069037497,-96.5690723186371,1.83642812257307,AttemptLanding,AttemptLanding,1,0.478482370571501,0.161970388907465,0.105891368377515,0.953984025453342,0.34337925537916
47,1.69257893388191,2.41476082801819,-0.148732140976686,-1.67424009960301,1.69257893388191,-0.0428030341819846,-0.0260815599402517,0.0501233229554973,-0.0029491439571356,-0.155427938192509,0.155506409292725,0.0100297285003487,0.135759847350604,0.137513816934749,15.4174413829874,0.698139796088803,0.675035859170155,0.174060335076555,0.240759099870035,0.219333712265977,0.387163748486763,0.145785462529108,0.0045464978283243,,,,,1.8330973949862,-93.5355183886098,1.71180242228219,AttemptLanding,AttemptLanding,1,0.478857145755459,0.171680202055837,0.169454932072901,0.902180595170402,0.30251835010401
48,1.57425434871386,2.43297481536865,-0.195579766714247,-1.54597062552848,1.57425434871386,-0.0519271515498267,-0.0394106644846785,0.0651891827161728,-0.0051073676207845,-0.139623795107096,0.139850404779117,0.009018604624777,0.154510338428964,0.155762582903084,15.4668353756364,0.679013376077397,0.607785930292511,0.163616063164553,0.242706994376452,0.230344749599364,0.502076425711019,0.142235731675398,0.0050485955732982,,,,,1.76093856199151,-95.8152911333806,1.70338238881664,AttemptLanding,AttemptLanding,1,0.450953676237647,0.205163455161959,0.188149806777542,0.908081402439103,0.297624555733616
49,2.62730414412891,3.0,-0.685516107453439,-2.50034988244693,2.62730414412891,0.0065567464157725,0.0035221508507212,0.0074428805025999,-0.0342324091491575,-0.3248142644774,0.328219638532694,0.0211925240507876,0.196802279858759,0.199358005666708,15.3850337326537,1.93370364093554,1.80618810080301,0.0309190506708271,0.0575556791190117,0.128701862905688,0.358513355424425,0.0222589544530516,0.0063126790754892,,,,,3.0,-103.690253195533,1.65399947587169,AttemptLanding,AttemptLanding,1,0.740486039567717,0.085221095663139,0.0633210457074984,0.955155610979498,0.342799172041916
50,1.64607956038939,2.26604104042053,-0.138501237343974,-1.62944748027264,1.64607956038939,-0.0429478512537784,-0.0184291377915431,0.0467349018085665,-0.0026375818146237,-0.141582666992519,0.141652410684398,0.0091380477119036,0.12659933802374,0.128875397555654,15.4198300717645,1.07098969857646,0.795556981647888,0.17740480790786,0.240198457734808,0.1224462439767,0.393140371472681,0.15796657925237,0.0367782224690512,,,,,1.72627812567413,-94.411640590645,2.34414532226219,AttemptLanding,AttemptLanding,1,0.464729628948301,0.148059398338578,0.17241690663941,0.896631872130021,0.345579447121467
51,1.59020152567206,2.30601453781128,-0.127349745949709,-1.57098863712759,1.59020152567206,-0.0450222292793135,-0.0268238857892134,0.0524072702791496,-0.0027336342742614,-0.131628020795664,0.131718432584135,0.0084985021928174,0.126584996068657,0.128695905319685,15.3736663008098,1.11017644190352,0.820595973778338,0.175788251507627,0.240183704326679,0.173972029411343,0.417970364566541,0.155422472513406,0.0395919649077172,,,,,1.64198518080473,-93.7945426045898,1.98648460303235,AttemptLanding,AttemptLanding,1,0.449792921243154,0.170665927282501,0.185873288968164,0.896935519551543,0.322679098039403
52,2.62542539314936,3.0,-0.632954649498563,-2.51470658760368,2.62542539314936,0.0062244776210396,0.0053347160622473,0.0081977629338511,-0.0300120968771402,-0.328587749003756,0.331159524230465,0.0213873134787043,0.191624047972834,0.194299523722864,15.3484561581406,2.07089243210191,2.0136228239086,0.021175844513026,0.05795744222592,0.133325988927464,0.469163588393454,0.0001389629713881,0.007711433507227,,,,,3.0,-102.899260755177,2.20769316735175,AttemptLanding,AttemptLanding,1,0.738973342917734,0.0857822097459342,0.0543352448071691,0.957319457874833,0.340744004921127
53,1.7084186455688,2.75018620491028,-0.148948624736177,-1.6805883304381,1.7084186455688,-0.061780699964054,-0.0394630390048833,0.073308842137558,-0.0041773540417024,-0.15414395707881,0.15432964434712,0.0099544773013979,0.1680843496645,0.170643504450997,15.4343881593623,0.921331810279517,0.76906178392634,0.17545634395803,0.240225817525818,0.161694222635659,0.359874317969231,0.156128528219773,0.0399059153993571,,,,,1.76767167051157,-93.7767495596924,2.3781493485129,AttemptLanding,AttemptLanding,1,0.489707006375212,0.247837655243719,0.2326042920962,0.89899016406651,0.328135901050818
54,2.68742229419699,3.0,-0.58963198871554,-2.58403249579064,2.68742229419699,-0.0303835707542102,-0.007889834830562,0.0313912546010771,-0.0256830752598532,-0.342329023084312,0.344352427099914,0.022228941555285,0.202237500219913,0.204306291158588,15.4191861240165,1.81998181569029,1.42351409280962,0.0632309321315032,0.240252561216553,0.124653478622292,0.438576997453457,0.0018401760447181,0.0077446834473776,,,,,3.0,-101.106544404973,1.77786315338409,HoldLanding,HoldLanding,0,0.757507203350915,0.0760850471492082,0.0492851328357188,0.942899923224606,0.344598453945648
55,1.64512642918017,2.34669232368469,-0.150401419684353,-1.62743812909819,1.64512642918017,-0.0440479979369682,-0.0157906568480825,0.0467928516543826,-0.0027442677889613,-0.13920828451431,0.139280482637115,0.0089838344366762,0.105392772619019,0.107646526892553,15.4074219276235,0.959542799727773,0.613385573659227,0.175163391917691,0.240181048821075,0.128748494139179,0.426698330585073,0.15578143725379,0.0404459515309042,,,,,1.6954412846166,-94.4207914550518,1.66243849777122,AttemptLanding,AttemptLanding,1,0.460229686493223,0.166431015733488,0.183802422513621,0.9000595811074,0.342778447049254
56,1.70942468567437,2.31248807907104,-0.100479011435438,-1.69525959107377,1.70942468567437,0.0014520905265053,0.0038629435474238,0.0041268510692475,-0.0018849165498046,-0.150458528996495,0.150508282363716,0.0097173573060884,0.11583452028759,0.117092804092537,15.4094252392366,1.96020553686262,1.85635615915333,0.01789244516633,0.0495181832487521,0.126052388260056,0.393781485329128,0.0002496755450021,0.0062353047233118,,,,,1.73280982852964,-92.1431804697514,2.33667619106167,AttemptLanding,AttemptLanding,1,0.479265143665006,0.136445852876948,0.0842458621708083,0.961066506948138,0.343976716328864
57,1.56924343914599,2.26943063735962,-0.18199392582985,-1.5485399327931,1.56924343914599,-0.0380481985589151,-0.0216491431149382,0.043776144316165,-0.0034103278105509,-0.127349991361017,0.12745519730213,0.0082196878436616,0.116744600267925,0.118868361401898,15.4626254771724,0.799530853431907,0.533880007396029,0.175529482444097,0.240159694555757,0.114053741998521,0.350362875040339,0.159314938532039,0.0366016243457249,,,,,1.65239533729994,-95.8334835366937,2.37760186022528,AttemptLanding,AttemptLanding,1,0.442238589385977,0.16556774605603,0.183456968561454,0.90175845915716,0.349309448000657
58,1.63774885076123,2.43661308288574,-0.108840181344695,-1.61131068899145,1.63774885076123,-0.0613926624247827,-0.0337503384975367,0.0700581497636188,-0.00283846966385,-0.14026847642114,0.140423796507275,0.0090569142500244,0.163888590630298,0.1661627799205,15.4468153209501,0.89721704086025,0.706365855896344,0.176309512245129,0.24020889097528,0.163439174086964,0.385938082149838,0.159436238182,0.0344663519540723,,,,,1.68060545220575,-92.4282145747537,1.5,AttemptLanding,AttemptLanding,1,0.469965582853762,0.192588446351345,0.198946837006308,0.899245663974348,0.32736036707246
59,2.51411134383352,3.0,-0.512045608933197,-2.42979115806966,2.51411134383352,0.0080990916929307,0.0122105231694108,0.0146523773607294,-0.0225245157113396,-0.310205741952627,0.311860639515846,0.0201362593469326,0.214227337776729,0.216749317933364,15.3837042161051,1.97666803599383,1.87421726958703,0.0179423667618503,0.0630655651309477,0.131241782355161,0.430859885697078,0.0002307481064595,0.005045566982051,,,,,2.78982386220964,-100.41262924442,2.32388266527484,AttemptLanding,AttemptLanding,1,0.71377955527561,0.112011216820259,0.0691440364359744,0.960771860646654,0.341670318953262
60,1.68516952519449,2.58257603645325,-0.102572895825941,-1.65899566103464,1.68516952519449,-0.0618890792223758,-0.0279761691300497,0.0679185112188618,-0.0028624078644946,-0.149608301337054,0.149768261669769,0.0096600558626176,0.168452006725306,0.170975312273925,15.4537562443108,0.897864452945184,0.681898626147967,0.17603089776027,0.240224409501075,0.158162764852227,0.368251469225121,0.156703510340388,0.0416467287168079,,,,,1.72864210057146,-91.9462754292346,2.26936474500038,AttemptLanding,AttemptLanding,1,0.483573602506649,0.214368192090012,0.213411184837665,0.89957212692699,0.329705437843455
61,1.60327524550863,2.23441791534424,-0.195972088246879,-1.58072830072211,1.60327524550863,-0.0402883837666236,-0.006946175598688,0.0408827986074162,-0.003788473640928,-0.132560682967569,0.132688195075124,0.0085595518431501,0.114039467216743,0.11623055831064,15.4451423158352,0.985209940994323,0.797164078126081,0.177099690716965,0.240183160941172,0.148915938030364,0.416529927112771,0.159657381050155,0.038159036339272,,,,,1.6541677253945,-95.777639022521,1.64596689675356,AttemptLanding,AttemptLanding,1,0.450786177131097,0.149502280457704,0.174536217511194,0.897445787348429,0.333815138653172
62,2.61544368936864,3.0,-0.537662253975418,-2.5275594373626,2.61544368936864,0.00655833716244,0.0048194099337223,0.0081387037325058,-0.023975019551171,-0.332491109867872,0.334225863810664,0.0215889353495774,0.195582746724604,0.198259673922049,15.4144426981224,2.06775865751652,2.31444888036506,0.0156842444459204,0.0585955311669365,0.147027677659968,0.393267230367587,4.16941151887898e-05,0.0074612761075569,,,,,2.96888331606625,-100.576107342626,2.42848700863889,AttemptLanding,AttemptLanding,1,0.737103585282714,0.0880172655763487,0.0555420813755098,0.957726247122256,0.334654365484459
63,1.54579237043458,2.43029928207397,-0.0901431423531014,-1.52108866884806,1.54579237043458,-0.0618999222474858,-0.0413678813643961,0.0744506681153603,-0.0020851617111285,-0.127514172986891,0.127642465652388,0.0082319854919432,0.167073967335154,0.169215034671218,15.4666913772804,0.830398090584385,0.607160283290746,0.176028163834633,0.240199271596676,0.141863863299676,0.346794694891449,0.15701122378768,0.0425581185665918,,,,,1.60300708299886,-92.1234906695166,1.5,AttemptLanding,AttemptLanding,1,0.446054305716797,0.212663344273348,0.212856452170627,0.900690816573665,0.336949394089033
64,2.63636157563876,3.0,-0.612193705184877,-2.53125812236588,2.63636157563876,-0.0210028895092811,0.0055522610322393,0.0217243865347032,-0.0288200407381859,-0.339054567927814,0.341484858871713,0.0220407744621324,0.201511877494153,0.203551622174146,15.3673596128055,1.60422392362312,1.4173308463543,0.0626544850102751,0.240353076878938,0.12112296219852,0.411111328899164,0.0019231953336995,0.0093710056603945,,,,,3.0,-102.201792877698,2.10077503388217,HoldLanding,HoldLanding,0,0.7437400779385,0.085801449679307,0.0557432617111901,0.944931970016468,0.346167572356213
65,1.53206956990667,2.18663191795349,-0.12911250051541,-1.51691125120354,1.53206956990667,-0.0365164790027622,-0.0067004843154305,0.0371261326941079,-0.0022152266366038,-0.121207477326067,0.121265256741663,0.0078209526425105,0.104373270410423,0.106503835203746,15.4289664291936,0.828070844973815,0.595861616327648,0.176786510690936,0.24014479862617,0.116148781040391,0.451705427385969,0.159611483117631,0.0371046200716557,,,,,1.55228808798252,-94.2268777224065,2.17715315794539,AttemptLanding,AttemptLanding,1,0.429852652349195,0.154082985971121,0.176880817640807,0.900418703887163,0.348378319537604
66,1.58681235604462,2.39076685905457,-0.11906443332267,-1.57158579584259,1.58681235604462,0.0035864988680673,0.0039379321679234,0.005326376243734,-0.0021733574199187,-0.129581436942831,0.129640494548857,0.0083715209991581,0.114016265503608,0.115135542345204,15.3955169812827,2.1515669869177,1.94464095254974,0.0164802252556354,0.0473781276121184,0.136348280783885,0.347734709840492,0.0002141253697088,0.0075451251868267,,,,,1.60696450398557,-93.5145725727472,2.39050017755003,AttemptLanding,AttemptLanding,1,0.446177070080938,0.18186626548859,0.111958608010254,0.959575396419224,0.339400764096051
67,1.67875001076105,2.38109087944031,-0.105612432439854,-1.66445247494094,1.67875001076105,-0.0398069881264646,-0.0095848228609856,0.0409446593950538,-0.0019429237182851,-0.146211755511681,0.146262771154335,0.0094339828338926,0.118108666159637,0.120605217781054,15.4460516409194,0.946298700115706,0.690082239151739,0.176365260925224,0.240186200949789,0.143728124789882,0.415583061146941,0.158670752412055,0.0365255375196666,,,,,1.70472744872138,-93.0615211949791,1.58764493569614,AttemptLanding,AttemptLanding,1,0.471787713092492,0.165533216341925,0.183122277854028,0.898960090728858,0.336120833426719
68,1.6033227711716,2.24699187278748,-0.137284155384867,-1.58335536484973,1.6033227711716,-0.0489966394647474,-0.0202369057054459,0.0530113481376351,-0.0028820969356158,-0.133989547307033,0.134081935097972,0.0086482103470363,0.130491490480091,0.132709758910536,15.4251079215751,0.897862724489499,0.700038385798685,0.176202595259653,0.240187453544134,0.11030234343623,0.470755840238069,0.155465755882993,0.0418775858167019,,,,,1.6346567991892,-94.1375227104005,2.33267197977358,AttemptLanding,AttemptLanding,1,0.454094690761199,0.154544295022139,0.177050681541091,0.899343765075052,0.350976736250564
69,2.61461080715409,3.0,-0.404900868553076,-2.55177964547088,2.61461080715409,0.0054344951572568,0.0029188875680446,0.0061687634294997,-0.0166508320490394,-0.339003771338107,0.339917462111616,0.021958679712715,0.195118005492319,0.19783366958314,15.370457351921,2.19271148330773,2.19034947566165,0.0243797129643475,0.0553066501440222,0.147296490003499,0.452920758015389,0.001790774956161,0.0055440578702198,,,,,2.97762147861884,-97.4745863886534,2.08946947139897,AttemptLanding,AttemptLanding,1,0.736796282491052,0.0878435083524045,0.055518026035675,0.953371807411638,0.334534893331778
70,1.68459083502357,2.60638070106506,-0.0879546951686364,-1.66642998271308,1.68459083502357,-0.0429184445865339,-0.0175173276287995,0.0463556863068823,-0.0019107516290589,-0.147732105219792,0.147812204906066,0.0095346036475419,0.129954544330554,0.132408837644002,15.4567983503614,1.08421770463812,0.673159058266398,0.175945457049724,0.240242514037351,0.165142325031452,0.370510282116575,0.156988425417584,0.0343857520449228,,,,,1.74106956136438,-91.9626622500687,1.9746662298114,AttemptLanding,AttemptLanding,1,0.475705990201753,0.215901262348931,0.211817300762802,0.898219311195174,0.326603411097132
71,1.52759297779628,2.34297251701355,-0.207971721224723,-1.49879772546762,1.52759297779628,-0.038885956102891,-0.0244344274198205,0.0459255792056066,-0.004950797309373,-0.13039227932095,0.130586177071152,0.0084227968931394,0.147541463857609,0.148899868348347,15.452079043012,0.710845567625705,0.779660466527226,0.165828141766589,0.242819549500258,0.237615151964195,0.481423198348189,0.126796954604236,0.0052360765548229,,,,,1.67774962146967,-95.9395937551425,2.46039834904839,AttemptLanding,AttemptLanding,1,0.437138101082011,0.191880085844913,0.173386281391392,0.905374810276933,0.294393265793691
72,2.47159186794176,3.0,-0.522861755816964,-2.38481719660491,2.47159186794176,0.0117173437932849,0.0096461861958958,0.0151771227080736,-0.0234666563723546,-0.314063747268313,0.315956203757812,0.0203829882983741,0.196021315100782,0.19793741585087,15.4451154910697,1.14218602575917,1.0280467852094,0.0204442451235917,0.0806318432522487,0.270718744991286,0.665285220056862,0.001181325780369,0.0114659379832743,,,,,3.0,-102.28205700878,2.49991705668387,AttemptLanding,AttemptLanding,1,0.698678647954644,0.121674302209584,0.0776990469998323,0.972726048209165,0.279680557781651
73,1.65831469845127,2.37557673454285,-0.163005678421798,-1.64040147604832,1.65831469845127,-0.0402533222640668,-0.0224626287759797,0.0460966337688805,-0.0029175251754465,-0.142416820421849,0.142492126329188,0.0091917934863152,0.122297894782723,0.124663601036201,15.4024485387562,1.02634574476312,0.781172781022661,0.176366747912184,0.240179472589387,0.148003599032255,0.455324051650802,0.157167685416404,0.0401322503917322,,,,,1.730743683828,-94.7490683234343,2.34974438912744,AttemptLanding,AttemptLanding,1,0.46714997312758,0.169835007644899,0.186346854813445,0.897614694769877,0.334220622652331
74,2.68530213486484,3.0,-0.608883081389934,-2.5818937859199,2.68530213486484,-0.0302364444852308,-0.0104111329663261,0.0319786532666866,-0.0262484825335439,-0.341344333633667,0.343386454427304,0.0221627330408297,0.195577898627286,0.197646832237888,15.4173231202982,1.63396255359442,1.29419481167394,0.0623805946868296,0.240234358636535,0.122896019003073,0.406541513724174,0.001830853652233,0.0102703717506634,,,,,3.0,-101.440236798872,1.89897375590401,HoldLanding,HoldLanding,0,0.755609935744869,0.0766697727543026,0.0505502570235122,0.945802751929477,0.345379547109745
75,1.66880649006045,2.46585750579834,-0.165027729441624,-1.65026250301837,1.66880649006045,-0.0414775536753778,-0.0118881537127671,0.0431476031500271,-0.0031415392816431,-0.144194074971635,0.144278937714223,0.0093101199005472,0.113463140041256,0.115901557374414,15.3576188530137,1.18581205295519,1.021405043614,0.176737766659425,0.240200706439969,0.145281453592952,0.466024993684943,0.156637445349625,0.0385820816427389,,,,,1.72844746755899,-95.0560971705178,1.85285049259638,AttemptLanding,AttemptLanding,1,0.468195375491002,0.187246872451865,0.195994613718817,0.894288696625815,0.335430465069799
76,1.75478636062265,2.47766828536987,-0.218013696028777,-1.72995937815131,1.75478636062265,0.0027272082327572,0.0019963802933413,0.0033798223356354,-0.0045065992843357,-0.156991706669373,0.157133937636825,0.0101459003267086,0.123247888574625,0.124535856777045,15.3772689837713,1.87434372301996,1.87738759868891,0.0234137399569792,0.0569960964381115,0.11991257636476,0.444038656103536,0.0011532858201299,0.0061810969467553,,,,,1.80133462105751,-96.2777836497926,2.1099713025718,AttemptLanding,AttemptLanding,1,0.492850200854782,0.163268067162992,0.10072108339041,0.958815241065226,0.346705521615662
77,1.70985088598084,2.66642427444458,-0.151243631612541,-1.67886531358676,1.70985088598084,-0.0613998312836782,-0.0306741093900063,0.068635561253145,-0.0040352506185425,-0.152042154760532,0.1522574810851,0.0098215812026187,0.163524752078361,0.16596610915642,15.3969144423217,1.06816683299014,0.798893602815816,0.176548540202534,0.240250443956248,0.150138868205224,0.391705107433867,0.158293475833678,0.0372413244373983,,,,,1.75923009576763,-93.8331549635916,2.03354497666648,AttemptLanding,AttemptLanding,1,0.489153458092841,0.227812198634085,0.220582274901948,0.897055969331686,0.333271614131012
78,1.77711450409245,2.77219581604004,-0.215335526303268,-1.7420312569652,1.77711450409245,-0.0540266830537331,-0.020949226132235,0.0579461177071256,-0.0062867492031223,-0.166523610114536,0.166815194470558,0.0107599897323497,0.183194645878211,0.185884147009511,15.4441149406045,0.995463249041163,0.750313430827952,0.177185258651603,0.240256896302867,0.159724391279518,0.38487265942228,0.159080606210263,0.0362557102031111,,,,,1.84421771642335,-95.6415120879709,1.74745742013093,AttemptLanding,AttemptLanding,1,0.511074030493222,0.234516750101181,0.224596436329027,0.897690553903798,0.329011381653547
79,2.61834337121268,3.0,-0.396177894298292,-2.5535752941549,2.61834337121268,0.0065055091769928,0.0038536978470492,0.0075612589393757,-0.0166632705788088,-0.33917201980827,0.340105914823,0.0219518559015445,0.200029111640602,0.202838481721961,15.401827078184,1.81913142945511,1.36820570905832,0.0288891064447418,0.0543676675685938,0.112544804082684,0.415406285365386,0.0223453779286063,0.0060985095713249,,,,,3.0,-97.5958361626102,1.52289606787738,AttemptLanding,AttemptLanding,1,0.738792595334441,0.0872589722826988,0.064504302293118,0.960512083546452,0.349980087074363
80,1.80927309733909,2.5996789932251,-0.2360323385678,-1.77663817226126,1.80927309733909,-0.0572270743205202,-0.0269233242846272,0.0632439991289414,-0.0061099726193461,-0.166998379502981,0.167257114517344,0.0107870123445022,0.131799994709232,0.134510691677147,15.4441070264504,0.936386032502175,0.548516849152094,0.175524653015777,0.240214451860908,0.114725015710124,0.321857259063658,0.156278934741853,0.0404214843943433,,,,,1.84269174465958,-96.4089816842801,1.70612935500704,AttemptLanding,AttemptLanding,1,0.509374964292521,0.18943605974799,0.19781766177645,0.900570579421971,0.349011104128834
81,1.84870627039188,2.83400368690491,-0.216322959332625,-1.80911806634494,1.84870627039188,-0.0711714712214101,-0.0248342232176452,0.0753798179796412,-0.0073727802684913,-0.178920264007873,0.179333265250589,0.0115667782773817,0.194399005156831,0.197295059207087,15.3731024378452,0.979529802347573,0.75172962465912,0.175882468806927,0.24025486094602,0.124073692902113,0.450750852161356,0.159293041714806,0.0344056422033012,,,,,1.90149022471625,-95.3637271300002,2.28613655402213,AttemptLanding,AttemptLanding,1,0.532447350612585,0.235511552011699,0.224614981255205,0.89845601295577,0.34485613648795
82,2.5633761109317,3.0,-0.406982662290743,-2.49513951801914,2.5633761109317,0.0034608487879453,0.0085043261143001,0.0091815596165025,-0.017805934262424,-0.327005710139763,0.328110166690621,0.0211862089621472,0.206613329251644,0.209238002013045,15.3974564098418,1.92047398848854,1.76807897335705,0.0213962471192461,0.0585427157001528,0.129972634095918,0.448734036761143,0.0006230570526149,0.0052358094376068,,,,,2.91783086718893,-97.7855854258006,2.18217000178984,AttemptLanding,AttemptLanding,1,0.72541456331773,0.099923660970059,0.0621350415322263,0.960320388883019,0.342234384846259
83,1.69611235244854,2.35074067115784,-0.30783942838171,-1.65650935109811,1.69611235244854,-0.0396540336750594,-0.0243975996373773,0.0465584069182838,-0.0071569600125668,-0.144834906154614,0.145153873777427,0.0093624123007412,0.118608653451509,0.120950665655473,15.4341338894442,0.925599361630519,0.765304180355775,0.176169209886995,0.24019794090596,0.140877787733629,0.415233457107272,0.15914510836758,0.0359553800143157,,,,,1.75027764965131,-99.5200046041142,2.30811389882298,AttemptLanding,AttemptLanding,1,0.476486760450705,0.15582707964461,0.177302090702816,0.898629724369467,0.337387649896165
84,2.65786639269251,3.0,-0.448077318067153,-2.58440324540337,2.65786639269251,-0.0291699878004589,-0.0114837447396386,0.0313490762467429,-0.0179765476051425,-0.342169351211583,0.343269198582046,0.0221568655084811,0.204332771909587,0.206391088471031,15.3949019827934,1.65334719921767,1.25582283179072,0.0635478060031995,0.240383226712014,0.120026826498895,0.402158376559955,0.0018723836530194,0.0115768424061264,,,,,2.95681470906161,-98.270421652992,1.52895067493108,HoldLanding,HoldLanding,0,0.750042589078876,0.0827273922894214,0.054678366761061,0.945368332469049,0.346654743778269
85,1.99864044221672,3.0,-0.425079774046375,-1.92490289997314,1.99864044221672,-0.0781991301436279,-0.0337397868998967,0.0851673480582229,-0.0160860357522904,-0.201781184701998,0.203065384342479,0.0130979437221989,0.202841723521415,0.205975008177907,15.4195008014545,1.09503166240472,0.747595457947613,0.176121430883341,0.240356190891283,0.18228723206924,0.413602939358538,0.157605233198849,0.0357854532803932,,,,,2.10680641889481,-101.731697741666,2.32255303212904,AttemptLanding,AttemptLanding,1,0.574165786226706,0.240919914311913,0.227611610999708,0.897461500041275,0.318983452413671
86,1.97435604010936,2.72978353500366,-0.548536522134253,-1.87685339744627,1.97435604010936,0.0071635934966258,0.0051414877967563,0.0088177076697458,-0.0200940874461866,-0.185628620609272,0.187480946599686,0.0121042732582675,0.160949551208873,0.162407766563354,15.4223794998257,1.85736425073409,1.86243003460732,0.027184870303034,0.0456859225478606,0.125911349550479,0.433407481164356,0.0152195070372696,0.0055049751840122,,,,,2.01104491577433,-105.279667622794,1.87074791059847,AttemptLanding,AttemptLanding,1,0.558976497341833,0.171587766090671,0.111718694162123,0.957180609749372,0.344039400199787
87,2.00574974031062,2.85879826545715,-1.16532439964736,-1.59959452754625,2.00574974031062,-0.0789950001681577,0.0034217979085237,0.0790690758292647,-0.0793108109443622,-0.139832765375978,0.167532699151621,0.0108040190576078,0.198175378979791,0.200758342079134,15.4656071251371,0.726141115440825,0.855537181001895,0.177023956396858,0.240349718201289,0.131766953086383,0.389248418637682,0.159435400192575,0.0363112207508038,,,,,2.06469467336038,-124.238920485483,1.65443060423835,AttemptLanding,AttemptLanding,1,0.575018265831992,0.206431915393336,0.207923407372387,0.899060549472378,0.341436909739386
88,1.92514005786664,2.77862977981567,-1.0843702097847,-1.56906065417849,1.92514005786664,-0.0601924795487405,0.0085547240793673,0.0607973510796288,-0.065882049045133,-0.131932276715268,0.151393200949355,0.0097659927642605,0.153868307135783,0.156370585163577,15.4203887896384,0.985462862814065,1.02413644506949,0.177024084522484,0.240279798049463,0.1606757328973,0.473679154806751,0.158696035179927,0.0365611722359337,,,,,2.00959748573364,-123.70580417537,1.60561717251986,AttemptLanding,AttemptLanding,1,0.544644799130485,0.203181368469798,0.205735363995115,0.895698248891101,0.328588563156756
89,2.62251426743026,3.0,-0.247315498169639,-2.57895351458754,2.62251426743026,0.0057180578763613,0.0053447906914809,0.0078270667183281,-0.0094142991186231,-0.346068431872042,0.346494324952946,0.0223754573607651,0.196899188260706,0.199646428340049,15.3796892015571,2.06246468993291,1.82841302673054,0.0294352285025995,0.0671458009358586,0.129758486469639,0.500795936633108,0.0231940686871375,0.0084424284621625,,,,,3.0,-94.0907171926139,1.50455558870401,AttemptLanding,AttemptLanding,1,0.739266423649412,0.0863692520598855,0.0652000001942333,0.954711203689202,0.342329561569049
90,1.92724914358766,3.0,-1.06070299408653,-1.57397847069695,1.92724914358766,-0.0961574184427788,0.0093517671238937,0.0966111001382305,-0.0670562283920406,-0.136476298511775,0.158388249647093,0.0102173426279389,0.197933316685802,0.200324380794587,15.4020794179834,1.04524491766995,1.0397112538876,0.176379166955742,0.240323500404614,0.131845118282737,0.388092839056635,0.156687557990594,0.0423461257299872,,,,,1.99637079272466,-122.311062912018,1.53057185920432,AttemptLanding,AttemptLanding,1,0.553997981115627,0.259080977718118,0.240486092467898,0.89542861803132,0.341402169652117
91,1.89897160433434,2.6369936466217,-1.14613045221494,-1.4904565355364,1.89897160433434,-0.0636057151788206,0.0028692843271177,0.0636703996843046,-0.0731468006948504,-0.118315213018261,0.143802060417617,0.0092741182563438,0.148540292457426,0.150874059617182,15.4630904639332,0.735379328049206,0.894031122207476,0.17599032523973,0.240228817193518,0.145961455228348,0.474448886177298,0.157507665626137,0.0367913129663056,,,,,1.94546366280019,-126.251978914843,1.63953531254197,AttemptLanding,AttemptLanding,1,0.536567239745927,0.177727866123446,0.190018785879492,0.899202326699547,0.335128242120734
92,2.62454509057329,3.0,-0.481296728731888,-2.54591453800847,2.62454509057329,0.0082142449994447,0.005734214532598,0.0100177361323186,-0.0214072174514589,-0.337153811353198,0.338600495002689,0.0218687541842202,0.200550766546901,0.203260566932498,15.3768153049902,2.11431161948515,2.01817400601721,0.0227646620383095,0.0650120843546343,0.13241429593806,0.537397401053375,0.0013492026730637,0.0059448653164807,,,,,3.0,-99.2513675644137,2.13648189664769,AttemptLanding,AttemptLanding,1,0.740530804206043,0.0863139395786019,0.0545497785856269,0.956148139066184,0.341149201805307
93,1.67439912420672,2.46981453895569,-1.01982548608753,-1.30606495892976,1.67439912420672,-0.0558030796493016,0.0037708663338545,0.0559303417766608,-0.0586581317247166,-0.0922661620672888,0.113158687369721,0.0072995939428189,0.148375234123052,0.150194970192696,15.4077130082318,0.982290347226325,0.924358746886794,0.176042234245011,0.2402145563915,0.136587126102018,0.389165654403233,0.155549514352511,0.0406400002227903,,,,,1.74681180591764,-126.657123786368,1.77565605689592,AttemptLanding,AttemptLanding,1,0.476545427160332,0.189222364310905,0.197444717975745,0.896998068566606,0.339294610621325
94,2.5804720369274,3.0,-0.242223845515319,-2.53626985726427,2.5804720369274,-0.0070534754963244,-0.0002069314384956,0.0070565102704869,-0.0101552442124813,-0.341579183517196,0.342075394043667,0.0220647146710948,0.201015878155159,0.202463939101437,15.4512217192974,1.1389906938368,0.790957938496328,0.0735275047193599,0.249547516343946,0.321404370659331,0.695380998485517,0.0742416861639445,0.127996835923679,,,,,3.0,-94.2734617915732,1.51765274797358,HoldLanding,HoldLanding,0,0.728618664334261,0.095687485240924,0.136953100078554,0.948072365529131,0.257153613040297
95,1.82604034688022,2.65256142616272,-1.16139871376451,-1.39360940808737,1.82604034688022,-0.0461993264000398,0.0084270169744613,0.0469616053271742,-0.0732249464022392,-0.103103977775665,0.129593811433927,0.0083582332820491,0.124709842997732,0.126791560033504,15.4536680296327,0.885038917461943,0.883908110076088,0.176672990239752,0.240226027376441,0.142741377426439,0.429131320783281,0.159036020755444,0.0364557415370177,,,,,1.86493072097439,-128.583435678336,1.74230010222729,AttemptLanding,AttemptLanding,1,0.512302404508092,0.194576870481878,0.200685431466624,0.897764635378039,0.336559387810472
96,1.72597486358821,2.44150757789612,-1.05783657264046,-1.3501053545976,1.72597486358821,0.0058364720883909,0.002435432125955,0.0063242182187761,-0.0601208923569688,-0.0958700577073064,0.115597000450685,0.0074643051011082,0.118985889210716,0.119853864635086,15.3999345908801,2.02972817575213,1.93461956184867,0.0177475604577533,0.0456801588726311,0.136885393650574,0.429085421375173,0.0001995629527381,0.0060654223022631,,,,,1.76269102467469,-127.19753908103,2.3132189687756,AttemptLanding,AttemptLanding,1,0.48423073655054,0.162154300726055,0.099586883191208,0.959977773261403,0.339162047266412
97,1.7774586733934,2.61905884742737,-1.10490790934267,-1.37174260914026,1.7774586733934,-0.0615201531755009,0.0058013106565739,0.0617930777035031,-0.0675051985853724,-0.101438071358618,0.125784959689714,0.0081151489184079,0.142711607386829,0.144642906544466,15.4110593592861,1.02288715340171,1.14752693987055,0.176620621313281,0.24024744439815,0.14421797013149,0.46057720224078,0.158823240177425,0.0369430515593321,,,,,1.81622668042125,-127.513201967813,2.02157831160219,AttemptLanding,AttemptLanding,1,0.502917560880468,0.200688770069951,0.204435205718159,0.894636435753363,0.335903124386005
98,1.86110884676108,2.60857200622559,-1.18057991380101,-1.41279125704541,1.86110884676108,-0.0590496281145547,0.0224191585132677,0.063162308768048,-0.0764827102134057,-0.10672376795007,0.136440591581405,0.0088001653038523,0.149470366693655,0.151628755355386,15.4310207675993,0.727441659555367,1.04817300209363,0.175685643110632,0.240234906311978,0.165109371154424,0.479495402194456,0.156028072108636,0.0418390712485313,,,,,1.91962505408224,-128.853168090004,2.03261648832808,AttemptLanding,AttemptLanding,1,0.5266214435407,0.179758967486988,0.192415398044992,0.89820592038887,0.326618057264701
99,2.62640020201437,3.0,-0.166107452468455,-2.58736526935119,2.62640020201437,0.0048844101187066,0.0063448907052756,0.0080071905353636,-0.0062348604358408,-0.3477450163478,0.348055176069401,0.0224730881687695,0.197047417601138,0.199928090558054,15.4033030176313,1.82658998877222,1.8356076368148,0.0293313022477337,0.0605257016897857,0.124016249572279,0.517791240758895,0.022105474645268,0.0060229958569414,,,,,3.0,-92.2002194325483,1.55972136010839,AttemptLanding,AttemptLanding,1,0.740359005315444,0.0855279394782491,0.0633315993964614,0.956559938960807,0.344881666856765
100,1.64571016785261,2.35654616355896,-1.02750949283458,-1.27209885382561,1.64571016785261,-0.0315494682347187,0.0168760170357643,0.0357794479678619,-0.0567109449538703,-0.0862901535339915,0.105652109316089,0.0068143275162805,0.12250071546671,0.124191171022565,15.4290815271236,0.830470180837396,0.9106594205892,0.176899833308255,0.24018766324885,0.13206738839246,0.367873239969473,0.159032541700225,0.0381120860936096,,,,,1.68546986904653,-128.540481584722,1.76800609621483,AttemptLanding,AttemptLanding,1,0.463694278965208,0.166497664494704,0.184438668739043,0.897869779334663,0.341303382936684
101,1.66157576039031,2.3537380695343,-1.06867302560077,-1.25823279452286,1.66157576039031,-0.0375009652055163,0.0137918477896026,0.0399566947681726,-0.0613185200778772,-0.084302753400512,0.106783791111657,0.0068872288171817,0.113201678175774,0.114900586641617,15.4628397169157,0.814262599166909,0.912494376033553,0.177348657672671,0.240189575963469,0.156616281599194,0.414531212619067,0.159715971160889,0.0363362012611345,,,,,1.69807149429304,-129.55767099295,2.4158167026116,AttemptLanding,AttemptLanding,1,0.466066986765739,0.16306191359823,0.182035188325402,0.897758294929946,0.330392763733692
102,2.62091227985869,3.0,-0.147970207476505,-2.5846678293462,2.62091227985869,0.0017678823124975,0.008173802897781,0.0083628022625562,-0.0053684884546992,-0.347493715008587,0.347755080801437,0.0224553884413911,0.194737519442079,0.197643678563748,15.3859348017971,2.03464792216533,1.72413153810071,0.0287985982858966,0.049681360757214,0.134687856916785,0.454832282564897,0.0214995655344524,0.0062579384593325,,,,,3.0,-91.8482151525671,1.73620634888138,AttemptLanding,AttemptLanding,1,0.738438677008399,0.0868279174465978,0.0639277269129272,0.956067433669247,0.340138730259207
103,1.70606087993931,2.30240440368652,-1.08349656913827,-1.30298755529914,1.70606087993931,-0.0375428768165202,0.0121451711103078,0.0394584944081634,-0.063351814964114,-0.0899868913336414,0.112746209212282,0.0072725043607786,0.116375005714868,0.11822009254667,15.3757179841527,0.994916698583212,0.95384304881079,0.176649870527943,0.240198335567456,0.14255745632224,0.429649691948746,0.157865642468913,0.0354950591148716,,,,,1.75398132014352,-128.600052606655,2.27954551443216,AttemptLanding,AttemptLanding,1,0.47859358649315,0.141411350151286,0.167916612078323,0.896363381006504,0.336641130523449
104,2.67850418711521,3.0,-0.373790153275069,-2.61695553487201,2.67850418711521,-0.0311512417310809,-0.0113874443954284,0.0331673597268038,-0.01333162383768,-0.350702105286099,0.351353404634374,0.0226809854261053,0.200355060332813,0.202546970870001,15.4091358089399,1.7008076880962,1.5008283608183,0.0634496065951579,0.240440743284132,0.129057463047073,0.473796052889818,0.0018685438904155,0.0089652302541392,,,,,3.0,-96.2939600424606,1.76973399742889,HoldLanding,HoldLanding,0,0.754777177404722,0.078417240515659,0.0511408919894691,0.943119484889521,0.342641127534634
105,1.7374432682991,2.39279365539551,-1.11132104531841,-1.31977189383149,1.7374432682991,-0.0569935995396569,0.0048333386388201,0.0571981778633226,-0.0673867944674374,-0.0938230522006232,0.118516368811973,0.0076438837483974,0.136042069916429,0.137989244878984,15.4603141914775,0.864672257041866,0.819288506580876,0.176084199747445,0.24021114116157,0.179497039790839,0.435552544049257,0.158584002368547,0.0364540699134108,,,,,1.78074250763471,-129.221424924807,2.37293102949662,AttemptLanding,AttemptLanding,1,0.490916053855558,0.157940169704967,0.178501906076504,0.89872677984067,0.320223537870738
106,1.83645543645457,2.77565026283264,-1.07196076490359,-1.46011011696093,1.83645543645457,0.0096896392313818,0.0040972828733951,0.0105203058595723,-0.0663567856527555,-0.116405549027886,0.139735282832083,0.0090246545668371,0.193218706967929,0.194323644034043,15.4047698039208,1.8464135340257,2.13528770879051,0.0194841851170569,0.0490249289827784,0.140227885768214,0.428373922899195,0.0001486755361167,0.0105890030879402,,,,,1.88415857146299,-124.959215831678,2.27065333031441,AttemptLanding,AttemptLanding,1,0.528586178528027,0.213247558675988,0.131865159799077,0.958973111962201,0.337676495214127
107,1.68822695744918,2.40989065170288,-1.02478960125613,-1.32653978163076,1.68822695744918,-0.0513108674028458,-0.0001732407268825,0.0513111598580842,-0.0569967579470943,-0.0938224495759693,0.112340201972806,0.0072451841566397,0.118253353038957,0.120020531091428,15.4708738436144,0.689890929317797,0.920808492812435,0.176166377934756,0.240183691295207,0.133153182035847,0.389937571573754,0.155897246088563,0.0390422916835737,,,,,1.72726488943798,-126.550224489005,1.90471594290927,AttemptLanding,AttemptLanding,1,0.474197961538066,0.171781377181065,0.186553688212734,0.899261315573027,0.340820807984068
108,1.69028392353573,2.38062763214111,-1.02594615576991,-1.32271410140312,1.69028392353573,-0.0489670776010577,0.0190850878747253,0.0525548786315218,-0.0580855033638159,-0.0937360584571733,0.113884415728452,0.007346539491475,0.13894324516955,0.14087166293045,15.437292880476,0.937231875004988,0.985687096946283,0.176197452305315,0.240215188054851,0.17258321528081,0.425912150334941,0.158552693512525,0.0376686192793683,,,,,1.72684939224008,-126.925173742408,2.04885334898951,AttemptLanding,AttemptLanding,1,0.478916712195619,0.164962395518656,0.18314298083249,0.896792624782011,0.323296348764084
109,2.62486321033044,3.0,-0.307385759676746,-2.57315473965564,2.62486321033044,0.0085409904574773,0.0067405913922088,0.010880445317699,-0.0123753046259249,-0.34499827245866,0.345622101412506,0.0223128809930619,0.195306061080275,0.198036842420772,15.4277978470755,1.9607116013322,1.5779190395704,0.0221498933839922,0.0494453809965254,0.120094766236123,0.423904034569294,0.0016694857528593,0.0072583429877603,,,,,3.0,-95.4171668207032,2.1426118385508,AttemptLanding,AttemptLanding,1,0.739570891238938,0.0864005259838958,0.0552217067083696,0.961121526843769,0.346624548339501
110,1.6139143653364,2.30311036109924,-0.945593057401842,-1.2879593891553,1.6139143653364,-0.0553776159066931,0.0101525219206914,0.0563005687791815,-0.0497327475617961,-0.0895227892225115,0.105601728754553,0.0068110366145017,0.129814665822187,0.131358625468676,15.4470585365769,0.825015172068457,0.839481753248926,0.175105434596995,0.240185184468474,0.142386087850036,0.381353172974899,0.156579952530932,0.0406248340312171,,,,,1.65985778043302,-125.136897277648,1.85918170813733,AttemptLanding,AttemptLanding,1,0.456648889183442,0.16539086998949,0.183598278927884,0.899369092574009,0.336717294288873
111,1.55827488835226,2.3023202419281,-0.945731139859326,-1.21205969554135,1.55827488835226,-0.0666036938425355,0.0081730265322064,0.0671032815603406,-0.0516106644670076,-0.0808238489874459,0.10027363555406,0.0064670957758976,0.151553739050664,0.153105828009203,15.460592892186,0.817954796198475,0.857434977403712,0.176438373131001,0.240209081810543,0.152980263088149,0.426655691026611,0.160340002458415,0.035603919075487,,,,,1.59306398738573,-126.486183134521,2.07645995501741,AttemptLanding,AttemptLanding,1,0.44616113582911,0.179712472840627,0.192036586683041,0.898617036641911,0.332008771960823
112,2.61786103527681,3.0,-0.237550457636635,-2.57513816912193,2.61786103527681,0.0043160998878411,0.002063128671822,0.0047838497215439,-0.0089892460506898,-0.345745916954458,0.346146073737546,0.0223541022931628,0.198352099811382,0.20110551877984,15.3938245761238,2.06971513467171,1.96383384562653,0.0261672362727797,0.0524902175959719,0.133715678960213,0.445989644305306,0.0087515269380989,0.006319588644187,,,,,3.0,-94.1056534981467,1.97473472255524,AttemptLanding,AttemptLanding,1,0.738317379829785,0.0868583061783331,0.0583025834692936,0.955224211304124,0.340570809351016
113,1.76934848443882,2.65203499794006,-1.02166588142361,-1.42275188679618,1.76934848443882,-0.0557418262456784,0.0081981440377635,0.0563414657145811,-0.0584092238909361,-0.108615077548264,0.127114015425151,0.0081999882519231,0.146914115128789,0.14887633120978,15.3806962700398,1.06248816368772,1.0799764017944,0.176602784777688,0.240236504143075,0.15171003188613,0.457354902703685,0.156458536221348,0.0385622979207087,,,,,1.77528590773906,-124.910768203071,1.52684852375612,AttemptLanding,AttemptLanding,1,0.501601528758974,0.20893373425212,0.208920021550108,0.894864957453797,0.33257331916172
114,2.67788355848164,3.0,-0.432704763765502,-2.60893349369138,2.67788355848164,-0.0290042326516309,-0.0117382022572893,0.0312894695375771,-0.0171661945998717,-0.347584088117153,0.348588614836797,0.0225000003389609,0.199436138978934,0.20159915382464,15.3577822174414,1.69161958355138,1.4346853939492,0.0634241241292986,0.240453191388959,0.122964663332599,0.483058186703037,0.0018445832285706,0.0106880185739354,,,,,2.9979851142919,-97.9705526263991,1.59808424091397,HoldLanding,HoldLanding,0,0.754422113026699,0.0782126020901863,0.0516339282310692,0.943724113112132,0.345349038518845
115,1.81786754405176,2.66819429397583,-1.05116026118836,-1.46919068880477,1.81786754405176,-0.0490607227929125,-2.12505253692457e-05,0.0490607273952174,-0.0599798809550918,-0.113813150052093,0.130998722024593,0.0084499203110204,0.114985031279265,0.11708303517471,15.4009521912452,0.928878631933578,1.01235932048533,0.177392039604663,0.240229121386469,0.149965846524451,0.485340257648173,0.158750261275067,0.0359470367374011,,,,,1.89315516909655,-124.179562229341,1.84485175270962,AttemptLanding,AttemptLanding,1,0.508181285448745,0.200317985422038,0.203818112653722,0.896051396285806,0.333348512655799
116,1.69567386670546,2.38255524635315,-1.0301507578534,-1.33303652059029,1.69567386670546,-0.0059695249387186,-0.0045461473746905,0.007503511441078,-0.0570684053237759,-0.0937391996896371,0.112149070007064,0.0072450882931639,0.123353934455173,0.12422790938119,15.3797033050961,2.27612564967094,2.24850916625977,0.0157497134529095,0.0554457728993878,0.173408054328248,0.48138233043352,0.0002391860336965,0.0100232095165368,,,,,1.69700248239393,-126.66944677606,2.46576301721706,AttemptLanding,AttemptLanding,1,0.477025279664361,0.155923954184928,0.0973054808753805,0.956574441148375,0.32292975363189
117,1.58578642806566,2.30912709236145,-0.938900409932503,-1.26521277980362,1.58578642806566,-0.0467092221374612,-0.0029833818181251,0.0468044014998527,-0.0507693938712001,-0.0895365043854131,0.105072930287823,0.0067781493814092,0.132559827478111,0.133773371328073,15.4080856127447,0.669507133526575,0.952803328547372,0.172198710119615,0.242086748663596,0.266640020497981,0.488010113928098,0.161356899282352,0.0048885298980329,,,,,1.6721231422542,-125.43586516234,2.29321392606069,AttemptLanding,AttemptLanding,1,0.449631055083124,0.171332456408193,0.176291298539387,0.90115391988104,0.28149332422312
118,1.66644643931775,2.465327501297,-1.05742132405538,-1.27323808832833,1.66644643931775,-0.0231109185157289,0.0157607302874895,0.0279734726810178,-0.0645447049281353,-0.0908323498826325,0.114102137317043,0.0073595678054647,0.123164830233983,0.124837590252817,15.4334565426784,0.674032560825602,0.83641834307704,0.160273057513382,0.241871053452896,0.246471350864772,0.466115551934526,0.158639489027949,0.0360645478053652,,,,,1.78141492798702,-127.597402747289,2.4123816829729,AttemptLanding,AttemptLanding,1,0.469353235201965,0.184876708936849,0.19454684595022,0.907995642712645,0.290457177393435
119,2.57808145751124,3.0,-0.36366332459394,-2.52136691037287,2.57808145751124,0.0078315109395843,0.0071690871741952,0.0106173619373194,-0.014604879928435,-0.332130487126494,0.332878755712525,0.021491502622161,0.199970759439855,0.202596717530173,15.4208010986475,1.85309391637008,1.69434466102661,0.0285998257102694,0.0455790586591364,0.130159240444914,0.42519935424974,0.0166691672557086,0.0054324527809933,,,,,2.88139783872518,-96.8469577847742,1.81570144312524,AttemptLanding,AttemptLanding,1,0.728007732175698,0.0968781884151466,0.0675108692043095,0.95782735546532,0.342151448691149
120,1.71588031837604,2.74512028694153,-1.02964048685509,-1.34442055361502,1.71588031837604,-0.0727425147451443,0.0139690167707428,0.0740716334435041,-0.0611383158654946,-0.0997039503710222,0.122078323736874,0.007874047552371,0.173024577148695,0.175006989521241,15.455299644664,0.8333414850368,0.911638173603886,0.177071636346614,0.240257744332021,0.151652011286576,0.429409695108916,0.15857204517295,0.0344119157192833,,,,,1.76744363452008,-125.864521808831,1.5,AttemptLanding,AttemptLanding,1,0.492569482804526,0.245158792391877,0.230085163854359,0.897753627365945,0.332599106094855
121,1.70158489813676,2.28430199623108,-0.989504827047725,-1.37013688425215,1.70158489813676,-0.0412929270576734,0.001519697830181,0.0413208822084596,-0.0536169623623152,-0.100137780991169,0.115901143331404,0.0074760869030964,0.122872559432825,0.124683553341909,15.4400084693344,0.842892601421308,0.996178100313811,0.17626445136917,0.240197402717022,0.153917047100734,0.485752331584938,0.159037400500723,0.0357274627998109,,,,,1.76448514358837,-124.664357217421,1.9344901129499,AttemptLanding,AttemptLanding,1,0.478692683504851,0.138686842142773,0.166887199051573,0.897417933087496,0.331592423510785
122,2.62661721833972,3.0,-0.372284322037516,-2.56671450839493,2.62661721833972,0.0079350532912817,0.0023548805415573,0.008277108982035,-0.0155573791445554,-0.342588345464787,0.343446130950431,0.0221807285903905,0.204261459627209,0.207046500757055,15.3722261610951,2.04446596339958,2.0220893654851,0.0286554050123605,0.055577930219006,0.143000882886453,0.441528511763529,0.0227160462089061,0.0070228466177371,,,,,3.0,-97.1526305433791,1.65637050260199,AttemptLanding,AttemptLanding,1,0.741840558375337,0.0855285958536023,0.0639669404559028,0.953720791338297,0.336444052050465
123,1.63797568354831,2.57471489906311,-0.95687093697211,-1.30076079277392,1.63797568354831,-0.0737304174001612,0.0079951183486181,0.0741626345770591,-0.0538296665634103,-0.0939031508354095,0.113142966084585,0.0072996230509904,0.165681989685645,0.167373797837159,15.3600989215749,1.01392343600236,1.1533221657963,0.176661823845875,0.240237489065304,0.186261433876651,0.460865018191055,0.157672930478493,0.0417625265899229,,,,,1.66518818535526,-124.488998271363,1.68159617240524,AttemptLanding,AttemptLanding,1,0.470268275180313,0.224362806496625,0.219880915193843,0.894640729777216,0.317217140499266
124,2.59047349042176,3.0,-0.514793133285151,-2.50307231229327,2.59047349042176,-0.0173164969254202,0.0155101518358126,0.0232470616581547,-0.024354102467456,-0.337852171122106,0.339708694036759,0.0219296893384926,0.209464197009757,0.211404641015793,15.4016500429009,1.73747856475829,1.40413093898252,0.0629042693427127,0.24033204176279,0.136104556667094,0.493148091391991,0.0019341151103161,0.0097608960713348,,,,,3.0,-100.530616564359,2.2575470424525,HoldLanding,HoldLanding,0,0.733073858982295,0.0964054259590989,0.062252279044368,0.943863790656394,0.339509085925736
125,1.56378177774919,2.26531910896301,-0.817529919610236,-1.31444916469531,1.56378177774919,-0.0500336614523461,-0.0068203420973251,0.0504963795202441,-0.0381149187501489,-0.0917964972106381,0.101810469467926,0.0065668945321672,0.118081380230809,0.119758729549565,15.4549643267757,0.854760035179868,0.894986999239316,0.176184564017008,0.240196558392273,0.15233569823907,0.397577955846588,0.159877530568718,0.0366342711081498,,,,,1.59718321662841,-120.692341177793,2.48476491569676,AttemptLanding,AttemptLanding,1,0.440960219976364,0.167103569101821,0.184640374844093,0.898159705578202,0.33229524522708
126,1.52412194591701,2.3877899646759,-0.854296098675369,-1.23669040378095,1.52412194591701,0.0082217217049059,0.0043354924676969,0.0092947943888166,-0.0429708737576332,-0.083538582455473,0.0976898398852846,0.0063057841042457,0.15860197466551,0.159346860631919,15.4274006566065,1.68276668133177,1.69431619811138,0.0275555352077425,0.05278196895604,0.12003881325707,0.423304042718724,0.0189356311161826,0.0065308786114811,,,,,1.57811714801433,-123.111297136965,1.7803497418713,AttemptLanding,AttemptLanding,1,0.438301891037586,0.196029349858701,0.128408310916487,0.959688009771932,0.346649416330191
127,1.4974334179955,2.21498823165894,-0.76375740127547,-1.26529254255902,1.4974334179955,-0.0726416906990908,-0.0006147511319502,0.0726442919063611,-0.0345340676425118,-0.0874403421671429,0.0968326953683154,0.0062452584914848,0.145274908801586,0.146709434850415,15.4443571926315,0.832740569965641,0.775172006699038,0.175663568836325,0.240175900555768,0.128882073562923,0.416386662506958,0.156148309770626,0.041300983818445,,,,,1.53181850141805,-119.504479623187,2.21246865066358,AttemptLanding,AttemptLanding,1,0.428657465102217,0.174767953257105,0.189278560311552,0.899534616765187,0.342719078416479
128,1.61763979816759,2.41384315490723,-0.869016793851904,-1.33637088921381,1.61763979816759,-0.0702368713254103,0.0036057311626858,0.0703293636456338,-0.0448533106893681,-0.097987846270149,0.111733345092131,0.007207491794074,0.164245274542566,0.166035263582252,15.4097644874621,0.915397246738914,1.01837626838741,0.177260366097963,0.240223343012837,0.176183491589636,0.439363616615023,0.158249363916433,0.0355104582578861,,,,,1.67347133841587,-121.814224359451,1.65586712364962,AttemptLanding,AttemptLanding,1,0.464577665561141,0.192039471934785,0.198469627702355,0.896175882189312,0.321696225960162
129,2.62659395179621,3.0,-0.51862012146979,-2.53904919800101,2.62659395179621,0.0071739619570754,0.0040473970975282,0.0082369383527282,-0.0236579049822712,-0.335134570568427,0.33689577738827,0.0217554722770148,0.203577450503786,0.206212877597339,15.4260179605748,1.73334163700466,2.30556439601835,0.0202028469190008,0.0474824530263664,0.138361175083428,0.435509540352569,0.0003293163171311,0.0064244018148221,,,,,2.98812679975473,-100.15154225882,2.2260575252129,AttemptLanding,AttemptLanding,1,0.74166762933179,0.0855264662105197,0.0537983886484064,0.958164314852462,0.338506144407365
130,1.64653504054818,2.39340353012085,-0.922804113209658,-1.3511374202613,1.64653504054818,-0.0485840351326786,0.0074978551053003,0.0491591934530402,-0.0466774775733275,-0.0968100486598013,0.109354178544962,0.0070537724961044,0.112448540027328,0.114197059119737,15.4159135538638,0.881772418576594,0.920769967013476,0.175643947726071,0.240163417757581,0.154090428621306,0.40253945134696,0.155886507875781,0.041670041935081,,,,,1.67291748571223,-123.514973806059,2.48325085688686,AttemptLanding,AttemptLanding,1,0.461915422636796,0.177057928953574,0.190670392283228,0.898015193107328,0.331515365057197
131,1.50143243332167,2.17409086227417,-0.742185927028628,-1.28768382158333,1.50143243332167,-0.0510384729012943,0.0096567982681601,0.0519440032042977,-0.0313730390476185,-0.0888137611622809,0.0961428194949564,0.0062017874697052,0.118688304135918,0.120135724193675,15.4168120142584,0.879077179278219,0.97683547926217,0.176415157445668,0.240172674802925,0.166319953982207,0.512487298129165,0.158111337621343,0.0364119233275432,,,,,1.54515709711904,-119.107877075441,1.62225145221718,AttemptLanding,AttemptLanding,1,0.424409127057847,0.160871213768434,0.18003513326238,0.897210250388634,0.326080020452353
132,2.6200683878417,3.0,-0.462298724513163,-2.54543834786777,2.6200683878417,0.0049479276177634,0.0036458566300465,0.0061460766573059,-0.0201626906503766,-0.336699503955685,0.337988715089328,0.0218293171973119,0.195446102966873,0.19819451838922,15.3656098306233,2.05209591133702,2.12763435640822,0.0189179040913752,0.0457393968306943,0.136369924248866,0.41522222662902,0.0005442776691145,0.0072415976540851,,,,,3.0,-98.8062245222683,2.29553237728187,AttemptLanding,AttemptLanding,1,0.738323807102297,0.0866113934561236,0.0548420454977964,0.957700310136314,0.339391144778282
133,1.63717145251261,2.39884066581726,-0.860180606710908,-1.3654131959896,1.63717145251261,-0.0690939449646263,0.0098865767682139,0.0697976907280506,-0.044090647886325,-0.101750358192335,0.114699143549318,0.0073997308723898,0.158003580544163,0.159857697615895,15.3695733153409,0.992604842985249,1.05817966160277,0.177311233087043,0.240213014658103,0.17973124445645,0.452551485569405,0.159882386873599,0.0370019999852116,,,,,1.68330103474598,-120.509023497779,1.98887163278981,AttemptLanding,AttemptLanding,1,0.468550593526542,0.184171816293689,0.195017201108597,0.895231076634716,0.320119446908244
134,2.68262691219358,3.0,-0.637922693410944,-2.57047029315328,2.68262691219358,-0.0281062389442245,-0.0084256677934365,0.0293419928661159,-0.0285938584960705,-0.338959428128963,0.341400275655084,0.0220419661434331,0.200352653156026,0.202427004895748,15.3853054931625,1.85675952475809,1.45693339410043,0.0632774052179072,0.240295193430761,0.133608243623374,0.431460747359683,0.0019282788413295,0.0082651143480949,,,,,3.0,-102.269542710179,1.79708466021956,HoldLanding,HoldLanding,0,0.755852577564103,0.0767883101152332,0.0499354950140886,0.942325138742872,0.340618558389612
135,1.69659783751578,2.60900712013245,-0.874031620164848,-1.43416922120487,1.69659783751578,-0.0502194069229024,0.012028477813737,0.0516398403386728,-0.0431082231753155,-0.10989651362061,0.120784090863076,0.0077915394228022,0.134787933999778,0.136637010811909,15.4243730963549,1.01427770353878,0.941929292529131,0.177007376093714,0.24024011271149,0.153808704993924,0.436716287130083,0.158770993599143,0.035624245962676,,,,,1.71044333906111,-120.370167332204,1.93427722061823,AttemptLanding,AttemptLanding,1,0.47975349216659,0.21475939265084,0.212374792893722,0.896126114126895,0.331640575558256
136,1.63879417934545,2.58110952377319,-0.764334262359268,-1.43103554744338,1.63879417934545,0.007951461712136,0.0061083079828367,0.0100268225162687,-0.0338684708281522,-0.108784353241789,0.115913927029123,0.0074828498278665,0.137886983517337,0.138795762263172,15.4009518010394,1.80593299153618,1.74700107807093,0.0230567272840333,0.0497070896514514,0.124474059825485,0.43748641149973,0.0049316634758592,0.0060127846714636,,,,,1.66149639163359,-116.91481150861,2.09744803887224,AttemptLanding,AttemptLanding,1,0.464770933611422,0.213859203290891,0.132693839561509,0.96055572581107,0.344678195633118
137,1.46516729327472,2.33908081054688,-0.710302212071645,-1.25926627516963,1.46516729327472,-0.0619723700513289,-0.0089763047379643,0.0626190761392058,-0.0306833836918432,-0.0874625923089587,0.0950703467966097,0.0061316152836863,0.159053761609278,0.160524064671144,15.4374849747014,0.780902530432485,0.783829778118867,0.17662873087697,0.240179550085584,0.126318537163076,0.40611939864219,0.159207940877044,0.0357555857482231,,,,,1.50463962214456,-118.009747287404,1.60740021697929,AttemptLanding,AttemptLanding,1,0.422816091140822,0.208110705345088,0.208627539222467,0.89939130928004,0.343858427927522
138,1.59410795509415,2.31876587867737,-0.730286872402896,-1.39982990676578,1.59410795509415,-0.0561072649558642,-0.0031609287683506,0.0561962334281056,-0.0307914757078522,-0.104722900419272,0.110872678488178,0.0071509778262375,0.125929704686912,0.127662425514471,15.461341008425,0.791708165720514,0.814403684597655,0.175575055367124,0.240194537515898,0.131488120978117,0.404198525618964,0.156514213204114,0.0398833031290421,,,,,1.62198882751374,-116.427624599585,2.35524009777151,AttemptLanding,AttemptLanding,1,0.450627939794668,0.173350675601376,0.188075297215639,0.899593022063938,0.341560835120837
139,2.65099729919756,3.0,-0.557254883867698,-2.55429915451834,2.65099729919756,-0.0003656453541476,-0.0140064150163101,0.0140111868924131,-0.0265297519610295,-0.339172505219503,0.341299449492813,0.0220388846559188,0.202910157557794,0.205567800113717,15.3997139372831,1.83451679167462,1.93749104291374,0.0224218147274519,0.0538691827033674,0.186653813090741,0.401870958054478,0.0046094640617321,0.0110956935538373,,,,,3.0,-100.33835635475,2.20150293688934,AttemptLanding,AttemptLanding,1,0.748046173142092,0.0810943252774919,0.0547400435165391,0.959151888221651,0.317042749737449
140,1.47307791534414,2.44526624679565,-0.71223328593886,-1.26406242014812,1.47307791534414,-0.0579771233917889,-0.0332056612054376,0.066812893762185,-0.0341042744188164,-0.0946506924458564,0.103457305654542,0.0066730132153732,0.158589764836096,0.159293011765756,15.4308820771445,0.723834195318954,0.725454271471924,0.166194646353078,0.243566089788182,0.210030186117602,0.534087799405781,0.1686651212174,0.0051330978426212,,,,,1.62484937329115,-117.662804067615,2.3964836899209,AttemptLanding,AttemptLanding,1,0.424679379778256,0.230991405099658,0.215423700190097,0.905515410298676,0.306653250614399
141,1.38223135841559,2.11527323722839,-0.726962068640451,-1.16396352556464,1.38223135841559,0.0061282544408917,-0.0104008132313158,0.0120719682887682,-0.0331026752116615,-0.0801366923850294,0.0880808919581747,0.005681339072043,0.119099529279812,0.11995290308012,15.4548403984539,0.680340276371351,0.914009186669724,0.147745672166733,0.248633493179121,0.234530833769196,0.42757131202588,0.288861104925694,0.0503393286658692,,,,,1.58700801541868,-119.377240163094,2.05995763449193,AttemptLanding,AttemptLanding,1,0.392585609526849,0.167147616919155,0.246976493875754,0.913600132421311,0.295764073880357
142,2.63673948763206,3.0,-0.625138818275222,-2.5303728994628,2.63673948763206,0.0066734472041322,0.0026614036266076,0.0071845644857611,-0.0289260509506574,-0.332629584047846,0.334982715908669,0.0216316764861529,0.191492643480049,0.194109644770923,15.3934009742858,1.99954256001388,1.66674346443465,0.0282936923800573,0.0712705959446452,0.12357558332302,0.47555074472927,0.0194273962807204,0.0066534556000663,,,,,3.0,-102.460692774955,1.77686053443126,AttemptLanding,AttemptLanding,1,0.741952458989401,0.0830507854385088,0.0608843080101162,0.957046620760733,0.345077518523102
143,1.47699427322761,2.02680349349976,-0.648554692624879,-1.31629942129209,1.47699427322761,-0.044131886929704,-0.0031512347751665,0.0442442507517575,-0.0236645104608399,-0.0915893357611231,0.0954427266159887,0.0061580985285521,0.102153407924057,0.103770514468427,15.3550136895273,1.09042058729804,1.03306402709766,0.177459542683824,0.240150917712147,0.153980443420095,0.456879046347671,0.158364096055953,0.0358966666567307,,,,,1.50542716708844,-115.316950545559,2.07910497696908,AttemptLanding,AttemptLanding,1,0.414619242421049,0.131818520532387,0.162528488340687,0.894585706687836,0.331564247368847
144,2.68336545784497,3.0,-0.588636252847637,-2.58248290195996,2.68336545784497,-0.0313183035042866,-0.0089702618509627,0.0325776262496433,-0.0250548715822641,-0.342133895759971,0.344052148595492,0.0222092576664854,0.202144651227297,0.204210055170189,15.3464144777094,1.67838440502241,1.37868274876186,0.0633482063593925,0.240326683478622,0.132069645734503,0.445636444844921,0.0018910262422277,0.0101285438447835,,,,,3.0,-100.955060334027,1.73543452807994,HoldLanding,HoldLanding,0,0.756406133126029,0.0772153367973173,0.0508527650386957,0.944306083469142,0.341302379673554
145,1.6216740060497,2.17168593406677,-0.743876584675523,-1.4286880127906,1.6216740060497,-0.0454015700680736,-0.000435081713496,0.0454036547069023,-0.0312039792499799,-0.108933613964203,0.114512538146369,0.0073890667493079,0.122371368384617,0.124275532946248,15.3529892451373,1.08690323928854,1.11854415148621,0.176725635645514,0.240169388179289,0.164912545434237,0.486837827550945,0.15681789349118,0.0412590685970756,,,,,1.68254359450145,-116.590495520199,1.9378119051818,AttemptLanding,AttemptLanding,1,0.457301508202502,0.132076687166774,0.163946151523364,0.894308666964013,0.326705535362561
146,1.75544838283373,2.58509373664856,-0.836292412994575,-1.52385036596036,1.75544838283373,0.0083301344290105,0.006010544729855,0.0102721851402209,-0.0399151820839999,-0.122972362994396,0.131549903462955,0.008495639079228,0.145753202697219,0.146754073890024,15.3570785911285,1.89616342399678,2.02849394085148,0.019233348044139,0.0604908152027224,0.134203360502624,0.437025084663469,0.0003364744582158,0.008032966052583,,,,,1.779143412243,-117.297381887505,2.26107666654877,AttemptLanding,AttemptLanding,1,0.497470383533666,0.188553438550711,0.116202685898653,0.95954673239698,0.340354061998834
147,1.44599120808928,2.3286235332489,-0.726791136218337,-1.22651162806839,1.44599120808928,-0.0710859912391878,-0.0038512034935411,0.0711902375245831,-0.0320921320254661,-0.0824296058943622,0.0911410545911198,0.005877119603041,0.149310618355718,0.150725238376702,15.4701144159752,0.664225477313564,0.606997800309173,0.175622080294824,0.240163962092039,0.121129883667819,0.403624139972966,0.154914457516958,0.041947228993936,,,,,1.48754464037965,-118.732441752547,2.0302233058952,AttemptLanding,AttemptLanding,1,0.415742703165815,0.211643816707089,0.211090697847767,0.902200776956981,0.346164496147636
148,1.70766177513455,2.36541795730591,-0.767157962746522,-1.51424545204972,1.70766177513455,-0.049889488672269,0.006170193347151,0.0502695968346841,-0.0327080492440643,-0.121653856050848,0.127129230578789,0.0082033777663062,0.115864472761152,0.117787407701128,15.3284318663992,1.16848575894728,1.13643674339033,0.177573235666346,0.240214852663671,0.165446079878677,0.494099031095017,0.157271260267853,0.0362154135054867,,,,,1.75445964810256,-115.915142708198,1.93513022171603,AttemptLanding,AttemptLanding,1,0.47893395490944,0.15721123374158,0.177394319416494,0.893103276791317,0.32646840894281
149,2.56561193179127,3.0,-0.602092212942115,-2.46051524841781,2.56561193179127,0.0073274683263652,0.0036572745648195,0.0081894718582068,-0.0283258050913671,-0.317602388219216,0.320058176846475,0.0206674385107843,0.207346292197639,0.209748033428583,15.3754491706933,2.03695339251277,1.88155789575871,0.0263578624320874,0.0538545633217777,0.132345523890114,0.467643867156369,0.0102351981258133,0.0064302149479825,,,,,2.89228411426449,-102.374592577792,1.95377001720748,AttemptLanding,AttemptLanding,1,0.726112788496723,0.099238718520968,0.0664304680384713,0.95603276580468,0.341179767159949
150,1.51146592029789,2.17774891853333,-0.650081029928596,-1.34855706351627,1.51146592029789,-0.0544793992501764,-0.0134131577989078,0.0561063075313153,-0.0249772292198292,-0.0968105524673459,0.101302093572111,0.0065334125385263,0.120829579251599,0.122425433080033,15.4580184401734,0.838120252482167,0.713663734805387,0.175815633890918,0.240159479008945,0.130502566775362,0.38249394628697,0.156288033679096,0.0403303807578227,,,,,1.57055207434036,-114.528428258895,1.57233686519031,AttemptLanding,AttemptLanding,1,0.427542665362111,0.160199830983714,0.180246839894893,0.899899594582996,0.34199885921095
151,1.47862418881945,2.12609219551086,-0.656861305767201,-1.30938791516894,1.47862418881945,-0.0506333510738358,-0.0020852997436803,0.0506762736987173,-0.0250980271784445,-0.0919405479367229,0.0965972310979114,0.0062302867803855,0.121129202579754,0.122566298422658,15.4418670647821,0.861122711581364,0.831107094707525,0.175691570742106,0.240146884512477,0.126829358578158,0.440567431451003,0.159202806560569,0.0354588363853128,,,,,1.53043490962982,-115.371127707452,2.2610029926042,AttemptLanding,AttemptLanding,1,0.418813043369718,0.154970951683667,0.176633496247941,0.89885812329382,0.343631396187485
152,2.62211775381031,3.0,-0.659591295868923,-2.50486197278313,2.62211775381031,0.0092482173798517,0.007403501050848,0.01184657556068,-0.0318902907504322,-0.326331249211654,0.329221219332884,0.0212642613337735,0.19747833932871,0.200062890257597,15.3746422900874,2.06968094798001,2.09360848542527,0.0160193818538267,0.0584470894306139,0.139076614908594,0.4312036554845,0.0008665652745568,0.0060535218422098,,,,,3.0,-103.235441300153,2.39956062651992,AttemptLanding,AttemptLanding,1,0.739243979067602,0.0871953775788052,0.0549036473392029,0.959278749239188,0.338188171151736
153,1.49511127263908,2.04514098167419,-0.708104305858944,-1.30569900482619,1.49511127263908,-0.0431046452757238,0.0049441165343868,0.0433872646366601,-0.0277830847784612,-0.0901251197591895,0.0954064898077656,0.0061542547354149,0.0986836130308048,0.100150233075882,15.4326133112084,0.860984939108568,0.933845781928657,0.175693892025708,0.240138789308096,0.139493263449214,0.404647681770527,0.15532456679752,0.0404433803659273,,,,,1.53053947457772,-117.277382087191,2.436285378525,AttemptLanding,AttemptLanding,1,0.418726385985597,0.131711016382956,0.162766434398099,0.898050812607568,0.338002994022572
154,2.66199632046314,3.0,-0.658244198311343,-2.54278675896561,2.66199632046314,-0.0265862130745893,-0.0012982826520721,0.0266178936712156,-0.0310305685296539,-0.336858125306795,0.339682897771235,0.0219258232966576,0.208046739015475,0.210090629974149,15.4141599870916,1.68343352609444,1.48381256049926,0.0623600425710602,0.240404997825379,0.128580542048256,0.431601926667708,0.0018787013238439,0.0093148012579518,,,,,3.0,-102.931426400997,1.95828956917585,HoldLanding,HoldLanding,0,0.751883811451668,0.0809307750688488,0.0527806438648992,0.943934473748377,0.342853092422997
155,1.64169049182994,2.49185800552368,-0.762693934831615,-1.44189151414707,1.64169049182994,-0.0545395565566459,-0.0081003202579859,0.0551378129569673,-0.0329652823425822,-0.112076439410056,0.118051784353362,0.0076153744029747,0.117431071036908,0.119383732545542,15.4346279564345,0.955826171418508,0.956553990407847,0.175493146843048,0.240177044788245,0.150859989981038,0.421397875003116,0.155161240881553,0.0409572334246986,,,,,1.68981233095603,-117.495671617653,2.04537013380898,AttemptLanding,AttemptLanding,1,0.46166087766376,0.201396289623202,0.204691864703997,0.89722758244984,0.332951115563983
156,1.61012851175257,2.352294921875,-0.699382918609551,-1.43768356336082,1.61012851175257,0.0024230808324799,0.0001829572700882,0.0024299782063652,-0.027640918008304,-0.108536567669096,0.113138674566787,0.0073040805818688,0.115762876428909,0.116689620991551,15.4131090524564,1.79393495468304,1.7890600225592,0.0274213767293183,0.0606334463646453,0.13476380638755,0.461924433690613,0.0199294708903868,0.0048197268967086,,,,,1.64682358488304,-115.230680905002,1.73283308149755,AttemptLanding,AttemptLanding,1,0.452705527332329,0.167432938282047,0.111069933549617,0.958137208242723,0.340104974938867
157,1.66553558119191,2.30844473838806,-0.734641274499486,-1.48288380905679,1.66553558119191,-0.0510368382878838,0.0018498917101676,0.0510703530608801,-0.0301674835213742,-0.116598675642675,0.121549759575629,0.0078401005235479,0.111100170787924,0.112914666137641,15.4505610906385,0.889867611342661,0.85340048753017,0.175750235395538,0.240183697640968,0.1336196094249,0.421697468841706,0.156806490870868,0.0403926023505747,,,,,1.69535374865113,-115.407012304463,2.10464009524912,AttemptLanding,AttemptLanding,1,0.466725754878705,0.154017458430295,0.176790467815135,0.898427775811087,0.340613506922267
158,1.6125372980265,2.54791474342346,-0.753402803459975,-1.40056412366922,1.6125372980265,-0.0719919079233797,0.0101310724005586,0.0727012615738802,-0.03459274364718,-0.107792302502407,0.115932388793662,0.0074776257565609,0.167084485138933,0.168838053743074,15.4539118440673,0.934884225437533,0.841032566869209,0.175229488560573,0.240223287620803,0.132529677428414,0.407271622182863,0.156371580881197,0.0397197339652106,,,,,1.65925020896733,-117.23842078182,1.73903334189265,AttemptLanding,AttemptLanding,1,0.463777556889015,0.223788489836194,0.218215113917073,0.898431623780161,0.341097921142927
159,2.57596857372335,3.0,-0.745025042875365,-2.43190430572727,2.57596857372335,0.0058028217533082,0.004572117550289,0.0073876247329116,-0.0382518974613073,-0.309341093176229,0.313595275087068,0.0202518962230968,0.203873665367609,0.206307274592747,15.394320048569,2.05649865411997,1.86769502402194,0.0227747202531116,0.0566532820468375,0.13125412361167,0.472537173939723,0.0060900523100038,0.0050937994489378,,,,,2.88835322200788,-105.56852442763,2.10805145611694,AttemptLanding,AttemptLanding,1,0.728186407911443,0.0967614687799468,0.06261586189223,0.957779689545186,0.341664833950369
160,1.54413838724832,2.15694999694824,-0.692412428200897,-1.36954346254977,1.54413838724832,-0.047321791124412,-0.0047861190942028,0.0475632090087115,-0.0266470898528431,-0.0991003390994274,0.103552814590475,0.0066793273228519,0.0994993873151526,0.101203019393384,15.4424360310792,0.866327045450877,0.873269238570415,0.176775474864285,0.240180382140333,0.1415942541966,0.422676527894737,0.158878770542656,0.0372052346503021,,,,,1.56544004446909,-115.546181583882,2.45082410608748,AttemptLanding,AttemptLanding,1,0.43201084047823,0.146602533834079,0.172103483444768,0.897944006050547,0.337069220357067
161,1.64522218945864,2.3551127910614,-0.771634945914999,-1.44122444794208,1.64522218945864,-0.0521864328919517,-0.0119417829512619,0.0535353150550291,-0.0334778093600322,-0.110453942774159,0.11665111981949,0.0075250093920114,0.117011732210456,0.118974540040086,15.4017447455808,0.981064160433565,0.987913758425154,0.176906853350675,0.240205598187493,0.138583312220452,0.481105461592146,0.158037701046679,0.035214308001388,,,,,1.70136515468512,-117.053321105748,2.37916766041086,AttemptLanding,AttemptLanding,1,0.462520825196988,0.16954019312071,0.18476829702499,0.89607603253363,0.33840741679091
162,2.44315543403364,3.0,-0.639811083741064,-2.32809925237166,2.44315543403364,0.0046169442305424,0.0073543991479355,0.0086835108599629,-0.0306787044936614,-0.298930547783958,0.3019431908931,0.0194765269305844,0.199785385490344,0.201490462130187,15.461176243663,1.16775503180602,0.815192252495754,0.0306813641410659,0.0933003875188024,0.291175607339579,0.673014558870037,0.0075443497066983,0.0079902983977298,,,,,2.85921158454158,-105.062668776886,1.8723537523846,AttemptLanding,AttemptLanding,1,0.691806208168342,0.126882004333424,0.0823878099678624,0.969079017838525,0.270588618960187
163,1.44741930913281,2.45326685905457,-0.654830351081869,-1.28132957705041,1.44741930913281,-0.0437626135302334,0.0007285313540945,0.0437686771667875,-0.02754895757249,-0.100646207504851,0.10528485740205,0.0067895712684172,0.134320629368994,0.135915515354118,15.4718818332939,0.603360312022681,0.602619233920694,0.167826123661818,0.24016958633667,0.176816720113893,0.383409079748656,0.15786885836619,0.0347825312604706,,,,,1.71874998102098,-116.787170824054,1.64516510999822,AttemptLanding,AttemptLanding,1,0.413161585506239,0.234339956212973,0.223416103965049,0.906611384593822,0.321414791060492
164,2.52599536996443,3.0,-0.801518955861357,-2.35856166609518,2.52599536996443,-0.03680284880188,-0.0117852096787136,0.0386437685417104,-0.0385053402079259,-0.289548548520962,0.29425389617689,0.0189949109658163,0.223630024347225,0.225309181346045,15.3929015168815,1.76448491523829,1.478970473267,0.0629657621162746,0.240253915999173,0.127052281975272,0.474786434474068,0.0018591099365252,0.00934393368085,,,,,2.64390369362176,-106.697557678757,1.71133309869389,HoldLanding,HoldLanding,0,0.718660601593058,0.113735732657316,0.0724655047430535,0.943032826603607,0.343532319122101
165,1.60387158553872,2.53414297103882,-0.693294768416962,-1.42276829478021,1.60387158553872,-0.0721172941303825,-0.0021126533087523,0.0721482322492456,-0.0303267290557417,-0.111425950366743,0.117528452641418,0.0075815268239403,0.170467734801674,0.172317611119066,15.4269538923016,0.965593894867051,0.931352024180379,0.17687404613084,0.24021201494639,0.158074382588532,0.472182102942343,0.156193191677203,0.0417669231503597,,,,,1.65443912380199,-114.70021335318,1.87276066566348,AttemptLanding,AttemptLanding,1,0.462162611700806,0.222538237649883,0.218130110945585,0.89665840185635,0.329744718849541
166,1.64765500603711,2.32239246368408,-0.721444715730716,-1.46883281302704,1.64765500603711,0.0025268897808561,0.0005638826296688,0.0025890414412746,-0.0293849624623506,-0.113601847007091,0.118467470887963,0.0076519271440347,0.121051435889831,0.121996504996511,15.3818293205628,1.93223151964234,2.36589655898196,0.0240361179360324,0.0687637667680923,0.145149341319906,0.505736457069001,0.0076996438955186,0.0114658828776282,,,,,1.6985678915868,-115.061450151433,2.08473924106472,AttemptLanding,AttemptLanding,1,0.463773969275865,0.152290585568136,0.0989658272499465,0.954210934699936,0.335489181635597
167,1.46893740787699,2.18749761581421,-0.697894502485783,-1.26659955316593,1.46893740787699,-0.0692405456372114,-0.0084836109058092,0.069758331503412,-0.0303604451718387,-0.0879487026663443,0.0956399043968499,0.0061680409869118,0.153708335033456,0.155184582748467,15.4317913046504,0.818578186177159,0.797678579137723,0.176680252185359,0.240155962943649,0.133994431135735,0.47663116361518,0.158501663005937,0.0353429539520065,,,,,1.53242316823457,-117.234742424214,2.16415853941782,AttemptLanding,AttemptLanding,1,0.422753558650225,0.174465074228166,0.187976211350369,0.898960713608418,0.340446919495229
168,1.73760772113864,2.59103322029114,-0.866354792025022,-1.47748018746201,1.73760772113864,-0.0755977598826705,0.0022709609804855,0.0756318620890217,-0.0452128445661123,-0.118868540024694,0.131006144188457,0.0084504268595672,0.175121981224693,0.177153399178779,15.4203065812477,0.903632293586049,0.992696037464412,0.176225466113069,0.240240824752609,0.165752559705856,0.483865119558219,0.158045710842326,0.035721356095131,,,,,1.76822611766951,-118.998443980142,1.50426998062149,AttemptLanding,AttemptLanding,1,0.498792738806061,0.205886578692298,0.206764069402117,0.896987544342355,0.326332195686286
169,2.47601913847652,3.0,-0.770899629376445,-2.31949218693597,2.47601913847652,0.004211695434132,0.008104033651736,0.0091331122766753,-0.0401338509474113,-0.283750688124628,0.288696874857264,0.0186424216500849,0.213592843449264,0.215812833175594,15.4087660812366,2.09002329675905,1.7169580214666,0.0278325529634386,0.0690649938301889,0.12701612425184,0.510619131630454,0.0226748391411185,0.0056640189298306,,,,,2.66549340284327,-107.193726307889,1.70613871290312,AttemptLanding,AttemptLanding,1,0.703434336895525,0.119570097760173,0.0838794081882566,0.956171727446508,0.343548389221404
170,1.74877493445938,2.45974063873291,-0.779747553270498,-1.55161255365901,1.74877493445938,-0.0421323944509221,0.0041321088072382,0.0423345365554289,-0.0343062117386535,-0.127558078009214,0.133442100440207,0.0086067364878302,0.124423428631078,0.126633967716468,15.4078388827866,0.874467003718049,0.856185078717997,0.176307189703265,0.24020738330045,0.12429969400566,0.452571707883799,0.15902619380146,0.03503278792122,,,,,1.77840570795084,-115.675983280215,1.64339395792046,AttemptLanding,AttemptLanding,1,0.491666776065794,0.167728615163374,0.184054673061945,0.898248424500655,0.34475569155304
171,1.65468492459606,2.26271319389343,-0.802818888068808,-1.43487587160049,1.65468492459606,-0.0432914748876628,-0.002937591917551,0.0433910272317123,-0.0355800819902959,-0.108652305791714,0.115691197718791,0.0074637721890231,0.106545077614645,0.108405169501715,15.3823581342749,1.01815061252128,1.05486413677571,0.176714816604578,0.240200060312409,0.179262118706424,0.484722292233058,0.156567752964551,0.0432483268474664,,,,,1.68221562017466,-118.331726157389,1.5812264203741,AttemptLanding,AttemptLanding,1,0.46293034712596,0.144761382251055,0.172169161643048,0.89535461866752,0.320327947241589
172,2.42281909092613,3.0,-0.851789649376759,-2.23449116788588,2.42281909092613,0.0062016516777021,0.004856925286385,0.0078771953618703,-0.0470080128196157,-0.264503061288274,0.271476901841676,0.0175294780709064,0.21929630468587,0.221350615515493,15.3723586905554,2.06842543551255,1.77818906687494,0.0256159003332784,0.0534667466719837,0.134698589096333,0.426658525064011,0.0135734205637333,0.0076351356367413,,,,,2.5789773418386,-109.450212225276,1.9438289063356,AttemptLanding,AttemptLanding,1,0.690355214016733,0.131309857024631,0.0875949585352526,0.956968650171745,0.34013396040163
173,1.54015482035843,2.17811155319214,-0.723199944249769,-1.34299958422268,1.54015482035843,-0.0509402834746473,0.0026637648542576,0.0510098826079438,-0.030155214429379,-0.096011611458058,0.102328291919338,0.0066019777948336,0.125432820431214,0.127211972045881,15.3630956547917,0.978806283788819,1.03385481020382,0.17718621994719,0.240170881242497,0.140879141156743,0.473726919074835,0.158095799984508,0.0356061308185483,,,,,1.60572032516396,-117.151648626796,1.63467512871434,AttemptLanding,AttemptLanding,1,0.436150346504758,0.152892076699041,0.174947729946556,0.895593124287891,0.337387048374781
174,2.22359877509632,3.0,-0.709897800548568,-2.07684840317563,2.22359877509632,-0.0070960511350269,0.0237354558572063,0.0247734899935457,-0.0364474386454673,-0.24234896439291,0.247224082664448,0.0159638468775723,0.232770303483759,0.234149897467819,15.3727668989437,1.8344543842523,1.57177091731809,0.063245363439286,0.243264723541762,0.13875487256349,0.469304723944546,0.0019736791146541,0.0091149672173149,,,,,2.36078838964489,-107.709824257803,2.49243682451739,HoldLanding,HoldLanding,0,0.639789652852583,0.179232082102144,0.11173097351248,0.941614119482304,0.33833116774956
175,1.66058171439815,2.39096856117249,-0.808580222082387,-1.43192563908914,1.66058171439815,-0.0617724295162976,-0.0116397558283385,0.0628595017804731,-0.037477755889379,-0.109849036331094,0.118248954027269,0.0076261897050183,0.13273446116658,0.134499597047235,15.4528474302719,0.827228818989104,0.779439568064234,0.176234593727371,0.240226136061614,0.139054656005294,0.423272496378199,0.158185093788285,0.0359239847745776,,,,,1.70036876942666,-118.357386427334,1.94376685829406,AttemptLanding,AttemptLanding,1,0.469721709915621,0.175861282517312,0.188884522829269,0.899258880095181,0.338197930664314
176,1.75064228689391,2.56903457641602,-0.880474586087555,-1.49227897944224,1.75064228689391,0.004795369646275,0.0004995644685856,0.0048213208462712,-0.0439570658944788,-0.118468556815132,0.129109459343793,0.0083364210575621,0.14633938550664,0.147313551329538,15.4163360833792,1.82152941079682,1.92411764553953,0.0271458623807753,0.0509849543297985,0.124671214240225,0.441035188643123,0.0222866960496997,0.0092946248824222,,,,,1.79740384781532,-119.424856454763,1.74195419682426,AttemptLanding,AttemptLanding,1,0.496300653437618,0.185022173964289,0.124298366216492,0.956996984795541,0.344590571448789
177,1.94915713973947,2.66105318069458,-0.985492638824548,-1.66010700071126,1.94915713973947,-0.0573882919375026,-0.0039651823955401,0.0575251138454669,-0.0546922079528266,-0.14619070255627,0.159265834781252,0.0102737230319722,0.141562981974573,0.14406375185164,15.4254586171607,0.969725606735191,1.03637783349197,0.1764334468799,0.24027573371092,0.158421383476457,0.455469532740528,0.158149475321038,0.0362900594665909,,,,,2.00389774569212,-119.82849383685,2.43230955475316,AttemptLanding,AttemptLanding,1,0.548587987634188,0.170722880086568,0.185918769010758,0.896021035243979,0.329590496232686
178,1.81551787096101,2.72398567199707,-0.973379721495983,-1.51258132344949,1.81551787096101,-0.0621891292835536,-0.0029919460370825,0.0622610595969532,-0.0539652140157207,-0.122347674076102,0.136941691670834,0.0088342426642723,0.141812582452435,0.144078284296518,15.4171486016363,0.931196437331338,1.09111011810098,0.17641776942766,0.241920248825797,0.19159929027651,0.439877356351705,0.156367416306313,0.0409488761452382,,,,,1.88108853169074,-121.75609313085,2.45804170697685,AttemptLanding,AttemptLanding,1,0.512953755782239,0.215819782825889,0.213878999581456,0.895901563779202,0.314844759877107
179,2.50416411005932,3.0,-0.657865345913602,-2.38668753828631,2.50416411005932,0.0027675225997243,0.009131661795365,0.0095418252176884,-0.0308144565116127,-0.299875203352649,0.302780489024395,0.0195549202442888,0.208662154386394,0.21100026486595,15.3966984483507,1.90478439758511,2.13801029358968,0.0170075307754466,0.0519362069714012,0.137611724530511,0.436215870483485,0.0005033875874215,0.0058124071669636,,,,,2.73243854491602,-104.018907315581,2.36590901903851,AttemptLanding,AttemptLanding,1,0.70997714898901,0.113312409859895,0.0703247763387374,0.959731419181618,0.338839233541995
180,1.81276763605591,2.43874859809875,-0.916236058770128,-1.55065609154246,1.81276763605591,-0.0545412055503391,0.0062286379658249,0.0548957105227144,-0.0465519598844207,-0.127057420111827,0.137168507085809,0.00884719362278,0.123069354032441,0.125273715133217,15.4336258451609,0.951180677080536,0.795160058585135,0.176568313324883,0.240222797993825,0.136819883801636,0.370955209916823,0.156939645624076,0.0345544350908934,,,,,1.85620598441334,-119.444845846151,2.01371529006186,AttemptLanding,AttemptLanding,1,0.508459445974887,0.15090993005547,0.172862160767944,0.897994594700185,0.339191162754828
181,1.82290549726294,2.98039841651917,-0.904325058013417,-1.55360156098292,1.82290549726294,-0.0724034610981485,0.005722211397588,0.0726292288425933,-0.0496119997476091,-0.132685130064722,0.145769510886605,0.0094006386675605,0.182850966912803,0.185072721393959,15.4679495421686,0.854818501926378,0.645845203582701,0.175740103192248,0.240263784939859,0.100122905158358,0.425510722376448,0.156671376463308,0.0417557651662907,,,,,1.8944468966032,-118.434379956689,1.6273431991197,AttemptLanding,AttemptLanding,1,0.523122676882243,0.273751265453792,0.249066396750781,0.900339019289162,0.35550093104073
182,2.44490306512967,3.0,-0.450145061629248,-2.37081037444288,2.44490306512967,0.0046078892713821,0.0074209402414315,0.0087351587051533,-0.0194189330731721,-0.296893043428402,0.298215875160672,0.0192626679406011,0.220296298708616,0.222662371422801,15.3688261355551,2.08162704460274,2.04980567597332,0.02126518550451,0.0478432344964984,0.142987467585579,0.413489390220161,0.0001620754102693,0.0047414192308252,,,,,2.61222307005049,-99.3162222201901,2.18203825798905,AttemptLanding,AttemptLanding,1,0.696506624985805,0.126498256108437,0.07769513962831,0.956906150157505,0.33645001440641
183,1.8152154829051,2.47291564941406,-0.957714996951739,-1.52725109992089,1.8152154829051,-0.0497292248099588,0.0036020112653319,0.0498595054664103,-0.050216458745067,-0.123168362896228,0.135223123905777,0.0087216582540441,0.118883610047749,0.120995560859328,15.4630015778955,0.74352729292779,0.973981345348936,0.176051356401724,0.240215765559726,0.150755250823007,0.380701878488885,0.158754914893929,0.0364644513032518,,,,,1.87171872539055,-121.350351106356,2.264269140769,AttemptLanding,AttemptLanding,1,0.508256574279893,0.157123446800024,0.178091608506781,0.898479611069821,0.332997666300886
184,2.47282860193595,3.0,-0.241317299560441,-2.43277093908513,2.47282860193595,-0.0086964196467449,-0.000349103274878,0.0087034239106699,-0.0094263018300355,-0.315060703272609,0.315455624960408,0.0203486786830874,0.213539078108838,0.214779420323811,15.441772346308,1.18946720072346,0.787241624061764,0.0775514017161292,0.250180173277311,0.291406540639927,0.66154259011082,0.0782722878072375,0.115623517664851,,,,,2.70378156394852,-95.0700514349474,1.80364244353165,HoldLanding,HoldLanding,0,0.702376844581014,0.120209192281368,0.148958114353196,0.945693015518623,0.27048598193781
185,2.10304616109745,2.92583346366882,-1.23346364749535,-1.68476609833642,2.10304616109745,-0.0584788760569192,0.0204486671667852,0.0619510042999989,-0.0832836144514191,-0.151373280092388,0.176735490752265,0.0113995089698002,0.143979045633191,0.146841849778383,15.4513748453171,0.878769229595677,0.93098349174025,0.17615655748528,0.24030613516912,0.183977415703281,0.408239796439203,0.159368972632066,0.036938213196038,,,,,2.15708888634091,-124.745911655981,2.25381267222263,AttemptLanding,AttemptLanding,1,0.590180679581663,0.196484827200226,0.202153628349108,0.897702235589721,0.318232259687431
186,2.06467929711709,3.0,-1.13404499666913,-1.69180594656668,2.06467929711709,0.0067227579988683,0.0062233980146006,0.009161122090633,-0.0753992409742382,-0.155649475325972,0.179299115941274,0.0115794237172234,0.213783881913044,0.215190014300972,15.3639067737688,2.00544726152873,2.09306657043008,0.0272593497847194,0.0580436780219168,0.140880068278606,0.463966024355161,0.0200318416622342,0.0082458083626255,,,,,2.10837557196529,-122.363616262261,1.82697381922986,AttemptLanding,AttemptLanding,1,0.593619148758084,0.212126697198605,0.139177534826161,0.954167716427964,0.33738663632062
187,2.05245178212991,2.8198676109314,-1.1208749374573,-1.69564383690777,2.05245178212991,-0.0669754128082812,0.0027200317659974,0.0670306235510883,-0.070099300249464,-0.153657219584226,0.173238250754261,0.0111741472074434,0.154042811133348,0.156751706407258,15.4305497997523,0.947020629597908,0.938206076403191,0.175997525320866,0.240292312007247,0.152622562162401,0.475829484455453,0.159079655596857,0.0356470586698918,,,,,2.09849345512064,-122.244984043751,1.70251822748205,AttemptLanding,AttemptLanding,1,0.578670816516093,0.184957509131368,0.194639141422031,0.897188741792416,0.332167750150044
188,2.02772834011026,2.78685593605042,-1.11983162736209,-1.67294536378482,2.02772834011026,-0.0550374978042478,0.009904430862155,0.0559215872025803,-0.0686900354988882,-0.148251355436925,0.166549142151916,0.0107422871236055,0.131897899700378,0.134515582574009,15.4417264112942,0.897092668333578,0.964933005113061,0.17603472927268,0.240287227336184,0.15223339860681,0.471300077482592,0.158687834514936,0.0378485314336721,,,,,2.08252249604559,-123.526280590972,1.69117641419058,AttemptLanding,AttemptLanding,1,0.567630673877539,0.181056000073674,0.192924628834804,0.897352433643722,0.332340711730307
189,2.50491250558043,3.0,-0.788218692702473,-2.34695953068296,2.50491250558043,0.007065986474125,0.0068870581458363,0.0098671036660536,-0.0407439415786952,-0.289586263482646,0.294477468720211,0.0190186174763858,0.208195649926286,0.210486494246499,15.3678956128624,2.28824016727602,2.02290543041986,0.0277685305122162,0.0523308363422284,0.136486670665632,0.471001982773972,0.0215986972984171,0.0056542133421564,,,,,2.71977714743149,-106.924123588306,1.50064476955216,AttemptLanding,AttemptLanding,1,0.710073967004081,0.113203655249846,0.0795776917503925,0.952242447904853,0.339339257481941
190,2.01722190508971,2.79315590858459,-1.10598392559349,-1.67214743699663,2.01722190508971,-0.0587785736310355,-0.0028870012727617,0.0588494307062353,-0.0668326206230387,-0.147641132645614,0.164689347461474,0.0106234003230112,0.136170525435284,0.138771619342168,15.442522996545,1.066583948667,0.967923993226309,0.176903841799289,0.240255125635694,0.166743322269052,0.397953599769852,0.159832254460572,0.0344155121034071,,,,,2.06580628279313,-122.281189709167,2.08964433028177,AttemptLanding,AttemptLanding,1,0.56568016522569,0.185374213082491,0.194775817061493,0.895562659556908,0.32589185676931
191,2.01806533976689,2.8707160949707,-1.0007358970078,-1.73168424805395,2.01806533976689,-0.0771124734745706,-0.0015342599980405,0.0771277350834831,-0.0567016476022429,-0.159744048707601,0.172553861424869,0.0111299168853177,0.162591232289209,0.165340222087091,15.4391077810692,0.962147044510111,0.952060323860564,0.175589964025246,0.240273586030763,0.149756907130512,0.46351122710436,0.154024692630134,0.0398526014155154,,,,,2.07634549688122,-118.754548572983,1.93703092312061,AttemptLanding,AttemptLanding,1,0.57121880168859,0.205986504686163,0.206539176818611,0.897164817235893,0.333441374608661
192,2.4676345156188,3.0,-0.944425261363369,-2.24639669575026,2.4676345156188,0.0074459681649565,0.0058315237292233,0.009457754010231,-0.0552419931814754,-0.266492613117018,0.275513060678893,0.0177908270714128,0.21807658328701,0.220188577766125,15.3825415655056,1.83326873505327,1.97574704051776,0.0274869111646758,0.0763231061001005,0.134052008553582,0.515492744266553,0.0195270723013939,0.0071303178523964,,,,,2.68099720733185,-111.612146549017,1.80189576719122,AttemptLanding,AttemptLanding,1,0.702073586384905,0.121516155554312,0.0841812349886239,0.95632856332389,0.340421329531741
193,2.03786749130971,2.87084221839905,-1.06351588122372,-1.71345781004992,2.03786749130971,-0.0727524532598833,0.0052775202475756,0.0729436198395382,-0.0640260028961421,-0.156427617804583,0.173003381760216,0.011159898007328,0.157327520050899,0.160010641173776,15.4267356807584,1.13067651585615,0.963426555228642,0.177101472486143,0.24031807528274,0.157638060818249,0.429497279274714,0.159784850138259,0.0366263201383987,,,,,2.11900443077325,-120.570247299149,2.29833815123857,AttemptLanding,AttemptLanding,1,0.575433459250677,0.200792310565684,0.204809537158256,0.894995596769834,0.329938639636334
194,2.47804425164878,3.0,-0.990546431375528,-2.23533907864271,2.47804425164878,-0.0256530799929668,-0.0001515864041847,0.025653527858045,-0.0582681750901688,-0.265264258218979,0.275668735722195,0.0177956844190118,0.226543978942025,0.228136289223055,15.3457765586168,1.69529485571151,1.43996544349026,0.0633351790998113,0.240246484104162,0.119827215900592,0.481112845431864,0.0018752160160071,0.0093190028682235,,,,,2.61715863552686,-112.220792726245,1.76436842382291,HoldLanding,HoldLanding,0,0.706439058284285,0.122143190153,0.0775080717479654,0.943698222384938,0.346743459599737
195,2.01699853023967,2.9705445766449,-1.01509931666635,-1.7191131097704,2.01699853023967,-0.0759859473154334,-0.0032052255292625,0.0760535183940707,-0.0593290961458475,-0.159211787853542,0.173687601344889,0.0112014606044505,0.169904281725847,0.17251748091283,15.4717733182929,0.77871035439184,0.834700203399188,0.175488307393889,0.240294507051539,0.145458418798757,0.419606355192969,0.159011289919448,0.0368632874390878,,,,,2.08957514186263,-119.371133784789,1.50629509215678,AttemptLanding,AttemptLanding,1,0.572369770913145,0.228491005480089,0.221171119492729,0.899579049063269,0.335351813867219
196,1.94177085441231,2.83318376541138,-0.904927751093621,-1.70332883210532,1.94177085441231,0.0002708375736784,0.0006724067629936,0.0007249026460398,-0.0456982478898655,-0.152892155180324,0.161376388070587,0.0104246633651556,0.141550132581714,0.142806339829356,15.3872070319777,2.04126997107806,2.29145291548448,0.0267688735616544,0.0519832079245499,0.15798349958748,0.457081879619936,0.0192164945081312,0.0101713624871874,,,,,1.98818975952798,-117.123132335998,1.61006134145721,AttemptLanding,AttemptLanding,1,0.546366829142487,0.200700803793231,0.132659823769843,0.952572740539039,0.329785111294453
197,1.89726563482671,2.7506537437439,-0.847747366188078,-1.67745859968142,1.89726563482671,-0.0536598451518634,0.0117103235096397,0.0549227699449179,-0.0410559364495609,-0.149910019853455,0.157675859318197,0.0101690213529577,0.155820723066242,0.158222668701986,15.4432630470786,0.836861088616593,0.785175425623616,0.176208660534492,0.240324329223442,0.113491893044581,0.446918696011959,0.158997899828058,0.0354935153980715,,,,,1.96491164649544,-115.571452830696,1.55424548561149,AttemptLanding,AttemptLanding,1,0.537582036360853,0.202081498996268,0.204821365526702,0.899151097120866,0.349559158646853
198,1.84522232896573,2.58292365074158,-0.828575401066116,-1.62874820522794,1.84522232896573,-0.0611860543402563,-0.0055064233874833,0.061433329262307,-0.0399252973968201,-0.140935480113665,0.148593344616662,0.0095860000944635,0.143694733125978,0.146100091855927,15.4061921836683,1.010271666143,1.02763581552084,0.17688442051779,0.240244342052888,0.189133152820159,0.464034616775255,0.159841686523285,0.0369589390992895,,,,,1.88489007794024,-115.359098105949,1.8391199885139,AttemptLanding,AttemptLanding,1,0.52127930609538,0.177245574430989,0.190827708442421,0.895545659528032,0.315940820968818
199,2.47463717109782,3.0,-1.12259929289047,-2.17190568590331,2.47463717109782,0.0056336261761237,0.0058977211770202,0.0081560320606395,-0.0740401338512845,-0.249877672210494,0.265526157250338,0.0171562618917457,0.214001697395887,0.215977713942688,15.3530433129773,2.21002511215458,2.20249516990085,0.0275069215190575,0.0540775432480447,0.159580766529653,0.439063253519762,0.0173551934327424,0.0057152131781383,,,,,2.68563096804021,-116.007396076949,1.84549489955262,AttemptLanding,AttemptLanding,1,0.703098788414624,0.119701909047441,0.0816128240694102,0.951576737024321,0.32907521487571
200,1.9013509983952,2.74341320991516,-0.825459835553575,-1.69279104661686,1.9013509983952,-0.0606202237589588,-0.008044297327365,0.0611516332412903,-0.0399891834713764,-0.152422724111092,0.159637142767302,0.0102994174809935,0.145090615232776,0.147699359721867,15.3837144917715,1.13478109431695,1.0215452566616,0.17699542144649,0.244161921977045,0.182739787750454,0.401064708258455,0.157931056332178,0.0401627071692623,,,,,1.97177383483815,-114.893051128023,2.4352871438696,AttemptLanding,AttemptLanding,1,0.53656680484976,0.200675130352895,0.205201279592639,0.894559725090495,0.318782316555354
201,1.81983537367872,2.53631782531738,-0.772029440384608,-1.62699386123358,1.81983537367872,-0.0637496746379982,-0.0081116614386936,0.0642636761144787,-0.0352048881682925,-0.141227842905324,0.147510401964996,0.0095144573849534,0.141032534777656,0.143444099945973,15.4252388878396,0.867492137288527,0.827012133249786,0.176538864633643,0.240213575098924,0.150232245480601,0.43026358240601,0.159578181736176,0.0359439696780553,,,,,1.87135485490829,-114.338554000358,2.15353881647819,AttemptLanding,AttemptLanding,1,0.513978252970187,0.17299022557302,0.187788306099385,0.89841660555752,0.333230113119733
