scenario_id,mean_wind_speed,max_wind_speed,wind_velocity_x,wind_velocity_y,wind_velocity,wind_acceleration_x,wind_acceleration_y,wind_acceleration,wind_body_force_x,wind_body_force_y,wind_body_force,mean_wind_body_risk,mean_wind_gust_risk,mean_wind_risk_raw,min_thrust_margin_n,mean_abs_roll_deg,mean_abs_pitch_deg,mean_abs_vz,max_abs_vz,mean_tag_error,max_tag_error,stability_std_z,stability_std_vz,mean_imu_ang_vel,max_imu_ang_vel,mean_imu_lin_acc,max_imu_lin_acc,wind_speed_cmd,wind_dir_cmd,hover_height_cmd,gt_safe_to_land,label,success,onto_wind_condition,onto_gust,onto_temporal_pattern,onto_drone_state,onto_tag_observation
1,2.03241279822628,2.7437629699707,-1.25494173937307,-1.58110046739913,2.03241279822628,-0.0577214095299733,0.0177426965518114,0.0603867899383347,-0.0851159958252144,-0.131459060298529,0.160344312016426,0.0103427339545876,0.123707884438519,0.126369274179373,15.4381971818271,0.808582324514727,1.08396323953214,0.176235792809267,0.240267053475451,0.120373818046586,0.425019151191717,0.156603165793817,0.0423256669259943,,,,,2.0716688985117,-127.374480982322,2.31472368639318,AttemptLanding,AttemptLanding,1,0.567250601029551,0.171124700131189,0.18766737870764,0.897012102734998,0.346500525312628
2,2.31477365829691,3.0,-1.37123668990305,-1.82489167355909,2.31477365829691,0.0121617301129513,-0.019110047201421,0.0226517457027224,-0.106503227464823,-0.180902841553833,0.219503960363271,0.0141791370183312,0.232700965649173,0.234447077501735,15.3927179555435,1.92358725388646,2.02125301393569,0.0366303133474005,0.0996459171790165,0.150190078030814,0.448026927924884,0.0236907161120628,0.0232314084213008,,,,,2.42882567996652,-126.095851442396,1.92963867692304,AttemptLanding,AttemptLanding,1,0.664162391046188,0.158328746928695,0.113974240198607,0.950689669793412,0.333248854208527
3,1.71845622115083,2.66777396202087,-1.0794740300395,-1.30289063527526,1.71845622115083,-0.0766611313977756,0.0107557742118252,0.0774119870955577,-0.072504604221761,-0.0998797641569092,0.130130000565645,0.0083944182727859,0.189366574239265,0.190421855336026,15.439527842226,0.623039432040715,1.04401977393,0.173215436069495,0.243309810438477,0.248104045419182,0.464312707134723,0.127470922077166,0.0049164264902292,,,,,1.87319628751653,-127.297520073929,1.61566643283133,AttemptLanding,AttemptLanding,1,0.496339363374093,0.227788689329946,0.195114748194367,0.900293959632625,0.289731535369253
4,2.36827962517282,3.0,-0.638853685261935,-2.24772906581902,2.36827962517282,-0.0070615846132219,0.0002179580542028,0.0070649474848073,-0.0311756807332007,-0.269034760277379,0.27242167580907,0.017570996435242,0.234924771130534,0.235987402036579,15.4647228061926,1.07635953585548,0.761649582556934,0.0777869821116551,0.249307293454953,0.250319588851672,0.696493217223586,0.113949842892322,0.112467608473978,,,,,2.46779887999601,-105.553838771394,2.32138831688129,HoldLanding,HoldLanding,0,0.678738713786733,0.143432324708331,0.177601081616164,0.946665008728075,0.288746849399257
5,1.84072525533911,2.58329939842224,-1.06627362782766,-1.48577469549894,1.84072525533911,-0.0509617996881887,0.0005077886785469,0.0509643294550329,-0.0615038945888484,-0.117081725327756,0.134786249540868,0.008694469073261,0.117321870618255,0.119643028544549,15.4278116656262,0.93343329823033,1.0004867334736,0.178333478072019,0.240232116360391,0.13132714523818,0.413343192990743,0.156617208597436,0.0413904335023122,,,,,1.88084050141636,-125.058018224367,2.44674985025981,AttemptLanding,AttemptLanding,1,0.51478867379934,0.176422642593793,0.190512300549917,0.895638175000602,0.341632379894142
6,1.88632322713284,2.7248420715332,-1.04398635861179,-1.54924070364025,1.88632322713284,0.0052449898233925,0.0006190378209827,0.0052813943302217,-0.0607430771493315,-0.127547210476538,0.144953642015464,0.0093613603093098,0.158129639086434,0.159231066868149,15.3754182127713,2.06829405847081,2.13769096285519,0.0226987872731425,0.0553692619235413,0.143705945526629,0.450992959548682,0.0001960006454224,0.0063280829856834,,,,,1.9161886291726,-122.783489357006,2.13308859787869,AttemptLanding,AttemptLanding,1,0.534865740609054,0.189634995617289,0.116169229854042,0.955603581195867,0.336130690877054
7,1.91473196256881,2.81379342079163,-1.07846063386433,-1.56137946816687,1.91473196256881,-0.0680486085072403,0.0065630542472492,0.0683643679179731,-0.0644983804234251,-0.130172354520009,0.148983834486081,0.0096102003450078,0.147012704031281,0.149370255838794,15.4356711815205,1.00617662532046,0.850858010654066,0.175215649329836,0.240269865410311,0.154363000749917,0.37143065603952,0.155619829338842,0.0395989133011217,,,,,1.96867067391655,-123.586570068552,1.51271646998802,AttemptLanding,AttemptLanding,1,0.540469241186108,0.214822295551762,0.21245735076287,0.897801188909568,0.331394221888926
8,1.92357787489891,2.81346487998962,-1.13603410408108,-1.53591849717427,1.92357787489891,-0.0558643549624882,0.0021444047506722,0.0559054972888139,-0.0707981659410306,-0.124628981583241,0.146503026515395,0.0094511553699582,0.130594081796888,0.13299808941139,15.4054237760401,1.00626382158451,1.11494618647608,0.17710535436101,0.240262072458633,0.175009684934537,0.525763122416617,0.159569580524672,0.0373700877986383,,,,,1.96461919299708,-125.030810267647,2.06203511911666,AttemptLanding,AttemptLanding,1,0.539553717855321,0.210473917315026,0.210793286791405,0.894780672756162,0.322217917806872
9,2.60714452858739,3.0,-0.802857242784112,-2.44807287230986,2.60714452858739,0.0051222493006706,0.0016827052236812,0.005391561440624,-0.0423111231227179,-0.313712554386625,0.318601296333156,0.0205694413414149,0.200077919822319,0.202491406839677,15.4055204693324,1.69329445018969,1.84318300000211,0.0299492348439371,0.0553985099574768,0.127712556660847,0.437217688037287,0.0221026567543655,0.005113040717337,,,,,2.98365709536118,-106.900241715489,1.64832536392544,AttemptLanding,AttemptLanding,1,0.735736822324573,0.0893809339986178,0.065311250934688,0.95723877404081,0.34323886370629
10,1.88202265845049,2.62691473960876,-1.12881368791063,-1.48474108199794,1.88202265845049,-0.0692648715860589,0.0202652650482489,0.0721685762871141,-0.070863474126383,-0.118184608165635,0.142007590056513,0.0091599046719464,0.154190901490489,0.156416119176014,15.3680375527832,0.972886398432183,1.02404918277738,0.175859680734727,0.240257231446144,0.139641799191882,0.46308979147495,0.155705056063066,0.0423603782514087,,,,,1.92399487038037,-126.353098118705,2.02869781616268,AttemptLanding,AttemptLanding,1,0.533155932755334,0.180831623913249,0.193104995396693,0.896379951494561,0.337936978136941
11,1.87324319659053,2.53161525726318,-1.16675777467475,-1.45049811035321,1.87324319659053,-0.04087876849036,0.0132034512056686,0.042958175438779,-0.0736287055552526,-0.111592351460918,0.136664921676326,0.0088155685558661,0.126161868170007,0.128425329270766,15.444231678031,0.764620467614389,1.10856056639326,0.176454234004144,0.240237740639635,0.170145017999233,0.483472650402317,0.157861862511415,0.0344615418259834,,,,,1.90759543141243,-127.844704273722,1.77139567279532,AttemptLanding,AttemptLanding,1,0.52521658494496,0.156009379148457,0.176297925026828,0.897055032016439,0.324379992000341
12,2.61839705526231,3.0,-0.784389958487259,-2.46441666838649,2.61839705526231,0.0069851261943475,0.0010209182007438,0.0070593386321644,-0.041091913187473,-0.317028526065226,0.321695052952837,0.0207733416045974,0.199343327544268,0.201822005316651,15.399215936372,2.00142995511483,1.83984377403667,0.0178275720053639,0.056294295917492,0.136102984798359,0.524157548295402,0.0002223442438209,0.0053875864028044,,,,,3.0,-106.299635778902,2.33958822997649,AttemptLanding,AttemptLanding,1,0.738603615799945,0.0871548746485444,0.0543508667813396,0.960904777553985,0.339509784534063
13,1.96966883400143,2.97975468635559,-1.05599123079905,-1.6275837337636,1.96966883400143,-0.0828750696904408,0.0174793900647029,0.0846983249729855,-0.066022979666164,-0.146039154792826,0.166396596567455,0.0107326329128852,0.19385319127512,0.196270032846611,15.4486293982357,1.03181315195937,0.894829230680316,0.177018169619612,0.240317100491693,0.143915621927476,0.409448882157178,0.15236365725968,0.040534176446455,,,,,2.02726066309477,-121.319262228342,2.18667842032949,AttemptLanding,AttemptLanding,1,0.564499028969702,0.242797343024734,0.228135287345127,0.896353010755168,0.336037501365566
14,2.65547111085974,3.0,-0.743892319548691,-2.51418250120972,2.65547111085974,-0.0272627686281761,-0.0011192906273927,0.0272857355550851,-0.0358756415615458,-0.329235969469939,0.332935101848413,0.0214920602727119,0.204320627810402,0.206297680043826,15.3963975638849,1.5979191534211,1.56109796119533,0.0625589151260816,0.240288327045149,0.124399874928038,0.453186442169456,0.0018604828593854,0.0082249449437683,,,,,2.96211416560549,-104.652706865072,2.03745867249982,HoldLanding,HoldLanding,0,0.749385165571363,0.0825213849083235,0.0533306012862933,0.943899693679259,0.34471116669865
15,1.75151945288117,2.71744275093079,-0.944848791056606,-1.44563267025502,1.75151945288117,-0.0736384704079929,0.0013034546446331,0.0736500055535603,-0.0527930718475451,-0.115398561662234,0.131666464106579,0.0084936030308294,0.171800490574015,0.173774722064638,15.3582380834907,1.0876242139947,1.02822072869732,0.176368607486111,0.240249386818791,0.141471599490843,0.499672274756797,0.155369091885427,0.040493929889621,,,,,1.78867162897179,-121.8764556945,2.13877900735096,AttemptLanding,AttemptLanding,1,0.501826798514572,0.230835243079317,0.222279140988854,0.89519120027865,0.337123733559625
16,1.75462907532784,2.50625872612,-0.996756509671038,-1.43059586155838,1.75462907532784,0.0065553636806371,0.0032648209821444,0.0073233768871243,-0.0538303341138717,-0.107758843817829,0.122645414660932,0.0079187515788005,0.118776767957512,0.119730893855464,15.4074248309398,1.9930710221791,1.70193674779392,0.0230699343436955,0.0688148019946049,0.122972468544407,0.509925901119513,0.0005584352574444,0.0042372408692173,,,,,1.79698325918466,-123.928221238646,2.12750721790608,AttemptLanding,AttemptLanding,1,0.491847265525185,0.170459290524207,0.104064582623811,0.959432828921221,0.345345569535819
17,1.86879973843594,2.69948959350586,-1.00954977207615,-1.56012856188315,1.86879973843594,-0.047968248733338,-0.0010993531202942,0.0479808447594088,-0.0553513673437414,-0.129427884298598,0.142777592843253,0.0092117698242397,0.127522838881207,0.129875301176512,15.4049187619583,1.03355424945253,1.12346014409345,0.175484869608796,0.240241152830547,0.150782443889076,0.459567050205152,0.154796198697967,0.0419453547558665,,,,,1.90606506718967,-122.683382350962,2.14698955877668,AttemptLanding,AttemptLanding,1,0.524321657151552,0.195701705596624,0.201472190165265,0.895309594960598,0.332985580493744
18,1.78963525794648,2.69364833831787,-1.03499169790707,-1.43083047513373,1.78963525794648,-0.0699522122444049,0.0106447608294332,0.0707574938151579,-0.0621130551586377,-0.112317839086286,0.133661252832393,0.0086218206708697,0.182551448277467,0.184749463499032,15.4066895159561,0.884197328956291,1.05702196212703,0.17636375808796,0.240248789587207,0.163377002590814,0.471934543074556,0.158137933917165,0.0356238713600989,,,,,1.87952489310621,-124.36494621675,1.5,AttemptLanding,AttemptLanding,1,0.514185961485534,0.216375150283009,0.213062751395248,0.896565683668937,0.327387998848527
19,2.61681355441294,3.0,-0.775628411874826,-2.46669725708271,2.61681355441294,0.0071504502448256,0.0067111911109999,0.0098065806901331,-0.0398934056422066,-0.316882913042826,0.321223545950733,0.0207432234728768,0.197811379909161,0.200308491081694,15.3865044864182,1.94864236492749,1.98972670628386,0.018093718872785,0.0591034653810408,0.135583458359621,0.457938332783047,0.0005240357109544,0.0087301597816354,,,,,3.0,-106.031594526481,2.31984346852553,AttemptLanding,AttemptLanding,1,0.73787864605979,0.088014823383612,0.0562164023475497,0.960008812146947,0.339740685173502
20,1.90238277010016,2.6056272983551,-1.02309289288171,-1.59121522962458,1.90238277010016,-0.042375441407783,0.0147406792464764,0.044866085846126,-0.0568633900174249,-0.133887423543948,0.147478316142817,0.0095114225315276,0.129285558226553,0.13171686081591,15.4546110494189,0.886791295615954,0.843680967465807,0.176562794175802,0.240234396889064,0.146821244555108,0.409647030029014,0.159244342853442,0.0336915091262633,,,,,1.95533603544456,-121.682915799118,1.8815994546724,AttemptLanding,AttemptLanding,1,0.53364544418989,0.166455467929153,0.182900002112006,0.898122035130742,0.334746113531063
21,1.96043708356651,3.0,-1.08871796872027,-1.59953776527947,1.96043708356651,-0.0707388506186245,0.0130625016283075,0.0719347894668054,-0.0691216908042361,-0.139840923185195,0.161676947725653,0.0104304225937019,0.189301171311199,0.191823595467112,15.4014733232957,1.06037735103567,1.11119666715669,0.176614625199781,0.243944497153768,0.200238225242783,0.468718153099515,0.156419070216579,0.0404132276178956,,,,,2.01006102178809,-122.843348050567,2.06261643893293,AttemptLanding,AttemptLanding,1,0.561147941377825,0.247089700933116,0.232469126456574,0.894630320114313,0.31100523322543
22,2.61983834859918,3.0,-0.725526503712587,-2.48423639731258,2.61983834859918,0.0090435915239672,0.0040572092421155,0.0099119874135654,-0.0363757472024838,-0.321962204213606,0.325652501337517,0.0210254646849912,0.197788614702992,0.200261744730437,15.3715741525203,1.88673333162178,1.84481659192924,0.0307137379254329,0.0708429335833679,0.131322050745532,0.436230118926922,0.0230732331291911,0.0081858931934866,,,,,3.0,-105.373889448931,1.60889669101284,AttemptLanding,AttemptLanding,1,0.738675908572536,0.087353569257671,0.0656436002682383,0.955323810209383,0.341634644113097
23,1.68863403193049,2.5330171585083,-0.829078210383961,-1.44288687077084,1.68863403193049,-0.0769023723834742,-0.0081255238876168,0.0773304533586528,-0.0417105550186433,-0.113989662731994,0.124947087031702,0.0080590635916386,0.180903952231725,0.182816448589903,15.4220506795289,0.969241581185465,0.806367230915529,0.177011374728677,0.240221463708914,0.129029263564446,0.398740289989954,0.158608676888077,0.0342389786801838,,,,,1.75191981509009,-118.497538474994,1.70798518231138,AttemptLanding,AttemptLanding,1,0.486865698232777,0.204163453262428,0.205441354942932,0.897543100540582,0.342653660638024
24,2.65669931227066,3.0,-0.594129112107414,-2.55288619167722,2.65669931227066,-0.0126348897470397,0.0025930666083149,0.0128982337300502,-0.0293008339185142,-0.340004736914825,0.342525676588515,0.0220993361585463,0.196576504153795,0.198387577034114,15.3773359367859,1.24285210527579,1.08057689463306,0.0772000008680607,0.243098600951898,0.255974579417452,0.808127437751694,0.0849500009379103,0.122205391757374,,,,,3.0,-102.185830974197,1.87138523456798,HoldLanding,HoldLanding,0,0.748130665345667,0.079607330922943,0.129958278801579,0.943144485995257,0.28623352025891
25,1.55072768676925,2.77602791786194,-0.899134833315087,-1.24126868112986,1.55072768676925,-0.0388951707042998,-0.0189190704769827,0.0432523471250944,-0.050667234492125,-0.0917007475957525,0.108299673269286,0.0069841487842853,0.152521766340762,0.15370014528884,15.4583426754443,0.541963900746039,0.682428246138795,0.156525828309157,0.243145453717229,0.231985625122337,0.466924801813085,0.156021741164492,0.0403448961475322,,,,,1.79680657025774,-122.144595008979,2.16993923531598,AttemptLanding,AttemptLanding,1,0.444267412196236,0.283622148968788,0.254187156780756,0.912116861834184,0.296895277723406
26,1.850261562046,2.77361750602722,-1.04213262854663,-1.49548270887056,1.850261562046,0.0057435031052474,0.0036547234607175,0.0068077038342091,-0.0638197203171958,-0.121949959327376,0.14349602242123,0.0092623206717675,0.200426789742007,0.201522563906638,15.4347341070717,1.66637999340784,1.75578083345964,0.0272038906718484,0.0497470746709636,0.123143042192459,0.404890110747453,0.0104418264379733,0.004748772981263,,,,,1.89015622586425,-123.159855511628,1.92170295058574,AttemptLanding,AttemptLanding,1,0.533707595993594,0.209003166432047,0.131769538148079,0.95950964816726,0.345269759025574
27,1.72275726215259,2.55362772941589,-0.822841346024525,-1.50026374582017,1.72275726215259,-0.0484471559668494,-0.0060951225728734,0.0488290634812361,-0.0376290474299857,-0.118564592785941,0.125970113223371,0.0081277926279609,0.110806241901051,0.112815290975303,15.3855661814549,1.07587535053545,1.06973407515038,0.176312128292418,0.240530087875215,0.166223797424643,0.397090307674439,0.154749266396447,0.041348447407031,,,,,1.77620387229689,-117.832865156267,1.91770348374332,AttemptLanding,AttemptLanding,1,0.481964994769086,0.195897850105802,0.201351960852338,0.894985576080545,0.326122756700159
28,1.73563057264766,2.3141942024231,-0.980296700855938,-1.41851725484802,1.73563057264766,-0.0493094827043439,0.0002724641839714,0.0493102354618343,-0.0523152558892407,-0.106027417365494,0.120398356197313,0.0077678031605282,0.111453286343562,0.113438584824995,15.39753772766,1.01616883629011,1.1079680129718,0.17711698905606,0.240207085703129,0.153322928669306,0.49837488581651,0.158963448520754,0.0364146889048727,,,,,1.77693740749085,-123.63065316624,1.81875485202999,AttemptLanding,AttemptLanding,1,0.485522536337709,0.139217026534142,0.167422342541582,0.894751858799198,0.331856476146975
29,2.61831542082056,3.0,-0.517372698273616,-2.53155428232816,2.61831542082056,0.007368758124312,0.0057785083761872,0.009364280823869,-0.0234771709685058,-0.333366546450034,0.335085768591393,0.0216361937656517,0.199796358026822,0.202499265017765,15.3940260717077,2.06678470419468,1.78441065579925,0.0193432395580184,0.0527344473559247,0.133043467324181,0.422992850393159,0.0002227623198784,0.006484590830386,,,,,3.0,-100.208461528465,2.25313483802295,AttemptLanding,AttemptLanding,1,0.738717298555703,0.087595815133083,0.0550145275845826,0.960068988106753,0.340869570078142
30,1.84439308981638,2.58250951766968,-0.937238166423955,-1.57495372930839,1.84439308981638,-0.0436704951763822,-0.0006018828705612,0.0436746426652845,-0.0483225790934402,-0.13201798697502,0.142409005481943,0.0091856569319801,0.128535674467295,0.130789778791722,15.4547577475636,0.900122853793421,0.938794410391942,0.176712692148117,0.240222330921871,0.158766216829207,0.402715198147054,0.15842005317535,0.0365567546104227,,,,,1.90894849737311,-119.745808657761,1.9463011015427,AttemptLanding,AttemptLanding,1,0.517996113042712,0.174083214088962,0.188152206288636,0.897195018278771,0.329437236964797
31,1.90170840435737,2.7574155330658,-0.953529678534871,-1.61592731614027,1.90170840435737,-0.0803405647870881,0.000898154940562,0.0803455850224862,-0.0544014691044171,-0.143153834008205,0.157486839785665,0.010157846273677,0.192278256697615,0.194738497402012,15.404901905903,0.836733133475913,1.0367109541134,0.177021656780316,0.240286695686023,0.142068005227725,0.495613790812998,0.159730923887169,0.0363654787793465,,,,,1.95935225919259,-119.13516242978,1.77836604097336,AttemptLanding,AttemptLanding,1,0.546069940642367,0.207264127880185,0.208573808920959,0.896769253778783,0.336858664343233
32,2.62314002370356,3.0,-0.64409143353176,-2.51025980358723,2.62314002370356,0.0066936830331832,0.0068744697672796,0.0095949844778387,-0.0306239789897355,-0.328152891841764,0.330880327767036,0.0213765548349129,0.198212236314143,0.200851024500836,15.353544061567,2.2749462503202,2.29492218142088,0.0156351039281174,0.0602070449172422,0.150682686467521,0.49743816627261,0.0003284245575502,0.0085967460096036,,,,,3.0,-103.01941117063,2.43770571319383,AttemptLanding,AttemptLanding,1,0.739674211221116,0.0865525751543029,0.0552036010206418,0.956276338929404,0.333029917125546
33,1.87940993725053,2.85694408416748,-0.830235570811565,-1.65606866523773,1.87940993725053,-0.0903491669970773,-0.0125845080603211,0.0912213890498608,-0.0435483176279837,-0.14976885880891,0.15929678628307,0.0102746676589805,0.190510626606409,0.192870279236566,15.4242456075664,0.874263708453676,0.950340293088193,0.176263359628295,0.240279765384262,0.143399741117248,0.480870612196158,0.155242281507706,0.0400107609434277,,,,,1.93692079365451,-115.089103932968,2.33920293549842,AttemptLanding,AttemptLanding,1,0.539750039114122,0.236669104382121,0.225547399804045,0.897532145888023,0.336266781725668
34,2.68729115724564,3.0,-0.615795867174749,-2.57378547258624,2.68729115724564,-0.0350428328978161,-0.0074445891608399,0.0358248802549005,-0.0267940822142454,-0.341036101597939,0.343276563109538,0.0221577993429505,0.202660773422451,0.204761964029566,15.392673851531,1.78580081985835,1.36295313585711,0.0637445880677256,0.240420125325926,0.144569754005693,0.451122400288693,0.0018747740966436,0.0103635672442472,,,,,3.0,-101.157933097739,1.80065331743856,HoldLanding,HoldLanding,0,0.757563368071416,0.0769273843331303,0.0507582334387188,0.943387496314087,0.33574677599747
35,1.81036561047471,2.73889350891113,-0.815765228184112,-1.58902455698172,1.81036561047471,-0.0712003414496684,-0.0050741182266749,0.0713809169059045,-0.040471149007971,-0.137469339499896,0.146312036491316,0.0094375088431523,0.173664751487081,0.175809546503761,15.410120431657,1.02696580337066,0.894663217949601,0.175474861600031,0.240245524073401,0.171068101424179,0.423165169586811,0.15605898422162,0.0421019731039425,,,,,1.86137587595629,-115.841095627455,1.5,AttemptLanding,AttemptLanding,1,0.517926072094008,0.222005278580945,0.217872524092943,0.89716405546104,0.323969732700365
36,1.96704536377387,2.96773409843445,-0.89380332299498,-1.72106236897421,1.96704536377387,0.0080835779584651,0.0046055282832666,0.0093035005980841,-0.0490593789781247,-0.160480892165397,0.171693835051199,0.0110855283494624,0.208182365650838,0.209484493567917,15.4334664137733,1.8444016255035,1.83121595552567,0.0271154448908944,0.0501213919271604,0.131426799255007,0.429113719853166,0.0103948846302056,0.0093484425834528,,,,,2.00134863438598,-116.022448666907,1.95015516357399,AttemptLanding,AttemptLanding,1,0.566442329053282,0.226860607074946,0.144135746636213,0.957562425132181,0.341588089219997
37,1.78991096084182,2.53931069374084,-0.802965196957564,-1.5789029062677,1.78991096084182,-0.0620157576330966,-0.0073012348370798,0.062444072776791,-0.0376967350295675,-0.133166185509644,0.140505968004686,0.0090656012288595,0.142570494280253,0.144839472301792,15.3834131192623,1.18235654644375,0.998867835922353,0.177481736979274,0.241798317362373,0.185932766869674,0.378409214962831,0.159680604868211,0.0365939252340853,,,,,1.84847057739295,-116.145839673518,1.53602665710317,AttemptLanding,AttemptLanding,1,0.506277484018178,0.180063019911358,0.192313851569324,0.894120939934629,0.317363214724589
38,1.92674003098462,2.76915001869202,-0.762564308042671,-1.74841380122323,1.92674003098462,-0.0694404970376781,-0.0121832666316923,0.0705011674701823,-0.0352725660699761,-0.162542418019462,0.168079901366789,0.0108405680847398,0.159132396009679,0.161947381793815,15.4373563430296,0.811584433788324,0.870131494603652,0.176321191438342,0.240238583149046,0.141361860161589,0.471164949197457,0.159232890012968,0.0355364316704808,,,,,1.9993932608471,-112.620106358339,1.68324481931434,AttemptLanding,AttemptLanding,1,0.546186817954662,0.202467461270364,0.205172988890581,0.898625921986321,0.337172506594849
39,2.62992829223939,3.0,-0.632863880550146,-2.51992626972882,2.62992829223939,0.0077136610671611,0.0031109040036351,0.008317348783048,-0.0299425427008003,-0.330102841641278,0.332694460000577,0.0214826453449181,0.194002134523349,0.196657814176268,15.3947196474644,2.03462869195063,1.80899921357087,0.0207919112392877,0.0494393549395286,0.129085266197976,0.438172112467375,0.0005330082460638,0.0080844312696703,,,,,2.9987372183553,-102.731971335258,2.21538137903634,AttemptLanding,AttemptLanding,1,0.740645774099091,0.0847909815230294,0.0540512746565948,0.959404110836973,0.342628770578677
40,1.92274652951516,2.68883585929871,-0.293487271661592,-1.88754551558434,1.92274652951516,-0.0574734377675745,-0.0289594894696535,0.0643571913554828,-0.0073410417305372,-0.18761055078715,0.18791563702213,0.0121214050189253,0.13372080977418,0.136947802555463,15.4023407192123,1.04809235383203,0.726457894485793,0.175906488257859,0.240232960411405,0.152422669776582,0.47253527059973,0.156391151901066,0.0405600765647602,,,,,1.96262077332345,-97.9255988407311,2.363032422048,AttemptLanding,AttemptLanding,1,0.540121968381801,0.18416891761647,0.1947576479434,0.898103861062859,0.332256591210408
41,1.86224706430693,2.72719526290894,-0.270447255983221,-1.81762990325725,1.86224706430693,-0.0654351252865439,-0.0279076988937612,0.0711378610784056,-0.0086785012299019,-0.179196754896379,0.179694693016222,0.0115905781472167,0.183358336319442,0.186157025772337,15.3901279382598,1.01257281410334,0.832997198483395,0.177193577170064,0.24029513995513,0.14043074737669,0.455096629442351,0.157373499889348,0.03628427150836,,,,,1.94919332297993,-97.076725643542,2.03477786099654,AttemptLanding,AttemptLanding,1,0.533830622302982,0.207655285883159,0.207731229806989,0.896902304173215,0.337586334499249
42,2.618763568808,3.0,-0.626387092775865,-2.51092404067617,2.618763568808,0.0062211106849009,0.0077818652461756,0.0099629134726457,-0.0291966512573489,-0.327729459761709,0.330182642193285,0.0213253110519699,0.189253054806916,0.19197130335841,15.3806189223081,2.14814293424944,1.99777841781644,0.0258180196925114,0.0507703971041066,0.135890980782506,0.4205460185375,0.0072700088466244,0.0076396108418696,,,,,2.97766096785849,-102.83550377438,2.0131964734681,AttemptLanding,AttemptLanding,1,0.736731212353816,0.0876047311548509,0.0585719940419891,0.954515893816084,0.339604008541109
43,1.83149210558642,2.59722089767456,-0.249657578410643,-1.80301987820504,1.83149210558642,-0.0482168838589534,-0.026303758792676,0.054924999915258,-0.0056951186900603,-0.171239927171465,0.171430775102853,0.0110581934245712,0.121740852900886,0.124542266287845,15.4077233931571,1.05995433551221,0.778807077582129,0.175880451042246,0.24025137946585,0.171361199901055,0.401307453998298,0.156127850878828,0.0398352965670257,,,,,1.87761184680711,-96.9149867627548,2.23451544009283,AttemptLanding,AttemptLanding,1,0.513306348080613,0.18235856153763,0.193290855256733,0.897612363375993,0.323839466710642
44,2.49930663903554,3.0,-0.628393422585509,-2.38502223914916,2.49930663903554,-0.0236776059975841,0.0080758360104688,0.0250169573098892,-0.02969516067455,-0.307984915924616,0.310803679358,0.0200698044987794,0.219575604004006,0.221355585405774,15.3900886343963,1.94515584101878,1.62002036060604,0.06330072368306,0.240394862871475,0.140972759793136,0.402339539030401,0.0019202184843189,0.0094721487828444,,,,,2.70268226585959,-102.84402520654,2.12741393156372,HoldLanding,HoldLanding,0,0.710752887490633,0.117242448390483,0.0746433172109808,0.940337539431418,0.337345440091939
45,1.68195184743082,2.51256561279297,-0.249681423260983,-1.64816567199979,1.68195184743082,-0.0508101500800513,-0.0265031324487157,0.0573069575248198,-0.0062325884719072,-0.145056852563613,0.145335134881497,0.0093737755076816,0.12944817648506,0.131791809168938,15.4639765641712,1.03037586787641,0.556685887797819,0.175630771980011,0.240228156621765,0.139601242244877,0.3696479737361,0.158443744470332,0.035373958017522,,,,,1.74484723470437,-96.8322370152764,1.59735472106541,AttemptLanding,AttemptLanding,1,0.474878854482007,0.1973943727527,0.201719323099351,0.899714843072554,0.337955003446722
46,1.67232403448194,2.599928855896,-0.231485362322258,-1.63388974657117,1.67232403448194,0.0020406970009221,0.0029914621680632,0.0036212277134317,-0.006846627494528,-0.144616280274905,0.144992281771227,0.0093594611515016,0.177593058576187,0.178724346927694,15.4150360401402,1.67996448847255,1.76181482726508,0.0297185236945085,0.0484657347021158,0.12071254696661,0.417894430635639,0.0228633098396935,0.0061106427886855,,,,,1.71876069037497,-96.5690723186371,1.5,AttemptLanding,AttemptLanding,1,0.48169794524739,0.209374976565625,0.138008508902397,0.958098186386236,0.346349979125951
47,1.77913589951415,2.45824813842773,-0.138171351992615,-1.76263577931258,1.77913589951415,-0.0541958189147632,-0.0066434786828602,0.0546014889618536,-0.0027361829008486,-0.163564783114428,0.163633683508721,0.0105538323874835,0.124164463392095,0.126774747854943,15.4295778487293,0.897729480638419,0.616034513375176,0.18394447904293,0.240234017681746,0.121816132564153,0.408979364089911,0.119171086170415,0.0047167591174155,,,,,1.8330973949862,-93.5355183886098,2.29567398466151,AttemptLanding,AttemptLanding,1,0.499791189441427,0.162810526731897,0.152366428359595,0.896133900525571,0.345859496638154
48,1.63262336394366,2.60822534561157,-0.201867202714654,-1.60467709168598,1.63262336394366,-0.0409247672821227,-0.0178501453383008,0.0446482280241262,-0.0049513245060877,-0.145060631619741,0.145263573958093,0.0093683037012206,0.146241319502012,0.147580841694676,15.4716099535144,0.714065626862382,0.755424125080485,0.169887048662019,0.242622471510533,0.229304034021269,0.503491288835067,0.154686037679338,0.0049181100903576,,,,,1.76093856199151,-95.8152911333806,2.11925228143565,AttemptLanding,AttemptLanding,1,0.464882398723911,0.22769595434637,0.207155326356748,0.903510484760868,0.298087095990547
49,2.51308783888817,3.0,-0.671404780697953,-2.39041586397136,2.51308783888817,-0.0045078362877347,0.01368470404933,0.0144080433409525,-0.0330318998833058,-0.309002013811664,0.312115239438988,0.020139840580088,0.195677199498851,0.197618037759677,15.4212561628081,1.49519641824723,1.146320162851,0.0259013315994124,0.0617895459747289,0.147773102327631,0.642751211143348,0.0098055765277057,0.006282352938102,,,,,3.0,-103.690253195533,2.02773870674766,AttemptLanding,AttemptLanding,1,0.70968036458878,0.11219671086267,0.0739605525074074,0.966294561063093,0.334323065632164
50,1.70585788021217,2.49742937088013,-0.178895537119614,-1.68117978163412,1.70585788021217,-0.0479018965840382,-0.0179368521634672,0.0511499986498726,-0.0042922993334008,-0.151227254483356,0.15138486464378,0.0097636912422917,0.13474132626724,0.137253259538209,15.4708766505787,0.908273105421364,0.635732758980549,0.176219732454922,0.240221775823285,0.146947335803496,0.380882736596501,0.159153301972098,0.037005943806023,,,,,1.72627812567413,-94.411640590645,1.76882987601773,AttemptLanding,AttemptLanding,1,0.482346086630886,0.187481085152768,0.196680158806703,0.899758659123667,0.334690072976224
51,1.59642726344031,2.22176504135132,-0.142208678506377,-1.57402678253866,1.59642726344031,-0.0497104725923204,-0.010246555162301,0.0507555216508107,-0.0031660308924527,-0.131424152583302,0.131544204252573,0.0084845873049701,0.127677429462092,0.129868594082223,15.4505389484957,0.935396372882831,0.66482143228663,0.177198990338612,0.24016913555438,0.147649837940152,0.367949012697862,0.15864640583234,0.0338522937782333,,,,,1.64198518080473,-93.7945426045898,1.5488659553637,AttemptLanding,AttemptLanding,1,0.451687655733861,0.150006178999292,0.172823146113104,0.898827364932934,0.334377849804377
52,2.62310165306398,3.0,-0.634140005879734,-2.51056884720695,2.62310165306398,0.0065910991411629,0.0045078514975572,0.0079851933610068,-0.0305844240669415,-0.328133761236776,0.330921597064299,0.0213745399052082,0.198610482249589,0.201207422823012,15.3805936111802,2.18920808805944,1.97478487391623,0.0280098241478569,0.0525065843596878,0.144826883213564,0.384867157093501,0.0137466422696758,0.007383897133318,,,,,3.0,-102.899260755177,1.87273071840908,AttemptLanding,AttemptLanding,1,0.739735258714996,0.0862660801767902,0.0605543203956214,0.953278000367691,0.335632496349527
53,1.71520533897733,2.42200374603271,-0.141836673833594,-1.69239307835177,1.71520533897733,-0.0583647923977348,-0.0149597439563949,0.0602514973330255,-0.0033138455907227,-0.15177263756457,0.151888913278117,0.0097967409699427,0.136272863909462,0.138798956815202,15.4661915713479,0.977504058361635,0.614702954467685,0.17594124234772,0.240210553067696,0.150011452484891,0.374482531915944,0.155424168886265,0.0423857346925294,,,,,1.76767167051157,-93.7767495596924,1.78894106920026,AttemptLanding,AttemptLanding,1,0.485147881756994,0.17007574943185,0.186535852486653,0.899519180868195,0.333328243340048
54,2.60975992208303,3.0,-0.551386100994204,-2.52054292058334,2.60975992208303,-0.0166251755095073,0.0151930975442584,0.0225216934023903,-0.0247543334542959,-0.33880265342159,0.340634310891279,0.0219893913785538,0.195808647766392,0.197769675281926,15.3954372567935,1.8355661034297,1.41702531649701,0.0634538408994687,0.240492282220387,0.133269368374423,0.412497727875172,0.0019194431857493,0.0104930404060718,,,,,3.0,-101.106544404973,2.33962593642248,HoldLanding,HoldLanding,0,0.735489914278528,0.0919329946550889,0.0598285337101398,0.942717004107984,0.340769169611368
55,1.64210881896921,2.55442714691162,-0.164400256738761,-1.60860431982967,1.64210881896921,-0.0611389451804873,-0.0226933244248062,0.0652147037962462,-0.0048056623547511,-0.141071101812848,0.141355804275994,0.0091163226454726,0.169593239484233,0.171854164303386,15.4203989968372,0.855378173673364,0.663768099579807,0.176803159640599,0.240248518773958,0.141535299427953,0.443379991847153,0.15864323751587,0.0377784370232642,,,,,1.6954412846166,-94.4207914550518,2.14481830941809,AttemptLanding,AttemptLanding,1,0.472266517919133,0.217227652816354,0.214582310715426,0.899662270889854,0.337095422476465
56,1.70026520482673,2.43769240379333,-0.105097149490152,-1.68160720499968,1.70026520482673,0.0017766353275781,0.0048749273643263,0.005188578793336,-0.0022588210783216,-0.149695438314538,0.149771104290436,0.0096706780186026,0.138085870310548,0.13926626145305,15.3928442754737,1.75172583071558,2.04020413181698,0.0191911086547078,0.0525538575005311,0.125549721639938,0.437609810992304,6.85172766582542e-05,0.0072024440693583,,,,,1.73280982852964,-92.1431804697514,2.28698259967849,AttemptLanding,AttemptLanding,1,0.48125730691107,0.166872359212932,0.102772938221394,0.960610710252747,0.344200123715583
57,1.57707114587694,2.192458152771,-0.191068020681374,-1.554270905475,1.57707114587694,-0.0447475577679908,-0.0194375856122875,0.0487869209997381,-0.003776831118959,-0.127642405437577,0.127764110842817,0.0082393670692464,0.104040268975613,0.106117517488679,15.4775902783681,0.766029519980707,0.553730664869656,0.175796815619198,0.240184131462242,0.128792058514058,0.372946773530592,0.155534533439764,0.040036376360998,,,,,1.65239533729994,-95.8334835366937,2.3772509719673,AttemptLanding,AttemptLanding,1,0.44177580906492,0.147406345401114,0.172128948860321,0.901732047880862,0.342759085104863
58,1.61930261834248,2.29206371307373,-0.0942368794852745,-1.60118191233377,1.61930261834248,-0.0433666289019686,-0.0204200597020162,0.0479337390629499,-0.002037401574535,-0.137164750072522,0.137245684960155,0.0088522050784096,0.13025051154467,0.132407427029559,15.406310662464,0.8103288703664,0.752942071286059,0.177044661195673,0.240196404096046,0.133747606624364,0.421898885482084,0.158514693962161,0.0363368996212304,,,,,1.68060545220575,-92.4282145747537,2.43222302848569,AttemptLanding,AttemptLanding,1,0.458295516963906,0.160159098476073,0.179759852224021,0.89919482628918,0.340556619278061
59,2.52792608977162,3.0,-0.512798864086138,-2.44592190228893,2.52792608977162,0.0064254407791353,0.0074607436227391,0.0098462675471682,-0.0219523675450396,-0.313933822127722,0.315473552743267,0.0203701027485429,0.204308869331681,0.206725265060042,15.3758353452112,1.94804065676435,1.89280474038873,0.0295084718300696,0.0714645015522709,0.127494510567617,0.468803748002943,0.0239116863737762,0.007577578169527,,,,,2.78982386220964,-100.41262924442,1.50657143413393,AttemptLanding,AttemptLanding,1,0.715458676951106,0.108021778851701,0.0781959664478803,0.955067693107334,0.343335773081059
60,1.65341673601394,2.27408766746521,-0.0807224945746731,-1.63617834830008,1.65341673601394,-0.0562951933820972,-0.0209713002529857,0.0600744890301083,-0.0015362122840845,-0.14254211033328,0.14260433872693,0.0091984666185668,0.124095933452396,0.126340043213487,15.4200463181966,1.04065968657696,0.761050413839005,0.175701176363465,0.240211331521004,0.121426790087314,0.435765340716733,0.156218043436025,0.0405808663998659,,,,,1.72864210057146,-91.9462754292346,1.87521828835427,AttemptLanding,AttemptLanding,1,0.466179138246414,0.150664615898723,0.174585689757216,0.897993118172142,0.346032537738971
61,1.59401276143822,2.21898341178894,-0.17964460116471,-1.57250634136081,1.59401276143822,-0.0417357841089135,-0.0111333742304503,0.0431952277102586,-0.0034847576890334,-0.130697433311505,0.13080737666851,0.0084383510242073,0.111779126206561,0.113982778305052,15.4030233855409,0.946845236657692,0.853193970745766,0.176490980104118,0.240190293000615,0.155103086541697,0.452143742943685,0.156031120858974,0.0407826956857741,,,,,1.6541677253945,-95.777639022521,2.27089766259522,AttemptLanding,AttemptLanding,1,0.447866625377868,0.148537521409127,0.17329974883015,0.897611344746914,0.331065294870357
62,2.60092804224595,3.0,-0.533119794070203,-2.51052515577926,2.60092804224595,0.0062382049438343,0.0067475846923859,0.0091894015094673,-0.0245307527592317,-0.32863750037388,0.330514644806172,0.0213454316502052,0.20647439096948,0.209068318598947,15.4196088556824,1.90577791201026,2.09453368400509,0.0192226174035971,0.062163926503833,0.141314852202134,0.456187239315178,0.0002825697743951,0.0069336725933888,,,,,2.96888331606625,-100.576107342626,2.26836834749307,AttemptLanding,AttemptLanding,1,0.735394474985375,0.0914759141047308,0.0575324705177413,0.958957671615224,0.337193399021274
63,1.57521137192443,2.4041576385498,-0.0996676341490916,-1.55634084738831,1.57521137192443,-0.0498322481283055,-0.018576548033858,0.0531821501104952,-0.0020431928141437,-0.129496580249877,0.129577470160779,0.0083576256685894,0.135532079700882,0.137776076777739,15.4496988081067,0.917199117543071,0.678955650614158,0.175713553330642,0.240181841716932,0.151995593633268,0.409392795670627,0.158949755474193,0.0359249526879732,,,,,1.60300708299886,-92.1234906695166,2.16277892185723,AttemptLanding,AttemptLanding,1,0.447611581202061,0.196262970844301,0.201465737432152,0.899602007299158,0.332446402829659
64,2.62568451600916,3.0,-0.60470766915217,-2.52419100341719,2.62568451600916,-0.014337802162411,0.0089174003165135,0.0168846853465913,-0.0286633503770224,-0.338156118618381,0.340487497674098,0.0219757440960602,0.200232898560218,0.202286606202032,15.391646777123,1.69363415558874,1.33650880195296,0.0627017846264416,0.240406741893168,0.123366138699635,0.42369285615968,0.0019318425944453,0.0095974220192341,,,,,3.0,-102.201792877698,2.25228809411196,HoldLanding,HoldLanding,0,0.74063985884285,0.0873165095448135,0.0567384740788883,0.944840841591809,0.345170605022384
65,1.50852069097596,2.16512632369995,-0.12623507274152,-1.48883545278134,1.50852069097596,-0.0449447067804611,-0.0191552287546411,0.0488564167354121,-0.0025562705994648,-0.11775524887206,0.117848211984677,0.0076019809073713,0.123711691467827,0.125678267987062,15.4360654480974,0.976864133459771,0.784777571769444,0.176144144534244,0.240164710649961,0.119063371827706,0.454378303531571,0.158393573560335,0.0364369211848493,,,,,1.55228808798252,-94.2268777224065,2.05769646711248,AttemptLanding,AttemptLanding,1,0.427407837857669,0.156693277097723,0.177662899584991,0.898086457191791,0.347082945854353
66,1.57667215572153,2.17943286895752,-0.114817198468192,-1.56270618526746,1.57667215572153,0.0007853571450812,0.0035070625385983,0.0035939217430224,-0.0019839140029003,-0.127765594111691,0.127814074551155,0.0082510070868794,0.104963814146592,0.106008136260323,15.4248167117424,1.65727634029258,1.81238050659982,0.0292480548560136,0.0508804729101371,0.121358614212181,0.378512811285346,0.0204381426166579,0.0050921817634545,,,,,1.60696450398557,-93.5145725727472,1.76986543477792,AttemptLanding,AttemptLanding,1,0.441647535444473,0.136280046130985,0.0927033490787659,0.958114383060696,0.346062838127919
67,1.66316802469676,2.63652014732361,-0.129543759464715,-1.63481876254115,1.66316802469676,-0.0691239372711043,-0.0352264014265434,0.0775823308577639,-0.0034844870141812,-0.146443385408197,0.146614711459884,0.0094584235429997,0.174681919285207,0.177033694494827,15.3818422490805,1.1066844657142,0.842931593146547,0.17629769150463,0.240247655545759,0.145539751421541,0.411648762981624,0.155804694745212,0.0408864797046623,,,,,1.70472744872138,-93.0615211949791,2.36872543999382,AttemptLanding,AttemptLanding,1,0.478918212151435,0.233227654914964,0.224050934748546,0.896532742356636,0.335315666034871
68,1.60158069633149,2.15624499320984,-0.128821341770857,-1.5851222146314,1.60158069633149,-0.0371661837421652,-0.0073425733282291,0.0378845429830796,-0.0023921237722549,-0.132952124602077,0.133019678196608,0.0085809774807361,0.113895275467736,0.116085370047545,15.3842603191315,0.992793640499439,0.833420701444266,0.176655637917047,0.240184809836092,0.168934188182927,0.470827373334047,0.157467564459108,0.0367813559095152,,,,,1.6346567991892,-94.1375227104005,1.93841377150674,AttemptLanding,AttemptLanding,1,0.450305259697906,0.131744966344527,0.162407602523315,0.897323354069062,0.324918138585366
69,2.60955605618531,3.0,-0.398975946912338,-2.54493287285236,2.60955605618531,0.0078444950650509,0.0022478397577629,0.0081602013701984,-0.0169974407746519,-0.337228713499335,0.338220553481897,0.0218458335401769,0.201514116657662,0.20422645623499,15.3781098310525,2.21300630842625,2.06682630195991,0.019093945475543,0.0513577615408503,0.13699850208494,0.41251213614206,0.000173704648004,0.00603018915685,,,,,2.97762147861884,-97.4745863886534,2.2813638786393,AttemptLanding,AttemptLanding,1,0.736726906229747,0.0893459242761747,0.0558775526885208,0.956825771037766,0.339111776851138
70,1.69858062508944,2.41486477851868,-0.0860097789024813,-1.68596999923213,1.69858062508944,-0.0388546165640168,-0.013752068188351,0.0412165089229283,-0.0015073460105486,-0.150341188488176,0.150377128718389,0.0096992294119313,0.110667816576898,0.113094568211799,15.4712699967568,1.06049956247741,0.627206256354174,0.176098375320403,0.240200548466968,0.151001887416447,0.369256517852345,0.158558256950147,0.0378952182263843,,,,,1.74106956136438,-91.9626622500687,1.74554810023587,AttemptLanding,AttemptLanding,1,0.475573746999544,0.168720294490782,0.185482592471806,0.898690266620407,0.332888050037135
71,1.55984397591117,2.54984879493713,-0.190529033128347,-1.52411395668664,1.55984397591117,-0.0693167635643463,-0.0229721806227633,0.0730242069015497,-0.0060819130897056,-0.13638130965584,0.136727306895288,0.0088186530391348,0.185337126444438,0.186542676791115,15.4510554214358,0.758424133886277,0.71383500496149,0.169774613332814,0.241546994678048,0.240818002284826,0.484848556723196,0.156257586610088,0.0048880632243773,,,,,1.67774962146967,-95.9395937551425,2.13064472157579,AttemptLanding,AttemptLanding,1,0.453266928934534,0.236138855546127,0.212908607134964,0.903544942956932,0.292969776762299
72,2.52127958160557,3.0,-0.526109064777164,-2.43238543136208,2.52127958160557,0.0083809145996351,0.0021357849242491,0.0086487748709876,-0.023881252864713,-0.32041874766856,0.322440774908511,0.0208000603696671,0.198210997347696,0.200367175764958,15.4528758061869,1.26004011587645,0.854988196073436,0.0222584854877534,0.0601764018276703,0.235893576757165,0.534747891875174,0.0117963279213237,0.0058274350078333,,,,,3.0,-102.28205700878,1.50335951890037,AttemptLanding,AttemptLanding,1,0.712414656914477,0.109297702865094,0.0729405014041095,0.972252677662231,0.295158410330149
73,1.67274351256925,2.64353108406067,-0.181446774379593,-1.63804003037666,1.67274351256925,-0.061359077579595,-0.0193212152262477,0.0643291983413266,-0.0052696835982239,-0.146685949694642,0.147002181071763,0.0094801973615712,0.173178080821415,0.175427231128345,15.468021357287,0.748212153399796,0.654179582342609,0.176436270952416,0.240264484104939,0.123624741296706,0.405925201022259,0.158727789142134,0.0361900925595657,,,,,1.730743683828,-94.7490683234343,2.08856181785199,AttemptLanding,AttemptLanding,1,0.481150382910802,0.230220889948146,0.221838251690082,0.900763072314388,0.345055670534797
74,2.66792137884512,3.0,-0.583586792997716,-2.56486000828033,2.66792137884512,-0.0253538051661101,-0.0115042264423579,0.0278417431645025,-0.0266990027954821,-0.335797792565838,0.338057851882049,0.0218206527683173,0.20911591748577,0.211118362483844,15.4020326057687,1.74220066682126,1.36430940276921,0.0636821942106949,0.240342917972163,0.127511396350425,0.410068328382534,0.0018403120555149,0.0093792405601512,,,,,3.0,-101.440236798872,1.53239811816727,HoldLanding,HoldLanding,0,0.753669373522135,0.0798220093400064,0.0521217550040857,0.943750609490727,0.3433282682887
75,1.67002624676034,2.35871911048889,-0.170281616911598,-1.64446023576126,1.67002624676034,-0.0545233805234598,-0.0216271767143573,0.0586560635939715,-0.0039803234499446,-0.143761301508533,0.143912434289939,0.0092829342736395,0.132819088437312,0.13514356462322,15.436529285885,0.970041597029596,0.770402909127084,0.177047791410608,0.240198283083244,0.150488124121516,0.418215589378258,0.158124495294619,0.0362527615578546,,,,,1.72844746755899,-95.0560971705178,2.24347180571879,AttemptLanding,AttemptLanding,1,0.472369045394069,0.165709505997818,0.182886079447641,0.897801183174894,0.333116389279326
76,1.76469922065735,2.51703524589539,-0.234573950603477,-1.7307152238697,1.76469922065735,0.0027842259878976,0.0035502535825725,0.0045117862152648,-0.00612111387663,-0.15787245456671,0.158150729592504,0.0102078474204039,0.146301241777239,0.147573452835824,15.3665123489374,1.49954597003842,1.77349914883102,0.0289512538114137,0.062935108659352,0.117541686780361,0.430406781840941,0.0198738854645471,0.0060502946007744,,,,,1.80133462105751,-96.2777836497926,1.76436939862285,AttemptLanding,AttemptLanding,1,0.500101149409124,0.17010276648469,0.113094605002612,0.959807590017462,0.34775925031984
77,1.6994785988653,2.54185175895691,-0.150513087350931,-1.67334416402084,1.6994785988653,-0.0562090300039217,-0.0335079122881341,0.0654387900246564,-0.0039430363763523,-0.152452088965466,0.152611675795598,0.0098434034494441,0.166651401464816,0.169116091318133,15.4378244881298,0.902594662621928,0.704665513033623,0.176206387069494,0.240225753627576,0.125582554054999,0.362713095513089,0.159176190669441,0.0358904959513044,,,,,1.75923009576763,-93.8331549635916,2.117325922985,AttemptLanding,AttemptLanding,1,0.487017511294374,0.201531072525132,0.20471470658278,0.899268333656531,0.344185531531112
78,1.77312653496761,2.81001234054565,-0.208449524310061,-1.73289274932916,1.77312653496761,-0.0805094957295407,-0.024116315787407,0.0840438908534277,-0.0067820039472801,-0.164123841875309,0.164519036807195,0.010611177585416,0.185687650296207,0.188452221999198,15.4186085871972,0.913960513321545,0.595047050599176,0.175697556125132,0.240242165858081,0.110687538203134,0.432365971828121,0.156040347325206,0.0406611862916415,,,,,1.84421771642335,-95.6415120879709,1.56943525537618,AttemptLanding,AttemptLanding,1,0.51052418705787,0.248707352911521,0.233361563149015,0.9002947339352,0.350805538576385
79,2.6180381735033,3.0,-0.415194014986447,-2.55110627364561,2.6180381735033,0.0104876864740778,0.005046973379358,0.0116388791500944,-0.0178649653092971,-0.339690901098998,0.34074281510062,0.0220073011764626,0.202908433431969,0.205560133008502,15.3842005675095,2.05457236467016,2.11996938908686,0.020649574636709,0.0737258256046486,0.133540804926942,0.487454246397492,0.000132285490905,0.0092670077867846,,,,,3.0,-97.5958361626102,2.23284918212499,AttemptLanding,AttemptLanding,1,0.739255539535914,0.0880752054726077,0.0562737378484542,0.956875241759269,0.340648531143581
80,1.81701111473493,2.54691457748413,-0.222088138486258,-1.79169282710587,1.81701111473493,-0.0490583939848433,-0.0168881855069406,0.0518838783254389,-0.0048184157009342,-0.169011917005435,0.169163355257484,0.0109099760223519,0.120724416116753,0.123432387907918,15.4584589161746,1.00401846557822,0.463611733003097,0.176680100206743,0.24022831107059,0.1230105226009,0.388658629197442,0.158010338814849,0.035303309672406,,,,,1.84269174465958,-96.4089816842801,1.6893073243351,AttemptLanding,AttemptLanding,1,0.509222774844232,0.173740323478234,0.187308578491586,0.900128569764918,0.345328656621822
81,1.84441771942216,2.71176409721375,-0.220995892621527,-1.80650130584787,1.84441771942216,-0.0727479295086461,-0.0335940185511089,0.0801300151641518,-0.0071470654509565,-0.176709391046943,0.177096475455615,0.0114242162676366,0.188523741085966,0.191381666149132,15.4080179283998,1.12470909502296,0.773757902087695,0.17696297942433,0.240265497599763,0.14100469803114,0.401842169921894,0.158989665417498,0.0362538684208872,,,,,1.90149022471625,-95.3637271300002,1.54757861030253,AttemptLanding,AttemptLanding,1,0.530121058409069,0.209843437783201,0.209751361069131,0.896601983881966,0.337331245319494
82,2.58616286336778,3.0,-0.405355350590789,-2.51978854545969,2.58616286336778,0.0098672259732569,0.0098938923498834,0.0139732334925885,-0.0174570116215423,-0.331132317914177,0.33220003672622,0.0214508938140228,0.203744735301259,0.206451546680529,15.4075487005987,1.79593032763734,1.97469323310517,0.027877389255567,0.0542198179110086,0.125022511878672,0.452497656028474,0.0111733970098109,0.0063535097787167,,,,,2.91783086718893,-97.7855854258006,1.89531623657606,AttemptLanding,AttemptLanding,1,0.730933739567513,0.0956751152158917,0.0646813905483783,0.956434977394954,0.344434439165035
83,1.67646397046141,2.60104990005493,-0.318422422446655,-1.62255909421799,1.67646397046141,-0.0728756027909202,-0.0261241025164417,0.0774165500034039,-0.0099649171599272,-0.143744953723477,0.14446382116585,0.0093189775780943,0.165242705379698,0.167488867683851,15.4139934317437,1.06524297667373,0.773915434794862,0.177526996491895,0.240230104402984,0.13806072767826,0.374393428681546,0.159084677720725,0.0381450649259367,,,,,1.75027764965131,-99.5200046041142,2.32546296877845,AttemptLanding,AttemptLanding,1,0.480554832326479,0.222224868325834,0.217910154905052,0.896785971378228,0.33863967658744
84,2.58594834015443,3.0,-0.406742100216318,-2.52270238247032,2.58594834015443,-0.0142452648075108,0.0138023197643086,0.0198351102924166,-0.0180173739087225,-0.344002497593611,0.345034613744561,0.0222731220297544,0.201863135932419,0.203873018817045,15.3882771500376,1.60393479152937,1.47320174905621,0.0625640117829552,0.240409599987993,0.133020751307036,0.394648150366714,0.0019353765694966,0.0074521160254798,,,,,2.95681470906161,-98.270421652992,2.20265791853807,HoldLanding,HoldLanding,0,0.73036082780459,0.096798060352197,0.0616488639484407,0.944540492718207,0.340879666085762
85,2.06624260444769,2.82412171363831,-0.474528200252642,-1.99607170196086,2.06624260444769,-0.0564841857947401,-0.0203378018466939,0.0600340689013339,-0.0151772226475599,-0.210373817572261,0.211292678203905,0.0136282709357784,0.14379867784414,0.147161970720902,15.4170748497146,1.02882618767759,0.760004825578192,0.176212980209772,0.240287475335762,0.127165516508039,0.438076242245462,0.155687089990894,0.0406921945248779,,,,,2.10680641889481,-101.731697741666,2.30224142513385,AttemptLanding,AttemptLanding,1,0.580430421996898,0.181529045533133,0.192908851183465,0.897838409076676,0.343481992663094
86,1.98290166408322,2.65894889831543,-0.542694840064783,-1.89273834976669,1.98290166408322,0.005747670118228,0.0037316861599779,0.006852823752625,-0.0184893873377221,-0.18695120986442,0.18842239377867,0.0121636452614195,0.139536261056751,0.141070329680622,15.3859038652837,1.76089999545741,1.64529638156413,0.0293260875143325,0.05786344946273,0.123000310058471,0.442249421320621,0.0209925948118205,0.0059668286501607,,,,,2.01104491577433,-105.279667622794,1.75883061904834,AttemptLanding,AttemptLanding,1,0.556987843024983,0.153366978723562,0.10351998524551,0.958573984709093,0.345333195529568
87,2.01944228466725,2.72668886184692,-1.16489717827945,-1.63391177813149,2.01944228466725,-0.0564386407239006,0.0060520999733605,0.0567622064480327,-0.073504549407605,-0.14150127897783,0.162375649912553,0.010474050576194,0.134539210912859,0.137054900808919,15.4467323370102,1.02526105385809,0.945102320975145,0.175538193645993,0.240283863881917,0.14621013577472,0.386504855670197,0.156239395973039,0.0406020615306083,,,,,2.06469467336038,-124.238920485483,1.85626885371129,AttemptLanding,AttemptLanding,1,0.565928922739718,0.169536884380899,0.185926248183242,0.896749476660456,0.335017717433458
88,1.98901162598584,2.81374454498291,-1.12829168012706,-1.62415673259391,1.98901162598584,-0.0535076760607048,0.0024037902669795,0.0535616430392585,-0.069659119430148,-0.13927771820234,0.158225652649995,0.0102060251412263,0.128064525074601,0.130656470818428,15.454698816906,0.861524075972283,1.05884087668254,0.175689252292658,0.240251124503509,0.19565476552299,0.454977120984146,0.159197412904195,0.0362744926094693,,,,,2.00959748573364,-123.70580417537,1.86279994261677,AttemptLanding,AttemptLanding,1,0.556534394426577,0.195384541331538,0.201175855119382,0.897066792082811,0.313042326434227
89,2.618300748908,3.0,-0.250395624761247,-2.57382723368499,2.618300748908,0.0060412265305328,0.00471652388455,0.0076643339923796,-0.0100431017649985,-0.344798624568876,0.345281386271904,0.0222922854507822,0.201119060918316,0.203917645279997,15.4211195880785,1.90300382994823,1.67195812441954,0.0287256543848576,0.0483268944215299,0.136103209271419,0.422578186545688,0.0200350266784404,0.0061126009050479,,,,,3.0,-94.0907171926139,1.52602156841527,AttemptLanding,AttemptLanding,1,0.738997062098133,0.0872874593943026,0.0634996959035826,0.957548186023253,0.339509684768258
90,1.94124181958653,2.6604163646698,-1.04761309441227,-1.61906945112257,1.94124181958653,-0.0588221515618941,0.0023287320182238,0.0588682300327022,-0.060105401124342,-0.138351082439777,0.153363845722983,0.0098918164274819,0.124316752569225,0.126714595599527,15.407931153621,0.962811378661591,0.889732037414252,0.176074670011052,0.240274306970919,0.152301839837632,0.436658542780824,0.155236630474309,0.0395843564127022,,,,,1.99637079272466,-122.311062912018,2.35899907972935,AttemptLanding,AttemptLanding,1,0.54300740434298,0.172606781483064,0.186952438301221,0.897406966725307,0.332310293405497
91,1.89750037322173,2.74742007255554,-1.15299546826226,-1.48553187393243,1.89750037322173,-0.0598527525412231,0.0125257916257953,0.0611493862815788,-0.0733442075292453,-0.118251944187223,0.143308823157239,0.0092489718875397,0.146600312443115,0.148873413872021,15.3467833443467,1.18971427877857,1.31019114398895,0.177108533946152,0.240271760556643,0.182332416338301,0.512319086534079,0.159037932027236,0.0366604970854091,,,,,1.94546366280019,-126.251978914843,2.19045887863191,AttemptLanding,AttemptLanding,1,0.535774782300199,0.202442653168397,0.205480207095716,0.891803618990893,0.318963370516311
92,2.61789412004094,3.0,-0.472568722748904,-2.54439771662318,2.61789412004094,0.0049617012327522,0.0034345046756179,0.0060344263596415,-0.0199513581716441,-0.33674836609768,0.337991358900711,0.0218264013673175,0.190931428402553,0.19363151594859,15.3776408078775,1.98851659640874,1.93807804588336,0.0234715712020291,0.052846265208433,0.140140055946879,0.458794430506217,0.0044728554971775,0.0061390808666116,,,,,3.0,-99.2513675644137,2.09884690851174,AttemptLanding,AttemptLanding,1,0.736831401867303,0.0870801344900551,0.0564684095129607,0.957412399352405,0.337715530690276
93,1.69276666399595,2.5927677154541,-1.02984427551457,-1.31059966261634,1.69276666399595,-0.0789993221156123,0.0031521546972757,0.0790621842220529,-0.0612236703344142,-0.0950983174782152,0.119083632030619,0.0076841203643904,0.175459101670563,0.177333132153349,15.3474179025341,1.08917629904881,1.22813547970614,0.177168120624499,0.241164242469532,0.160208502259978,0.443023044413581,0.158978038197541,0.034990653562431,,,,,1.74681180591764,-126.657123786368,2.33477854651843,AttemptLanding,AttemptLanding,1,0.486871070162923,0.216994970352127,0.213577762099552,0.893208489997533,0.328796221217787
94,2.63943666449944,3.0,-0.218539543720833,-2.59616740126654,2.63943666449944,-0.0097262123937725,0.0030372668431174,0.0101894159501452,-0.0095849037710105,-0.355441231415185,0.355887489432633,0.0229625681717191,0.198536146431121,0.200501401222102,15.3974243981855,1.38087125534906,1.08289132219231,0.0741753064942893,0.242861671270429,0.162013101001159,0.517157670045093,0.0538913119601005,0.116279714911099,,,,,3.0,-94.2734617915732,1.94436856228066,HoldLanding,HoldLanding,0,0.743950057444271,0.0829948100784863,0.116032112946526,0.94355421221503,0.327994177332818
95,1.63873550369416,2.8556809425354,-1.05226905372815,-1.22815020195118,1.63873550369416,-0.0586569839838,-0.0456264794877197,0.0743129692618932,-0.0715808144950746,-0.0938423974876657,0.123816159630869,0.0079865634837046,0.184119855213188,0.185322021320027,15.4488487181822,0.604247997309373,0.83969518086019,0.155630479105666,0.244347651236875,0.211376617535904,0.47771530854879,0.260203400934704,0.0511248950574308,,,,,1.86493072097439,-128.583435678336,1.96057052906759,AttemptLanding,AttemptLanding,1,0.474060538582447,0.28743676810396,0.30669888776333,0.910839492618692,0.306054836650709
96,1.7192462507299,2.70995259284973,-1.05863094244839,-1.32280797504284,1.7192462507299,0.0071117033009169,0.0019434298101785,0.0073724652096407,-0.0643133478843631,-0.0958590160401397,0.1213486177686,0.0078302187610385,0.183599570114072,0.184537333609749,15.4499780064628,1.46902370407436,1.39992044084685,0.0284333123084533,0.0522201588010463,0.103898898622049,0.405880098666225,0.0190697199090628,0.0054136837087566,,,,,1.76269102467469,-127.19753908103,1.5,AttemptLanding,AttemptLanding,1,0.495373133583255,0.22426054559873,0.145000370687663,0.963241639849964,0.353822711723534
97,1.76655684861561,2.50430870056152,-1.09264437654638,-1.367517490229,1.76655684861561,-0.0568197007777565,0.0120058267503052,0.0580742479282524,-0.0657147904558496,-0.100017639581883,0.12353240753332,0.0079681790994036,0.134667139818661,0.136701614278021,15.4105853704042,0.884356524203205,0.919890218264928,0.175939691138229,0.240226644884916,0.146663836625558,0.504588836143396,0.155167544948682,0.0399790761320213,,,,,1.81622668042125,-127.513201967813,1.59757460013861,AttemptLanding,AttemptLanding,1,0.4984221491531,0.176641112141344,0.189485866461521,0.897853930025779,0.334816072610863
98,1.87247032607162,2.77130675315857,-1.19219790314985,-1.41939305834045,1.87247032607162,-0.0672552639194358,0.014123985758843,0.0687223216909103,-0.0787845922186963,-0.10812721051123,0.13890158023159,0.0089604698075679,0.150241022445645,0.152518759310065,15.4433181823081,0.99924410090337,0.991701742177203,0.176461143493574,0.240262889902675,0.179080469297736,0.46632649082546,0.156216755862949,0.0396062371067538,,,,,1.91962505408224,-128.853168090004,2.02336924430222,AttemptLanding,AttemptLanding,1,0.529829172147778,0.214837288404564,0.21273431035398,0.896126282343294,0.320408680312118
99,2.6308777978189,3.0,-0.154807601761259,-2.59400244555742,2.6308777978189,0.0027780433557557,0.0045970798655264,0.0053712818001374,-0.005624232895859,-0.34954332476851,0.349815412836006,0.0225900539519904,0.198257639413224,0.201082921508318,15.4124352850989,1.95489952682591,2.00409738862655,0.0231944018551873,0.0518090147797396,0.133958425624362,0.404757715083215,0.0025158298766791,0.007353385930798,,,,,3.0,-92.2002194325483,2.11463239816422,AttemptLanding,AttemptLanding,1,0.741783997053371,0.084037230487439,0.054214443424611,0.957296394736708,0.340462921944728
100,1.64653755274395,2.31320714950562,-1.04297002586407,-1.25501533347004,1.64653755274395,-0.0473561532460688,0.0145274128235921,0.0495343413563986,-0.0598732067808805,-0.0846999953599566,0.107084540783531,0.0069070697890772,0.134885540963281,0.136570834826982,15.447352041827,0.908896193253608,0.862545111866715,0.17581404645137,0.240212373077148,0.135669401844434,0.362220924371545,0.155670980313669,0.0422432551732076,,,,,1.68546986904653,-128.540481584722,1.61040235567792,AttemptLanding,AttemptLanding,1,0.466390847697116,0.159081955186714,0.179997459173008,0.898174509376941,0.339702488069141
101,1.65559656072307,2.23843169212341,-1.06317147182832,-1.25637548377465,1.65559656072307,-0.0354994288917951,0.008200324594014,0.0364342527725052,-0.0609439071719992,-0.0837522796001223,0.105928327123214,0.0068346147569551,0.109384455657435,0.111127770798591,15.3804917130775,1.07113546941908,1.10585291450423,0.175396844718309,0.242184164482771,0.182950968258138,0.459552552792684,0.156161091468412,0.0408879220556857,,,,,1.69807149429304,-129.55767099295,2.2775567422695,AttemptLanding,AttemptLanding,1,0.463717970352538,0.137817517573369,0.166963775378515,0.89519666891002,0.318688458551939
102,2.62862258053145,3.0,-0.138608783088023,-2.59130149874055,2.62862258053145,0.0055014405132246,0.0068720791915093,0.0088029154338165,-0.0049496097113247,-0.349064503802901,0.349346937159581,0.0225647858657526,0.199152249499839,0.202042388344646,15.3611653239255,2.17344044661521,2.09485899779859,0.0168781532705076,0.0545792925445907,0.146033719694205,0.403807323357208,0.0005052739369261,0.005583738331164,,,,,3.0,-91.8482151525671,2.38164401800896,AttemptLanding,AttemptLanding,1,0.741374499143982,0.0851737872099571,0.0533592888224051,0.958024284872923,0.335096124580353
103,1.68013561657957,2.33398771286011,-1.06974171489525,-1.28165076952447,1.68013561657957,-0.0501406347378838,-0.0001482081915385,0.0501408537779915,-0.0616855789249836,-0.0872841601779839,0.109418566917981,0.0070566090634144,0.109717798710663,0.111425678474926,15.4674129447668,0.766425824750177,0.878466316993014,0.176255514292717,0.240197477279891,0.147389427209953,0.359225282437031,0.158253221711,0.0369162024388123,,,,,1.75398132014352,-128.600052606655,1.86560243832441,AttemptLanding,AttemptLanding,1,0.470321300116204,0.156309211522419,0.177544365732454,0.898948090311373,0.334493587906687
104,2.63409357782789,3.0,-0.342319627733756,-2.57866308793804,2.63409357782789,-0.016073152438935,0.0037775855945554,0.0165110987596051,-0.0149325979791935,-0.351853617853312,0.352643415624144,0.0227642183528019,0.201802803047991,0.203902699801987,15.4042307275174,1.76739613095657,1.40042702809664,0.0627765625601802,0.240307265439528,0.126454584237294,0.445235719087641,0.0018909129956852,0.0089436086504878,,,,,3.0,-96.2939600424606,2.16610863060464,HoldLanding,HoldLanding,0,0.743205494047834,0.0853559797613196,0.055306214960102,0.943721679613063,0.343797962561203
105,1.73211911079046,2.46560764312744,-1.09890863038405,-1.31749221719403,1.73211911079046,-0.0508184442279115,0.0188993849189693,0.0542190098033957,-0.0662474008112057,-0.0933378937973902,0.118452791873783,0.0076394392359426,0.130599426715824,0.13250581883909,15.4319376377002,0.674024827365618,0.931505050701377,0.176585295480471,0.240236778540674,0.133677344287787,0.443839048151598,0.1589411072472,0.0346906441060528,,,,,1.78074250763471,-129.221424924807,2.18802521513312,AttemptLanding,AttemptLanding,1,0.48839959331194,0.17497507157311,0.188240314728661,0.899092474646381,0.340587846983206
106,1.85054863695317,2.63668751716614,-1.07123147100696,-1.49350390549512,1.85054863695317,0.008345812200792,0.0039208107245288,0.0092209185024307,-0.0620554516530013,-0.117329822971123,0.135498298506341,0.0087514805172678,0.131095312703039,0.132158905686133,15.3806925282042,1.99887339878791,2.17675177954468,0.0157691633650643,0.0471266438374987,0.139348740910395,0.457604460854242,0.0003283569038705,0.0066764474258635,,,,,1.88415857146299,-124.959215831678,2.42519935112283,AttemptLanding,AttemptLanding,1,0.519911417658072,0.178571749773364,0.109716785329689,0.959306934773426,0.338067226262047
107,1.68094968475751,2.40546369552612,-1.02786876230144,-1.31004587808101,1.68094968475751,-0.0469210698946397,0.0239991768387556,0.052702441015531,-0.0581308736311468,-0.0923669167516876,0.112716462566355,0.0072703426964182,0.128089677273267,0.129873378408097,15.4467290387541,0.812115745672718,0.99751451016682,0.17586932867186,0.240190576602922,0.143666281042639,0.422023222105792,0.155410509894351,0.0408416138614181,,,,,1.72726488943798,-126.550224489005,1.90546542354806,AttemptLanding,AttemptLanding,1,0.47422792495029,0.172677766609118,0.1875294936459,0.897846812225331,0.336148319536605
108,1.67417155971398,2.3776216506958,-1.00706941817403,-1.32331378852617,1.67417155971398,-0.0465834976315584,0.0021277295665037,0.0466320649842743,-0.0554014080199471,-0.0939154941673015,0.111454395780684,0.0071896365436456,0.123196642006915,0.125014251322874,15.412788671174,0.893229742056051,0.958007933768616,0.176109934228207,0.240187956265549,0.143589105657474,0.432134522734063,0.157562667920077,0.0376464165015782,,,,,1.72684939224008,-126.925173742408,2.10682030133664,AttemptLanding,AttemptLanding,1,0.471448599521637,0.166825482384693,0.183812747840313,0.897399594004417,0.33618261970779
109,2.61363833046278,3.0,-0.301595597894052,-2.56342744751445,2.61363833046278,0.0020431068130468,0.0088032007846469,0.0090371803956945,-0.0122320301341438,-0.343219186173643,0.343804105038197,0.0221957447449211,0.199704584339088,0.202479946667091,15.3974870119293,1.81105638515739,1.78094464034823,0.0240176265188236,0.0512248425028186,0.120935597898163,0.422940321342505,0.0072624441985193,0.0049885579158698,,,,,3.0,-95.4171668207032,2.03830938030409,AttemptLanding,AttemptLanding,1,0.737466210790161,0.0885881920517509,0.0581946892684865,0.959768321540187,0.346250845378594
110,1.59547539645393,2.28953051567078,-0.938657313264207,-1.27332012076811,1.59547539645393,-0.0597814988126283,0.0017769852124879,0.0598079031293497,-0.04923805916686,-0.0868946789105884,0.102545794010736,0.0066138271483581,0.12399371588069,0.125496714613526,15.4533617263886,0.663556917909622,0.961718633664751,0.175789615089579,0.240178181522522,0.144938656330619,0.415510160200778,0.155276015245828,0.040742351912837,,,,,1.65985778043302,-125.136897277648,1.71441933740223,AttemptLanding,AttemptLanding,1,0.450559448643754,0.16712718406417,0.184103273465558,0.899335170264269,0.335582819408614
111,1.55196081947636,2.19254660606384,-0.936408997684023,-1.2251438537628,1.55196081947636,-0.037604885975732,0.0055708887616558,0.0380152896982589,-0.0477274093221421,-0.0798931513365607,0.0950719555982211,0.0061332965108407,0.109557466409153,0.111162771264098,15.4158514547312,0.902768055600034,1.03977056489675,0.176082394564657,0.240164159418033,0.148069673225195,0.488271008050501,0.158771020876718,0.0357399755873469,,,,,1.59306398738573,-126.486183134521,2.09138056664187,AttemptLanding,AttemptLanding,1,0.436088772779849,0.151101271760198,0.174222015982584,0.896695999270911,0.334191256344358
112,2.63718994046533,3.0,-0.241758581557856,-2.59619445499889,2.63718994046533,0.0056566376578362,0.0085660851570592,0.010265250338401,-0.0090865772655953,-0.350156873520326,0.350535555593885,0.0226326265805314,0.188630918690469,0.191557551898954,15.4220409906503,1.78093240279678,1.90497107065596,0.0285551286568755,0.0507927513961296,0.131199270146978,0.428733941880371,0.0226093712104252,0.0061364422441384,,,,,3.0,-94.1056534981467,1.6597275479721,AttemptLanding,AttemptLanding,1,0.741562161170547,0.0835142259573401,0.0623885785445827,0.956761765523005,0.34168921326801
113,1.71604884070838,2.49138832092285,-0.989193244380459,-1.3825466292574,1.71604884070838,-0.0554043045416417,0.0137038352081782,0.0570739175206668,-0.0543836965934803,-0.102675545339712,0.119504104412759,0.0077084794833981,0.141041017716421,0.142901203962418,15.3730609034064,0.950321868226895,0.946689969552163,0.175876904126251,0.240227727848808,0.119177757900443,0.433831547431031,0.15486699075989,0.0413033826540985,,,,,1.77528590773906,-124.910768203071,1.64820459996988,AttemptLanding,AttemptLanding,1,0.486193264981385,0.184914934593712,0.194798146301507,0.897156454925754,0.347032107599803
114,2.67958650971851,3.0,-0.432183981496953,-2.60687222514573,2.67958650971851,-0.0281659098571665,-0.0099409101835137,0.0298687156295465,-0.0172923532081196,-0.347527018799833,0.348562843271677,0.0225005383874636,0.205216024448252,0.207418961819616,15.3905689635766,1.64207813546347,1.52985943588798,0.063003229820127,0.240294073004445,0.125512300906856,0.486619426397189,0.0019003630597942,0.0076186785934651,,,,,2.9979851142919,-97.9705526263991,1.66512521978938,HoldLanding,HoldLanding,0,0.756040194955527,0.0775689665120849,0.0501564142910458,0.943576018457889,0.344216755152508
115,1.83236324948234,2.77711129188538,-1.05042650732882,-1.47308080127147,1.83236324948234,-0.0668668657270503,0.0123076233610824,0.0679901119645911,-0.0635176438460067,-0.118835879006795,0.139904640672435,0.0090249644006644,0.179260969328947,0.181448065002171,15.3360996935374,1.02101328649412,1.05867275993154,0.177480798884902,0.240268893634967,0.159700224338864,0.493800896323811,0.158543441271936,0.0360545440508714,,,,,1.89315516909655,-124.179562229341,1.91249596851189,AttemptLanding,AttemptLanding,1,0.52491981286239,0.225033163400859,0.218594393008158,0.894919210192776,0.32902212251606
116,1.65499624958804,2.3134069442749,-1.00663426346383,-1.2996321933282,1.65499624958804,0.0044979556000419,-0.0022488844168191,0.005028825479191,-0.0546641483066906,-0.0890904176985352,0.106904829132304,0.0069025525231569,0.117450168330069,0.118259399967039,15.4202826622766,1.96443426536349,1.81512147081606,0.0260574519792484,0.049570838189718,0.134320432307062,0.4963665699938,0.0109492918856782,0.0088169877077255,,,,,1.69700248239393,-126.66944677606,1.95233055847888,AttemptLanding,AttemptLanding,1,0.464984213216885,0.149064357642396,0.0975111438828919,0.957274764654679,0.34030203008575
117,1.44498812970776,2.33544993400574,-0.850299981634318,-1.15616558162022,1.44498812970776,-0.0314510564243086,-0.0027455112626055,0.0315706633173606,-0.0446855686856332,-0.0802072828369603,0.093761346793184,0.0060464059392343,0.127583822149686,0.128279392347809,15.4859222392447,0.487569259086181,0.819730455811159,0.165177948645958,0.24536703732266,0.235557314433988,0.44448463083572,0.149098899446996,0.0051094799123223,,,,,1.6721231422542,-125.43586516234,2.46954547767866,AttemptLanding,AttemptLanding,1,0.410986046391632,0.20614186090856,0.191809286772524,0.90713938505997,0.295307860251561
118,1.59501636425654,2.51664304733276,-1.00486474514652,-1.21182418059283,1.59501636425654,-0.0551202918188798,0.006490445728362,0.0555011031958039,-0.0641962338770325,-0.0884257605752195,0.114464562860923,0.0073816123986068,0.184216391472603,0.185164387649245,15.4876780393357,0.53054737149671,0.88188745864095,0.173041756936423,0.246590415103419,0.261018652668575,0.496032143021968,0.144290853181934,0.005103031680074,,,,,1.78141492798702,-127.597402747289,1.71588593537106,AttemptLanding,AttemptLanding,1,0.462370574664927,0.217541205944714,0.196509639531351,0.902381419294992,0.283991709925078
119,2.57574620095384,3.0,-0.36389729540624,-2.51821523508622,2.57574620095384,0.0075496218168946,0.0063815370124348,0.0098853833622782,-0.0149370984173693,-0.331161977545758,0.33195533125978,0.0214327816470223,0.205193880352551,0.207855456125817,15.4117595331564,1.84420625002745,1.94231775819433,0.0290118578456832,0.0583545970817787,0.131766386349612,0.455336807493628,0.0230155546680339,0.0065749912646679,,,,,2.88139783872518,-96.8469577847742,1.70383201430945,AttemptLanding,AttemptLanding,1,0.728436744812853,0.0972694250684709,0.0709816963635223,0.955742811012559,0.341437161622395
120,1.68698975927121,2.53346228599548,-1.01135926876086,-1.31857046952246,1.68698975927121,-0.0766861893669715,0.0084405582940428,0.077149301124133,-0.0597171877242423,-0.0957623299515127,0.118429566882255,0.0076381462685238,0.175238078612476,0.177123500947971,15.4392215230863,0.736487195807998,0.912834911360325,0.176636087146673,0.240252955744246,0.158892346653555,0.459176818877542,0.158019500228632,0.0359935412138817,,,,,1.76744363452008,-125.864521808831,2.39662992198941,AttemptLanding,AttemptLanding,1,0.48528863599525,0.204600357052386,0.206079663663346,0.898722997013198,0.329381179265087
121,1.70590427397071,2.33300065994263,-0.981343212734593,-1.38110096742318,1.70590427397071,-0.0440998842114049,0.0088336343738957,0.0449759144844326,-0.0520715932415196,-0.101766328101602,0.11662207343969,0.0075218862822414,0.125145462236377,0.126980385978143,15.425804742793,0.879695535164436,0.875074491397453,0.176881236405283,0.240210747180753,0.146965250975726,0.478360180962723,0.158325279800554,0.0359998469138291,,,,,1.76448514358837,-124.664357217421,1.91818830476023,AttemptLanding,AttemptLanding,1,0.480303883587817,0.149342271165828,0.173063007145176,0.897771903017229,0.334682110677455
122,2.62638841903329,3.0,-0.378866733757676,-2.56572719454316,2.62638841903329,0.006442544171586,0.0076158166132666,0.009975321452953,-0.015863522873165,-0.342600984293717,0.343456423942093,0.022179023522907,0.199137681571097,0.201852198547287,15.3920158663864,2.000362966176,1.77582592334222,0.019269133423982,0.0541843707968044,0.128244438823935,0.434652567768514,0.0002976268704498,0.0077166407194192,,,,,3.0,-97.1526305433791,2.25362016070524,AttemptLanding,AttemptLanding,1,0.740740684785002,0.0858914146505505,0.054473178570117,0.960695377727509,0.343002471633807
123,1.61772682922799,2.25585746765137,-0.933701226866487,-1.30062572039418,1.61772682922799,-0.0687811580118536,0.0067235373380175,0.069108998341658,-0.0490465480161838,-0.0903498085588323,0.106039823432771,0.0068380545016289,0.126194820577415,0.127890404071551,15.4689458370032,0.657204107025155,0.725863029494217,0.175485331973923,0.240209356447974,0.121469256550182,0.396092774118352,0.156491039154884,0.0390286203553971,,,,,1.66518818535526,-124.488998271363,1.81959189895595,AttemptLanding,AttemptLanding,1,0.456971901941773,0.156249376674565,0.177493424546246,0.901390377940386,0.346013663755475
124,2.68753294275113,3.0,-0.53089930740766,-2.60080321430398,2.68753294275113,-0.0238925797839027,-0.0124730714717597,0.0269524188278118,-0.0231993873277704,-0.345267448800651,0.346905677467791,0.0223947838875757,0.202877438989024,0.204968819085925,15.3883988211709,1.77082396919391,1.44642237310037,0.0637444505089828,0.240293219435541,0.135884366613344,0.485758967824257,0.0018856970781463,0.0090682189733814,,,,,3.0,-100.530616564359,1.90049808864074,HoldLanding,HoldLanding,0,0.757669215217486,0.0752463646660948,0.0492834405620828,0.942849410627482,0.339606948171847
125,1.55677793436759,2.2514533996582,-0.804196845749632,-1.32101324529912,1.55677793436759,-0.0401357875711303,-0.0043284537688532,0.0403685144138844,-0.0355050774870343,-0.0925633266054586,0.100611119049069,0.0064895066457204,0.112355407685005,0.113892976524863,15.4222191542919,0.898572151253171,0.889433929403567,0.176724347877663,0.240183599191507,0.138724045276323,0.441132266277664,0.158686829696678,0.0361369081859772,,,,,1.59718321662841,-120.692341177793,1.52964264980415,AttemptLanding,AttemptLanding,1,0.437919377802997,0.1637028739996,0.18188989815076,0.897589206856009,0.338344868766079
126,1.55441515700873,2.50390362739563,-0.871442737027704,-1.26904240078933,1.55441515700873,0.0040219916316547,0.0027043233246413,0.0048466257674076,-0.0424808077094144,-0.0860154326592158,0.0985275629177122,0.0063616943623857,0.130720691938419,0.131485785949159,15.4134251979066,1.94348772094601,1.7742117466946,0.0252250132225623,0.0494578483191423,0.127370843703394,0.425510902734358,0.0070290994455771,0.0052856634367471,,,,,1.57811714801433,-123.111297136965,2.03134491019953,AttemptLanding,AttemptLanding,1,0.440807865725493,0.214523453894411,0.133760175966225,0.958176997571543,0.343390736131825
127,1.49572848025206,2.38285779953003,-0.759073992515065,-1.26410659152331,1.49572848025206,-0.0608440581022624,0.0009542404909018,0.0608515405003518,-0.0346131120724673,-0.0880174767521063,0.0975782222493984,0.0062943496814393,0.145294126054032,0.146723596255216,15.3807159410677,0.912468414404022,0.995396088221746,0.176624429642386,0.240185895476036,0.156050098150878,0.458652222339451,0.15877298847176,0.0361742514170592,,,,,1.53181850141805,-119.504479623187,1.89989956667082,AttemptLanding,AttemptLanding,1,0.428205647318259,0.210760212595941,0.210176173454247,0.896697421229605,0.330644400821832
128,1.60643463046759,2.27806329727173,-0.86328338030909,-1.3372941995922,1.60643463046759,-0.0564002142371088,0.0077796573484784,0.0569342360487212,-0.0417265829773638,-0.0955193725805861,0.106639602573262,0.0068792944096553,0.123411282521624,0.125103858453752,15.3470112545509,0.916674124988115,1.01870492878718,0.176266063394187,0.240183938642221,0.135232475589051,0.489245423454113,0.156066329674415,0.040433640303044,,,,,1.67347133841587,-121.814224359451,1.77800331380186,AttemptLanding,AttemptLanding,1,0.45340333981544,0.161554393306531,0.180998591100927,0.896660418594672,0.339896677515978
129,2.61404270352328,3.0,-0.503454324966528,-2.53393451474262,2.61404270352328,0.0075049292526856,0.0024860504878185,0.0079059730657142,-0.021952601718439,-0.335180699274897,0.336642372965305,0.0217404847582376,0.196259316924726,0.198823576991207,15.3688746282404,1.93834144999332,2.00137972553422,0.0287875053750733,0.0720620426366529,0.130413384513772,0.483743862336602,0.0209538485933923,0.0050488878793791,,,,,2.98812679975473,-100.15154225882,1.61964663360149,AttemptLanding,AttemptLanding,1,0.736842769671117,0.0882898201026418,0.0641226728875135,0.954651295219033,0.342038495771657
130,1.6164107040779,2.2212655544281,-0.906482596062948,-1.32494651054368,1.6164107040779,-0.0393024105942109,0.0124723333572572,0.041233949336566,-0.0449417172598002,-0.0929873880952618,0.105282818092194,0.0067908269387352,0.11976369450589,0.121524115767261,15.4423233391131,0.921100289685745,0.856632156023586,0.176992190709545,0.240168479664734,0.13685051210503,0.402506102637869,0.158117922345052,0.0349882859930047,,,,,1.67291748571223,-123.514973806059,1.95956058066531,AttemptLanding,AttemptLanding,1,0.455347677574226,0.143651898707165,0.169188784466021,0.897536006857511,0.339177550175542
131,1.50098258456928,2.288743019104,-0.755912344404904,-1.27391460924127,1.50098258456928,-0.0645702457199387,0.0025237262455878,0.0646195467834303,-0.0346261046491764,-0.0894220880322177,0.0985533661042359,0.0063572383986917,0.163702590359248,0.165246769370644,15.4316445798251,0.874078934021327,0.968702502824589,0.175480365837114,0.240179096115824,0.16033899244463,0.444314896124203,0.155913784317336,0.0406654249072778,,,,,1.54515709711904,-119.107877075441,1.79619190239227,AttemptLanding,AttemptLanding,1,0.433311376425936,0.189093014680609,0.197538251299525,0.897780820077654,0.328738225580165
132,2.62091167395729,3.0,-0.459040880804267,-2.54752209011568,2.62091167395729,0.0050925953456854,0.0031357031591285,0.0059805653292198,-0.0199459141833516,-0.337559373571914,0.338812744979315,0.0218890370807312,0.192900091563532,0.195605196871718,15.3594532133037,2.30902892962244,2.18654985003262,0.0284822590166539,0.0595082986882733,0.147650296996811,0.435969104762632,0.0198915418439967,0.0080463102897556,,,,,3.0,-98.8062245222683,1.81136018142596,AttemptLanding,AttemptLanding,1,0.738030819096287,0.0863913103366336,0.0636014024804353,0.950436465794383,0.334377645779195
133,1.63414728560963,2.34203004837036,-0.850956354379585,-1.38317970262285,1.63414728560963,-0.0429790553673145,-0.0049276174218507,0.0432606127293964,-0.0403458616022699,-0.101536094901822,0.110842907423044,0.0071516144777861,0.114516501165361,0.116345126187481,15.3796402328739,1.07763533931618,1.10427126841685,0.17717613833758,0.24021632192166,0.173876224053075,0.465875322372126,0.158847325723319,0.0342259215829954,,,,,1.68330103474598,-120.509023497779,1.79813823720889,AttemptLanding,AttemptLanding,1,0.459041634733398,0.167204733954887,0.183367441472062,0.894268378913308,0.322721678198633
134,2.67853286970614,3.0,-0.63362345928506,-2.56915086791024,2.67853286970614,-0.0281153437343887,-0.0086435915012896,0.0294140141317705,-0.0278740238578576,-0.337726415152946,0.340018649672811,0.0219479022472153,0.20035109246656,0.202411732759304,15.3289210592868,1.68331570680028,1.38805852427613,0.0626192831955844,0.240497549498658,0.126525217724083,0.460594695345582,0.0018383790687918,0.0096229439617773,,,,,3.0,-102.269542710179,1.51634856001894,HoldLanding,HoldLanding,0,0.754757778473499,0.0777226735736092,0.0509499138578103,0.944558132300893,0.343766569900408
135,1.68154850803517,2.56026124954224,-0.865451992551792,-1.41528224329961,1.68154850803517,-0.0698372466274561,-0.0009743777013602,0.0698440436143916,-0.0452729225837516,-0.110453776131484,0.123067888416286,0.0079410718219511,0.179966257628776,0.181857291400266,15.3645839796811,1.18208297004174,1.05666671533643,0.176576373915266,0.241407814014418,0.184963413881258,0.444039281363706,0.158716074631364,0.0376558716306749,,,,,1.71044333906111,-120.370167332204,1.98222618142029,AttemptLanding,AttemptLanding,1,0.484784393756098,0.210515108168395,0.210542586744313,0.894121636942967,0.317794038274996
136,1.6241815767958,2.34594440460205,-0.747177551654752,-1.42979427748361,1.6241815767958,0.003866229432653,0.0018536379820338,0.0042876221608662,-0.031057887566705,-0.107892697996739,0.11350293129235,0.0073265502924415,0.11873035957807,0.119581251854264,15.4167449276139,1.71182365936794,1.70939104744533,0.026882381387516,0.0456556897069313,0.127240435796532,0.412249691251035,0.0199750687228233,0.0051492662764963,,,,,1.66149639163359,-116.91481150861,1.74183676420812,AttemptLanding,AttemptLanding,1,0.4570313375164,0.163182700319232,0.108659888976974,0.959677836609852,0.343448695201541
137,1.47303573637201,2.04523086547852,-0.700131384441432,-1.28408089445898,1.47303573637201,-0.0413919884564206,-0.0002494643851437,0.0413927401950622,-0.027245632551097,-0.0870183802278226,0.0923539514596559,0.0059570942723074,0.102757867322847,0.104178127564141,15.4377346956439,0.913811410555617,0.834965280756893,0.176598956831136,0.24016334910444,0.134711000885995,0.384677296470477,0.155631749714473,0.0420316343905593,,,,,1.50463962214456,-118.009747287404,1.51402215618804,AttemptLanding,AttemptLanding,1,0.41364515521203,0.136332573084726,0.166253441078077,0.897960133295548,0.340128444050669
138,1.59227620910954,2.18170881271362,-0.724464106290095,-1.40630382495437,1.59227620910954,-0.0385671538490808,-8.20687638273156e-05,0.0385672411678702,-0.0292182422270095,-0.104330228140355,0.109423676581256,0.0070590011488029,0.103806556410082,0.105578062131456,15.3751798940795,0.962524351673504,1.01627574478343,0.177405672866587,0.240197165208289,0.1595470019456,0.469370040183512,0.157993268789621,0.0365580170624497,,,,,1.62198882751374,-116.427624599585,2.15303505838228,AttemptLanding,AttemptLanding,1,0.445722601522168,0.139692996691695,0.167328852974527,0.895749448523116,0.329090221357511
139,2.64794474820095,3.0,-0.550151780826738,-2.55344238887734,2.64794474820095,-0.00710342481233,-0.0139868827381977,0.0156873048289538,-0.0257800639012481,-0.339700807069137,0.341642937517753,0.0220596111057537,0.199407384442932,0.202092207811095,15.3675882173656,2.09619625877049,1.72902246155971,0.019310972161729,0.0511658780420056,0.152995278008319,0.451013813430516,0.0038197453350609,0.0085282225901958,,,,,3.0,-100.33835635475,2.28541748672097,AttemptLanding,AttemptLanding,1,0.746537041082473,0.0820884375400939,0.0540518989683971,0.960289223973684,0.33200209866297
140,1.51077160926966,2.35103893280029,-0.719620814815769,-1.31487091456527,1.51077160926966,-0.037565268217554,-0.0020444261028115,0.0376208592983551,-0.0309223752952191,-0.0971312505440323,0.103380185890252,0.0066677338976186,0.125493734827035,0.126560631400035,15.4575728060396,0.788483299469741,0.820868554583406,0.174726058457751,0.24223998445957,0.237655874968586,0.522943294017612,0.139557936259673,0.0049611914734953,,,,,1.62484937329115,-117.662804067615,2.15940567693703,AttemptLanding,AttemptLanding,1,0.428184555418582,0.195957305332425,0.181404202274924,0.899992063346421,0.294375166680628
141,1.51867409364597,2.26106429100037,-0.789327588216594,-1.26787625671812,1.51867409364597,-0.0720989166086059,-0.0011178247169092,0.072107581489275,-0.0397419654064645,-0.0914460861914411,0.103476063442414,0.0066733566583323,0.176142836360851,0.177181393863003,15.4595703090748,0.576921626237213,0.756007563401013,0.179571519639588,0.241035634606689,0.244433952698211,0.387182373589461,0.153551828917691,0.0049639348752498,,,,,1.58700801541868,-119.377240163094,2.04116247413245,AttemptLanding,AttemptLanding,1,0.440416037078193,0.180257517677772,0.178204835130779,0.899741225118763,0.291362687689684
142,2.62310831363385,3.0,-0.62474016875367,-2.51497122778397,2.62310831363385,0.0088167379528392,0.0034157402626448,0.0094552709993362,-0.0293960883249592,-0.328990283614416,0.331547053363966,0.0214064462423115,0.197285214563283,0.199927977677516,15.4119796729616,2.00588044038319,1.81858301241507,0.029274205420942,0.0508027860013845,0.134029326903122,0.397469959082153,0.023029558165337,0.0065570761307805,,,,,3.0,-102.460692774955,1.57981540766615,AttemptLanding,AttemptLanding,1,0.739481145837862,0.0865340957822631,0.0645402079742359,0.955313541588971,0.340431410265279
143,1.44966221375753,2.10953807830811,-0.647740174853508,-1.28012892487311,1.44966221375753,-0.0599669030400703,-0.0029710317384388,0.0600404571085864,-0.0250459354507858,-0.0878410168496409,0.0927930482576089,0.0059852973067327,0.122792938755188,0.124258992062342,15.4145785437888,0.907416722964483,0.857190897688373,0.176453143288407,0.240147091122853,0.12780579973505,0.448961375996102,0.155361686023981,0.0409529024306965,,,,,1.50542716708844,-115.316950545559,2.3894229019718,AttemptLanding,AttemptLanding,1,0.411428388747811,0.159479486660453,0.179629294749405,0.897908654193524,0.343197422339978
144,2.68304836343965,3.0,-0.586106311695959,-2.57828846247035,2.68304836343965,-0.0345556928008223,-0.0085730061734499,0.0356032630498219,-0.0253644598246985,-0.341429054839486,0.343420581367343,0.0221708313191911,0.205217467674656,0.207322115822683,15.386288192202,1.66509718205383,1.72421953559917,0.0634638338673412,0.240352257184336,0.130565724419597,0.512994711426405,0.0018980538436571,0.0090902705451041,,,,,3.0,-100.955060334027,1.55976029908796,HoldLanding,HoldLanding,0,0.756943986748443,0.0778413831185465,0.0508539622826902,0.941637737427627,0.341970789146846
145,1.64743627397806,2.25933790206909,-0.770877827354269,-1.444526357114,1.64743627397806,-0.0418389726998249,-0.0015403960134519,0.0418673196712537,-0.0331896719052557,-0.109911037698832,0.116091485906155,0.0074881350725064,0.100897292742436,0.102851622780931,15.4249085225986,0.862303527780145,0.868402465025939,0.17598872558727,0.240169826104304,0.145393589876257,0.414452312145221,0.156515022369791,0.0420036062813468,,,,,1.68254359450145,-116.590495520199,1.69240148867299,AttemptLanding,AttemptLanding,1,0.459886664283669,0.145353541593545,0.172048395768241,0.898407232977174,0.335380626721664
146,1.71124584080782,2.64145374298096,-0.804596521933529,-1.48311876949373,1.71124584080782,0.0051490729411358,0.0036894001331422,0.006334400168569,-0.0396625300712894,-0.119658078940426,0.129184736864806,0.0083415428018102,0.18079535999051,0.181784955644022,15.3755040870964,2.15339140153127,1.93648356997824,0.0234506494806039,0.0540466403911809,0.141846214659524,0.422939265317438,0.0072938977786562,0.0101255556593162,,,,,1.779143412243,-117.297381887505,2.08978974501873,AttemptLanding,AttemptLanding,1,0.492689215344224,0.210458084686526,0.133198603397737,0.956139943340695,0.3369572379291
147,1.42456463879387,2.16611409187317,-0.704640407664165,-1.22105078663021,1.42456463879387,-0.0466547544530055,0.0111690873419884,0.0479730614524777,-0.0285420177044579,-0.0801562458298601,0.0869026266426503,0.0056055008356159,0.120563599000813,0.121943166742364,15.4076257738899,0.811554600552827,0.967214888937435,0.176374092185029,0.240162263580912,0.144741647621825,0.48221599262655,0.15509989333935,0.0414947557093627,,,,,1.48754464037965,-118.732441752547,1.84609647828128,AttemptLanding,AttemptLanding,1,0.404272537026838,0.17564368820913,0.18940850093021,0.897836907918633,0.335670378834744
148,1.70871400033068,2.39770340919495,-0.768698168872365,-1.51250764832463,1.70871400033068,-0.0566269017086676,-0.00241703382517,0.0566784619554476,-0.0333958047834731,-0.12053235669854,0.12638733993757,0.0081517063716295,0.112812355122715,0.114899192757936,15.4537471295511,0.886213204848957,0.785123685707283,0.176567527800277,0.240199024954653,0.132841435921237,0.432454829952078,0.156436153888599,0.0398520886141588,,,,,1.75445964810256,-115.915142708198,2.18804506244191,AttemptLanding,AttemptLanding,1,0.478636905306434,0.16541366835296,0.183267049104787,0.898584303388348,0.340959361812783
149,2.57257171418755,3.0,-0.606910745390435,-2.46422825500084,2.57257171418755,0.0075015541786083,0.0060572754550405,0.0096417789350737,-0.029167509746502,-0.317500752002313,0.320164022025417,0.0206760130525527,0.212030203465507,0.21449271035523,15.3804582074146,1.98831981961656,1.97959176449302,0.0208899502460946,0.0521538238205196,0.13849897546337,0.437142422401145,0.0003533892637324,0.0048766086680269,,,,,2.89228411426449,-102.374592577792,2.20441012579808,AttemptLanding,AttemptLanding,1,0.728917665854392,0.0979390237792325,0.0606937884054506,0.958378576716092,0.338444899794058
150,1.51417047785433,2.26009106636047,-0.650183555014464,-1.35568458008037,1.51417047785433,-0.0447245507312546,-0.0026470115964221,0.0448028136226305,-0.0238195961735268,-0.0973843254441034,0.101149116103673,0.006524296504339,0.106719068695518,0.108364097175088,15.4175636888737,0.890700095335469,0.872853903827531,0.175777480001589,0.240158799979721,0.157539236130175,0.358215804524036,0.155180748106203,0.0395996673213724,,,,,1.57055207434036,-114.528428258895,2.0619431731288,AttemptLanding,AttemptLanding,1,0.425451613529504,0.176045981578032,0.188996689353307,0.898254764291496,0.329982561719922
151,1.48212341400417,2.24876713752747,-0.656979717747712,-1.31292803330558,1.48212341400417,-0.0505301595927856,-0.0116356363653766,0.0518525318774277,-0.025447266634245,-0.0918995536962755,0.0967866422095693,0.0062430879134056,0.115003952232286,0.116526408610622,15.4128606846407,0.887795977994614,0.903662709868444,0.17690264164874,0.240152077586349,0.130576535732682,0.439817536373353,0.159778350196788,0.0365868907462785,,,,,1.53043490962982,-115.371127707452,2.30815231802181,AttemptLanding,AttemptLanding,1,0.418538192123237,0.182001135303603,0.193517605177361,0.89747293234242,0.341965984118808
152,2.62500883703646,3.0,-0.658138757142163,-2.50838989366206,2.62500883703646,0.0034911835087946,0.0028836291463511,0.0045280988666067,-0.0315092421456528,-0.327282777387581,0.330101987715021,0.0213200328557712,0.194762168876128,0.197506602625988,15.3730973209891,2.10564551224261,1.91283693226281,0.0281951805322901,0.0562541465242238,0.131534398207732,0.453753813667566,0.0212875505590932,0.0066714548885644,,,,,3.0,-103.235441300153,1.74954970228206,AttemptLanding,AttemptLanding,1,0.739503677068255,0.0852031631256734,0.0630090150530648,0.954328619098455,0.34154026746323
153,1.49821303314811,2.15267825126648,-0.699454343365383,-1.31481502213797,1.49821303314811,-0.0453962508808905,-0.0093374646609386,0.0463466054888061,-0.0272606614307424,-0.0916010188836138,0.096522298920432,0.0062260149385644,0.105219252790892,0.106727114927924,15.4295096051621,0.785143632675708,0.90692055406111,0.175984409989635,0.240158515094496,0.153940262018458,0.356127750656786,0.156367044304902,0.0400429225640784,,,,,1.53053947457772,-117.277382087191,1.70876040969119,AttemptLanding,AttemptLanding,1,0.420868898491746,0.155751551749582,0.177508457935835,0.898713004966536,0.331582105769574
154,2.63884326104724,3.0,-0.611747057328794,-2.53566332680599,2.63884326104724,-0.010231599223721,0.0033753734159281,0.0107739857235752,-0.0293924960503446,-0.333351542635798,0.335879650066796,0.0216858988834181,0.1987883076931,0.200696833796497,15.4101039453146,1.81494915174686,1.64254195393323,0.0631918824963632,0.240461074246333,0.141110261220535,0.442874919355537,0.0019083387269631,0.0090439271702805,,,,,3.0,-102.931426400997,2.49725126010503,HoldLanding,HoldLanding,0,0.743830903038564,0.0832354969803596,0.0540781495227257,0.941238057207189,0.337284328346429
155,1.66273472773149,2.39222121238708,-0.782741698303276,-1.45552419920964,1.66273472773149,-0.0459388982004117,-0.0030885450909754,0.0460426050375821,-0.0340507426744718,-0.112476673883424,0.118814561991182,0.0076630165774574,0.125081619289821,0.126900063451381,15.4388197344,0.861307284539765,0.765148070463987,0.17704773482625,0.240198085797274,0.124882783180039,0.394118222672593,0.157350530412117,0.0375805603644969,,,,,1.68981233095603,-117.495671617653,2.35347517976224,AttemptLanding,AttemptLanding,1,0.468775940085339,0.1725756033044,0.187144589369054,0.898696840511845,0.344496540808872
156,1.62068211952579,2.34595084190369,-0.708844932949555,-1.44574278266244,1.62068211952579,-0.0006853429327385,0.0007519442353651,0.0010174060490058,-0.0281890562945881,-0.109642846537393,0.114260277576293,0.0073759798705132,0.107499345505405,0.108407747267602,15.4289332008281,1.61491901519999,1.91776963835792,0.0269035106811485,0.0464478125428876,0.126636442883368,0.466394885332683,0.020558666747015,0.007571513193989,,,,,1.64682358488304,-115.230680905002,1.52597588572848,AttemptLanding,AttemptLanding,1,0.453863447993732,0.163371986977343,0.109913654932389,0.958791405238614,0.343717136496281
157,1.64812758864972,2.36967754364014,-0.72019930528982,-1.47192710620934,1.64812758864972,-0.0490811208734398,-0.0135486751065743,0.0509168245606176,-0.0290211925134407,-0.114643846758272,0.119174844224647,0.0076858985554871,0.108131980110564,0.110000703910372,15.4373677795024,0.81115578464052,0.761034158447556,0.176049461145996,0.240192462967222,0.137615316740807,0.37487598579666,0.159314505135215,0.0370080814466464,,,,,1.69535374865113,-115.407012304463,2.49877925085797,AttemptLanding,AttemptLanding,1,0.461500831088667,0.171683491042289,0.187274025514553,0.899622348445596,0.338837637004086
158,1.61449936892362,2.39092755317688,-0.753373948416723,-1.41744497719245,1.61449936892362,-0.0394220212973853,0.001021145596958,0.0394352444077843,-0.0315900162851786,-0.106467954602984,0.11214863686899,0.0072345856088096,0.111288556550673,0.113140903311647,15.4156371749776,0.966534753161726,0.958203642228989,0.175866419325344,0.240183927574154,0.125258225582353,0.48811041684768,0.156016260674225,0.0399720573960394,,,,,1.65925020896733,-117.23842078182,2.22396213754695,AttemptLanding,AttemptLanding,1,0.453161345708629,0.181926136265077,0.193031535657262,0.896943845802115,0.344329677518954
159,2.57826749098341,3.0,-0.742517219951962,-2.4380615359125,2.57826749098341,0.0074890810678598,0.0030200923076884,0.0080751032679425,-0.037077535620222,-0.310474251774847,0.314375139636387,0.0203000545910451,0.198639527296816,0.201051529048163,15.3581620348234,1.93200582492762,2.07313989762618,0.0273617658165879,0.0604042412428612,0.137892181330553,0.427539154061848,0.0133561710038206,0.005653554639981,,,,,2.88835322200788,-105.56852442763,1.86759748655599,AttemptLanding,AttemptLanding,1,0.727748303405208,0.096370250127856,0.0658140641293138,0.954850114985926,0.33871458607531
160,1.50876987101258,2.1845223903656,-0.655593005957099,-1.34212729308936,1.50876987101258,-0.0594159077984,-0.0152696228749617,0.061346650130643,-0.02513667753243,-0.0964570949562482,0.101052713648781,0.0065183560009281,0.118722550806006,0.120256002705315,15.3590879680895,0.910353396123646,0.914726409816598,0.177140284093653,0.240151971194275,0.127505720203619,0.450701750269022,0.159199464082453,0.0353198017013451,,,,,1.56544004446909,-115.546181583882,1.65746636896043,AttemptLanding,AttemptLanding,1,0.426389832811086,0.163291202711713,0.181573603252042,0.897089945192215,0.343330791020614
161,1.64836235134394,2.59276103973389,-0.7785677151694,-1.42752482696147,1.64836235134394,-0.0644129934324425,-0.0027610325338678,0.0644721414533515,-0.0370175272355903,-0.113104817922579,0.121989352151341,0.0078692019865402,0.165900354689136,0.167614097407792,15.4237952576265,0.960846305621849,0.977049682408555,0.175763880438681,0.240226034291055,0.134010245823888,0.425261722857381,0.158697094870006,0.0367969344851588,,,,,1.70136515468512,-117.053321105748,2.18588500370455,AttemptLanding,AttemptLanding,1,0.473086113173275,0.22430959748752,0.218498504106108,0.896891734160421,0.340439890744938
162,2.5059349348455,3.0,-0.6625820221604,-2.38312350445778,2.5059349348455,0.0002461796680387,0.0096058103407868,0.0096089643943623,-0.0321649656654297,-0.304654165155194,0.30792428262902,0.0198623210152607,0.203794379738987,0.205963317835951,15.4661144533698,1.08428143452838,0.947712434623872,0.0257830123312692,0.110373504472468,0.243749321436301,0.631187026497292,0.0030027594773785,0.0055525096745085,,,,,2.85921158454158,-105.062668776886,2.27398288149031,AttemptLanding,AttemptLanding,1,0.709441979525989,0.112926283132063,0.0711094240740558,0.971142827719598,0.291666968250533
163,1.48757482435285,2.57301187515259,-0.708156758191645,-1.29591791743806,1.48757482435285,-0.0299876897476232,-0.0138686752908315,0.0330393960405184,-0.0325394063116695,-0.102665665088575,0.108984912323496,0.0070285020616817,0.131020974876358,0.131809541066989,15.4767625371988,0.709818223582571,0.698272569729035,0.155433260888821,0.243799798000262,0.234429129143165,0.457671798877117,0.147485133886669,0.0051945504875938,,,,,1.71874998102098,-116.787170824054,1.84927010193319,AttemptLanding,AttemptLanding,1,0.423048528040826,0.250280559037368,0.21760621126653,0.911219799036712,0.295809275936371
164,2.49624905713554,3.0,-0.775345551374955,-2.33378272561821,2.49624905713554,-0.0299825175607864,-0.001827061158922,0.0300381342922843,-0.0387875686754677,-0.289518712330194,0.294413312428566,0.0190067497712048,0.229470332214134,0.231103846066212,15.3825154211036,1.71942439236857,1.54409788821284,0.0629320323123474,0.240384239865121,0.135793566274424,0.449286452620419,0.0018825164529044,0.0101868506671376,,,,,2.64390369362176,-106.697557678757,1.8468073346947,HoldLanding,HoldLanding,0,0.711887184449385,0.118850953431423,0.0758515553714272,0.942892023067829,0.339647303878034
165,1.58178550286873,2.51494717597961,-0.690898484716048,-1.39985752284589,1.58178550286873,-0.0572906819575392,0.0040823073673561,0.0574359423410244,-0.0297376513243059,-0.107132749527306,0.113275838209683,0.0073072858761281,0.162543728010813,0.164325946497206,15.4197592895547,0.873892778122659,0.966109707894211,0.176053809025691,0.240208536425367,0.1600661238282,0.402013743635256,0.15742849514587,0.0369581040206796,,,,,1.65443912380199,-114.70021335318,1.61451048072125,AttemptLanding,AttemptLanding,1,0.454674656731103,0.22049129921247,0.215702310145288,0.897515933097022,0.3288595005208
166,1.66136468912048,2.30900979042053,-0.729048298332926,-1.48071699592141,1.66136468912048,0.0027615431632402,0.0003508329892542,0.0027837392889399,-0.029786753765035,-0.115175367548565,0.120061333824599,0.0077535741565735,0.120095949940748,0.121043402368624,15.4220588070562,2.05355631609011,1.97279599267555,0.0156512508189544,0.0532748930929075,0.132263922348535,0.444115657588547,0.0005246314773869,0.0085831057827472,,,,,1.6985678915868,-115.061450151433,2.41111428386073,AttemptLanding,AttemptLanding,1,0.467239264239186,0.146230499995484,0.0910925989183401,0.960538749307364,0.341216034511762
167,1.50081327114556,2.20559048652649,-0.697738282248736,-1.31244505210515,1.50081327114556,-0.0553951409201416,-0.0042668022777745,0.0555592228098987,-0.0282682687578519,-0.0920782173924277,0.0979082973163484,0.0063144554536308,0.114436794523857,0.115946017200664,15.4601930544308,0.790427650221556,0.738871336513131,0.17571749789719,0.240169392745828,0.139070969171945,0.382070687822697,0.158538208499275,0.0361588296587177,,,,,1.53242316823457,-117.234742424214,1.54617928533697,AttemptLanding,AttemptLanding,1,0.423406075745616,0.168760730975857,0.184866529915634,0.900125330441347,0.338190680368024
168,1.71599255260584,2.56739258766174,-0.842878908522048,-1.46938579480502,1.71599255260584,-0.073939433493797,-0.0026224108694011,0.0739859234189287,-0.0426280776318899,-0.119139677054966,0.12981999471479,0.0083762966425235,0.170092420144554,0.172036525923361,15.3883806984387,1.13970378229227,1.04332472696436,0.176222222495469,0.240246071060051,0.181790929784605,0.419798704333881,0.155896682290189,0.0412380353395122,,,,,1.76822611766951,-118.998443980142,1.84523823343397,AttemptLanding,AttemptLanding,1,0.492005319212895,0.205129093847716,0.207360519874193,0.894736521893821,0.319204031206842
169,2.4673935059321,3.0,-0.761906554435619,-2.31508202526697,2.4673935059321,0.0080452371546117,0.0059406201493389,0.0100008403963206,-0.0390428211797231,-0.284256914176511,0.288869721958142,0.0186561844980263,0.217147596477185,0.219287999962439,15.3776632850398,2.07575342985973,2.06401344743025,0.0200880904927032,0.0552708311342256,0.13674196917277,0.457479259341049,0.0002061740429547,0.0107142050510892,,,,,2.66549340284327,-107.193726307889,2.24453343257821,AttemptLanding,AttemptLanding,1,0.70182920157438,0.12166994857127,0.0769896766147745,0.957429215003513,0.339225791478769
170,1.73823497907535,2.37973666191101,-0.774977524845241,-1.54337137829371,1.73823497907535,-0.0429258284692115,0.0032001803134725,0.0430449521292207,-0.0337029322086068,-0.125919435694873,0.131596976964377,0.0084881992035443,0.117963445107443,0.120064579348634,15.4353870583009,0.953888582995318,0.909553148100422,0.175519424288775,0.24022591060158,0.160560430819607,0.438780277102499,0.157595784558918,0.0336481917440853,,,,,1.77840570795084,-115.675983280215,2.46227273686894,AttemptLanding,AttemptLanding,1,0.487542243623155,0.152229453195046,0.173615948920861,0.897598959968432,0.328639808524619
171,1.65030101747126,2.34855461120605,-0.797359882946919,-1.43162806336224,1.65030101747126,-0.0451795751833296,-0.0019391240839824,0.0452211699976815,-0.0353126451044709,-0.10842120609055,0.115547050894044,0.007454175113893,0.119820440166798,0.121719966898954,15.412125464949,1.00446268686428,0.979031705273936,0.176731123223713,0.240205872869061,0.166477496965084,0.472256955440763,0.159051197409188,0.0355703518094935,,,,,1.68221562017466,-118.331726157389,2.044063802951,AttemptLanding,AttemptLanding,1,0.464424264705461,0.165397606423237,0.182862658309963,0.896049839592772,0.326010001348851
172,2.42950769491419,3.0,-0.849775632118255,-2.24460533978938,2.42950769491419,0.006962211467279,0.0075170789285081,0.0102459193893243,-0.0459199044451866,-0.267827679965723,0.274250352203068,0.0177122695258816,0.22508929096811,0.227145756795491,15.3998616760385,2.18589074238022,2.01607947214822,0.0276000615879216,0.0752933910966478,0.134804625526651,0.493356583783434,0.0205453307420368,0.0054159194661097,,,,,2.5789773418386,-109.450212225276,1.73821686604258,AttemptLanding,AttemptLanding,1,0.693297870002882,0.130239187199017,0.0892441956873856,0.95318448894903,0.340086833099266
173,1.52810650379271,2.17616701126099,-0.718619609658196,-1.33155420799411,1.52810650379271,-0.0478223707679876,0.0025076696412255,0.0478880731800768,-0.0296687666759136,-0.094850447777258,0.10110214128493,0.0065212262847623,0.126239181237598,0.12782762859307,15.44654768564,0.906523636404986,0.843688371060874,0.176969898148798,0.240175904126508,0.127512675354989,0.41138288383361,0.159490608367703,0.0350495595548677,,,,,1.60572032516396,-117.151648626796,2.48200105756113,AttemptLanding,AttemptLanding,1,0.43306059339667,0.154593094263376,0.176385865771704,0.897763385152655,0.343327699842227
174,2.2640536761796,3.0,-0.733129927465808,-2.10990713912074,2.2640536761796,-0.0169833714931228,0.0106846518332433,0.0200648122859658,-0.0373742161951923,-0.248255919734374,0.253353178426903,0.0163559983867285,0.23471905036102,0.236162348393538,15.3756051679136,1.72147833369789,1.6201774521052,0.0629667529347559,0.240327261332743,0.137046212867786,0.497422241633957,0.0019625830001787,0.0092196651703659,,,,,2.36078838964489,-107.709824257803,2.09535503514731,HoldLanding,HoldLanding,0,0.650980116659934,0.169266471778684,0.105784747694898,0.942260756644169,0.339090572058762
175,1.65832238229329,2.57760262489319,-0.81989764805825,-1.41308307867897,1.65832238229329,-0.0705162615578015,0.0104877488754028,0.0712919071182822,-0.0408856356734312,-0.108962967286996,0.119935538134041,0.0077373576486025,0.167220108967995,0.169125271354764,15.432768666742,0.974076303087936,0.979172074775998,0.175829806288534,0.240202537443952,0.157237865403126,0.385793215804725,0.156226035400943,0.0398649810383144,,,,,1.70036876942666,-118.357386427334,2.02846136130495,AttemptLanding,AttemptLanding,1,0.476044356215831,0.219908237556662,0.215875092786732,0.896738145315374,0.330116504265277
176,1.77140643524884,2.47026014328003,-0.890091881058943,-1.51830446669276,1.77140643524884,0.0049126171806982,0.0044600226275438,0.0066351796812365,-0.0434286934090658,-0.1212373526915,0.130511886020374,0.0084317862106059,0.125818294171821,0.126876096256453,15.3876077932541,2.16318124253247,2.34998788163456,0.015320510937965,0.054987393934202,0.154237562074408,0.462875290683329,0.0003518014571493,0.0054754301845505,,,,,1.79740384781532,-119.424856454763,2.47533764303096,AttemptLanding,AttemptLanding,1,0.497750268650982,0.158458533915243,0.0972225420739783,0.956879129983991,0.331449972411374
177,1.9658221852135,2.95577788352966,-1.00745592920714,-1.65600736464099,1.9658221852135,-0.08349957033522,0.0065685049414456,0.0837575280397657,-0.0603475650294009,-0.149653195318895,0.166414089896698,0.0107328624918332,0.189107728948243,0.191662027945968,15.4479039121453,0.843379303422042,0.769238617863516,0.176173415275036,0.240283724755336,0.147396882116922,0.400634354657772,0.158844467238872,0.0375936330720015,,,,,2.00389774569212,-119.82849383685,1.5,AttemptLanding,AttemptLanding,1,0.562551654979461,0.238095578928427,0.227125300378293,0.899242722980953,0.334490274614701
178,1.80945737489918,2.81555199623108,-0.985103075014383,-1.48857932751297,1.80945737489918,-0.080821432493419,0.0056382642426763,0.0810178620673153,-0.0576332821097808,-0.121764763675657,0.139523736780215,0.0090009934578082,0.186232061458943,0.188419871679441,15.4219195297357,1.04301330664758,0.987879310616142,0.175727095357273,0.240266772267074,0.186927252033265,0.479020422539954,0.156444609006028,0.0385754675988422,,,,,1.88108853169074,-121.75609313085,1.64676467086859,AttemptLanding,AttemptLanding,1,0.520205940975669,0.241224564512019,0.228293118806439,0.896179438900006,0.316921221318549
179,2.5001892632864,3.0,-0.64892278261876,-2.38310908878698,2.5001892632864,0.0066383812082367,0.0043091061496386,0.0079143225152077,-0.0306014472093859,-0.298843757040647,0.301741932768032,0.0194861209569135,0.213543380308066,0.215856846844665,15.3843159612072,2.10905098349896,1.94813659318265,0.0277017752585431,0.069438718922156,0.131401018988427,0.48715961003854,0.0212771919435946,0.0063883714625379,,,,,2.73243854491602,-104.018907315581,1.6400545178151,AttemptLanding,AttemptLanding,1,0.709888506245306,0.113908374888348,0.0801245988539133,0.954271209982516,0.341599547116255
180,1.80347542585553,2.52531003952026,-0.926743469183382,-1.52635026550175,1.80347542585553,-0.0669665165168094,-0.0054961489065409,0.0671916809374418,-0.0490701350110259,-0.124033875645285,0.136456396727634,0.0088015897309833,0.14517231262655,0.14731276928517,15.4294698124986,0.914233465779943,0.888419325390071,0.175971078625812,0.240216232891413,0.148262383593646,0.408055641319079,0.158534328347043,0.0419760971059504,,,,,1.85620598441334,-119.444845846151,1.86434364652815,AttemptLanding,AttemptLanding,1,0.510389334085176,0.174731262913095,0.190562494546687,0.897850760185044,0.334105607291713
181,1.82177289595475,2.81318092346191,-0.889030593450336,-1.56166583351219,1.82177289595475,-0.0726120977570573,-0.002427818948293,0.0726526740425026,-0.0477178031704297,-0.133637960476,0.145846659859822,0.0094082881929082,0.179896560462201,0.181963227950544,15.355173986533,1.02264157068567,1.09138112879472,0.176678821575861,0.240285304026626,0.161653975570293,0.501821343943163,0.15953140434717,0.0369542939497283,,,,,1.8944468966032,-118.434379956689,1.76033294653124,AttemptLanding,AttemptLanding,1,0.522198751178042,0.236386463096904,0.226172649307291,0.895050410859009,0.328153788635425
182,2.43632842705003,3.0,-0.445455118008315,-2.36288313168642,2.43632842705003,0.0063139026729769,0.0052281306612706,0.0081974823680898,-0.019078400971518,-0.295527080864076,0.296826239426152,0.0191626961497647,0.223790983400982,0.226134281819989,15.4137807311076,1.71689961568823,1.65114893820501,0.0234016519139913,0.0506931742734294,0.119234190670413,0.487786689182248,0.0073548298157547,0.005772615426166,,,,,2.61222307005049,-99.3162222201901,2.04297141820813,AttemptLanding,AttemptLanding,1,0.694914436910671,0.128328975681227,0.0823653315424251,0.961835935405272,0.347007026368706
183,1.82402469167773,2.59196829795837,-0.969447343969654,-1.52342674257095,1.82402469167773,-0.063362441956288,0.0033326651618961,0.0634500252777356,-0.0529512227498715,-0.124066402506497,0.138274337006188,0.0089178274984658,0.143813517015402,0.14596583230295,15.4456807666809,0.795679705373193,0.893981155604274,0.176108728925259,0.240241565049603,0.146528560902392,0.434730620242424,0.155599071074328,0.0399662885680051,,,,,1.87171872539055,-121.350351106356,2.24736781655614,AttemptLanding,AttemptLanding,1,0.515599750907986,0.184419816047396,0.19434022817105,0.898669728772548,0.334876195154493
184,2.50489439832112,3.0,-0.259922557113525,-2.45672278036621,2.50489439832112,-0.0129008759587552,0.0047274194461371,0.0137397632848206,-0.0112270378935464,-0.315737557742777,0.316323145982031,0.0204127458374086,0.22536704723457,0.227013182599218,15.4249373389965,1.50980431761146,1.18060925885,0.0757472762411186,0.247327149397902,0.194490271839261,0.460465061096184,0.0736563257607793,0.127455861892632,,,,,2.70378156394852,-95.0700514349474,2.32540515553681,HoldLanding,HoldLanding,0,0.713374476072141,0.113917716979966,0.147434361113323,0.940987398064386,0.313559879182551
185,1.86797440362473,2.89887380599976,-1.1131785816135,-1.48405489866202,1.86797440362473,-0.0383554255282788,-0.0169983223612292,0.0419533268114891,-0.0762073217089332,-0.131442025094982,0.155257482847792,0.0100129156919863,0.156004041598742,0.157255474274335,15.4724229084033,0.672399476817328,0.834097626006444,0.161934378024558,0.248717592225521,0.240053591615862,0.463170590202243,0.176516664940356,0.0048653240284116,,,,,2.15708888634091,-124.745911655981,1.96780381615513,AttemptLanding,AttemptLanding,1,0.529577602488129,0.239643808783153,0.224007345092099,0.907196048036963,0.293309514837395
186,2.07118223383275,2.89694023132324,-1.1269801885608,-1.72148619513173,2.07118223383275,0.0062031356808109,0.0036693963216164,0.0072071743172787,-0.0690258642541054,-0.155420683360179,0.172926033628764,0.0111700696111526,0.142500544653496,0.143919694212663,15.3831775692341,2.17590135340306,2.02508355540818,0.0213736652223158,0.0536407055047254,0.144022775176748,0.428615863696805,0.0006740616463231,0.0078137161433489,,,,,2.10837557196529,-122.363616262261,2.18183072077827,AttemptLanding,AttemptLanding,1,0.581099201197933,0.187116864726861,0.115411053114892,0.956305428819611,0.335989877699223
187,2.06112671218462,2.81440305709839,-1.11953151659774,-1.71333163991716,2.06112671218462,-0.0611582339776753,0.006568025355959,0.061509906034269,-0.068956985270081,-0.156048121069477,0.173717362923491,0.0112053496050599,0.150347023377093,0.153096765178148,15.4304015072335,1.02920627957,0.957988831547313,0.176146907853117,0.240279608930941,0.140259917288129,0.438475323709191,0.154802133956734,0.0426278842089537,,,,,2.09849345512064,-122.244984043751,2.44857409237075,AttemptLanding,AttemptLanding,1,0.580253142951529,0.18076399371188,0.192760393455599,0.896312870200377,0.337662258983054
188,2.04299808508598,2.82033276557922,-1.16184669281822,-1.66259652427272,2.04299808508598,-0.0659286144761736,0.0052003872437838,0.0661333972681975,-0.0740124588342349,-0.146267973104588,0.167345203676522,0.0107955974287594,0.131377676533614,0.133975943035394,15.4276678760128,0.998405893570425,1.1210991767702,0.176103186918378,0.240270661604465,0.196071650620402,0.490192485877293,0.155400325329268,0.0391625305657804,,,,,2.08252249604559,-123.526280590972,2.22951801400126,AttemptLanding,AttemptLanding,1,0.57159467796334,0.187024759276817,0.195522587029281,0.895295152416706,0.31285704416871
189,2.50087267539174,3.0,-0.774849381037961,-2.34479899780857,2.50087267539174,0.0068404547890418,0.0044675197308262,0.0081701012396572,-0.0404160625167389,-0.28889742731256,0.293851581969263,0.0189740123974569,0.210115866781095,0.212366753269758,15.403978628364,1.96443134523736,1.84140712964355,0.0206765243900471,0.0584388126190877,0.131461346593309,0.495328478030204,0.0020056701909961,0.0079377591646058,,,,,2.71977714743149,-106.924123588306,2.18562858975012,AttemptLanding,AttemptLanding,1,0.709372730758416,0.113801499930795,0.0720587668102916,0.959758721216626,0.341572734847418
190,2.01309402517024,2.69775056838989,-1.09708771001272,-1.67235639789424,2.01309402517024,-0.0536798604785662,0.0039610775631794,0.053825807531888,-0.0658638376822088,-0.147309311868427,0.164041401482222,0.0105822630983502,0.12869818762288,0.131392163039317,15.4155562402243,1.07750383798631,0.97475042669082,0.176105548137877,0.240240465735577,0.138826121239481,0.449983922547132,0.15554095936389,0.0389168090794706,,,,,2.06580628279313,-122.281189709167,1.96728991655243,AttemptLanding,AttemptLanding,1,0.563103505986595,0.163915786938601,0.18163035437399,0.895822370994312,0.338299501671342
191,2.02620787395013,2.75583148002625,-0.991823736650796,-1.74506238485076,2.02620787395013,-0.0649970929582207,0.001084905918319,0.0650061467391445,-0.0560630516264454,-0.162876540760523,0.175473080409134,0.0113229364814152,0.172799555115649,0.17557099882815,15.3511291375156,1.22369523642747,1.23676326380574,0.177500818284498,0.243516306437526,0.179256229608986,0.506407077487097,0.157922965613769,0.035475540060759,,,,,2.07634549688122,-118.754548572983,2.43117266125993,AttemptLanding,AttemptLanding,1,0.575436299485666,0.176083104935968,0.188738044064542,0.891917416927347,0.320330564618229
192,2.46610591882049,3.0,-0.948824191448159,-2.24035992997305,2.46610591882049,0.0104367148107272,0.0072284200010487,0.0126954744595077,-0.0563213488605705,-0.265410000276473,0.27497968424527,0.0177548161268999,0.220772772810686,0.222881720540948,15.3717799065367,1.94217935258336,1.72720754580168,0.0252814084349795,0.0600596674574286,0.120837546451681,0.532085741582387,0.009620550024336,0.0055274997315114,,,,,2.68099720733185,-111.612146549017,1.98423115138989,AttemptLanding,AttemptLanding,1,0.702204589126986,0.1224536719163,0.079758003062964,0.958528398723771,0.346294423799253
193,2.04871599146184,2.92099905014038,-1.05764433563031,-1.73877408966337,2.04871599146184,-0.0681579920464192,0.0024007948326278,0.0682002616976513,-0.0616373729112539,-0.160224259847895,0.174139261462534,0.0112316426527722,0.15046478043217,0.15326041500823,15.4299154055373,0.933040270095845,0.903227243982484,0.176394029982766,0.24029465320074,0.145521829186954,0.406655692654087,0.153035704531423,0.0402582594527903,,,,,2.11900443077325,-120.570247299149,1.58001765638968,AttemptLanding,AttemptLanding,1,0.576976347391469,0.208767069513908,0.207915477462719,0.897375168826573,0.335323631472465
194,2.41290575815431,3.0,-0.952987583538113,-2.18109464340018,2.41290575815431,-0.0139523151335649,0.0172986528890579,0.0222240970426791,-0.0582342225199376,-0.264283190983981,0.274624026587635,0.0177312073665911,0.230855797060873,0.232371514587129,15.3961384312646,1.70365143351311,1.6796515257248,0.0628241084267542,0.240381391575266,0.140126764904962,0.509720509041239,0.0019428156420789,0.0089203805822957,,,,,2.61715863552686,-112.220792726245,2.18289081393604,HoldLanding,HoldLanding,0,0.689915838425241,0.136170622206439,0.0858096216997634,0.942004851106896,0.337721437820017
195,2.0352551369059,2.80907154083252,-1.01921938765241,-1.74516416870856,2.0352551369059,-0.0583846732727246,0.011844970549737,0.0595741000812177,-0.0574967230599831,-0.161333004957762,0.173839208463437,0.0112126847969455,0.148768734868538,0.15148021291729,15.4420116934004,0.931240264184046,0.965601397637464,0.175531521497999,0.240302876167758,0.153113226310512,0.448739580069961,0.156029610605067,0.0402110832184991,,,,,2.08957514186263,-119.371133784789,1.60456403607622,AttemptLanding,AttemptLanding,1,0.573030745758365,0.185030609231713,0.194987071220734,0.897330483336689,0.331949677195328
196,1.93514705302325,2.83797669410706,-0.905568095671946,-1.69548804051561,1.93514705302325,0.0059667538758968,0.0038124051860641,0.0070807192514785,-0.0456735238192965,-0.150889293012899,0.159480206948985,0.0102986275928083,0.136072361654316,0.13729538781311,15.3366297101809,2.07199890268866,1.91274622495936,0.0264944689643653,0.0661017076143234,0.140274399950377,0.49892966507658,0.019552755451155,0.0059149178747866,,,,,1.98818975952798,-117.123132335998,1.77388273941373,AttemptLanding,AttemptLanding,1,0.543498291702154,0.204434801106628,0.133501873425019,0.955444053800583,0.337655822244277
197,1.90910888438257,2.96392798423767,-0.87340443786147,-1.66746934891128,1.90910888438257,-0.0887077479905427,-0.0094060687053232,0.0892050373131635,-0.047306983256856,-0.153096288230488,0.163849944642386,0.0105686924454201,0.197867430118594,0.200336497584573,15.443449891548,1.03611806813945,0.784709734635053,0.175769279555135,0.240309292696126,0.139316006887326,0.388641575268796,0.156304947184713,0.0421735774771294,,,,,1.96491164649544,-115.571452830696,2.31338242206681,AttemptLanding,AttemptLanding,1,0.549163002018933,0.253688554308145,0.237017844355635,0.897808856057776,0.338081774716744
198,1.82760584998775,2.61670064926147,-0.814940406155131,-1.61592818336501,1.82760584998775,-0.0670703715765572,-0.0104652554829612,0.0678819292281907,-0.03867529160681,-0.139834420139049,0.147185590528438,0.0094956975139223,0.147467111900414,0.149779220354096,15.3992883284064,1.17044081153657,0.890515634315682,0.176649049961941,0.240233367510329,0.155082349901993,0.442366243885467,0.159123003695755,0.0378902134953885,,,,,1.88489007794024,-115.359098105949,2.27307538311399,AttemptLanding,AttemptLanding,1,0.517317404067553,0.189991350195089,0.198494404545813,0.895482245801619,0.33107451115467
199,2.48336735258134,3.0,-1.12874287849377,-2.17809268559082,2.48336735258134,0.0084472350604896,0.0053511085106504,0.009999507110849,-0.0748719938549102,-0.251097230934287,0.267138061923772,0.0172534758848016,0.211909930970979,0.213936948519619,15.3452351257148,2.09517143016804,2.04545076058979,0.0232675848510916,0.0742832635450571,0.134852548847993,0.491579420164608,0.0036538387057128,0.0080228074785749,,,,,2.68563096804021,-116.007396076949,2.12103037416745,AttemptLanding,AttemptLanding,1,0.705018683725615,0.11807558863952,0.0753866660350259,0.955832747504214,0.340065533845336
200,1.91415817945596,2.77443695068359,-0.82637575125149,-1.70463471801167,1.91415817945596,-0.0691578653615526,-0.0100071471494813,0.0698781320259637,-0.0400433629209523,-0.155020087022865,0.162333190184358,0.010472356665772,0.161558443567759,0.164080344244894,15.4170549328184,1.13710862836625,0.95889105782942,0.175655175321925,0.240272395677519,0.179141331068305,0.432225618344039,0.155795195048218,0.0405791518347181,,,,,1.97177383483815,-114.893051128023,1.78501357974671,AttemptLanding,AttemptLanding,1,0.543258250037234,0.206373714397645,0.207822592761531,0.895703843376071,0.320381630636309
201,1.8490884104031,2.70009613037109,-0.781373202039102,-1.65338906698567,1.8490884104031,-0.066843394231111,0.0056319875807143,0.0670802402831493,-0.0359389697482177,-0.145064825002855,0.151674365653328,0.0097836309446383,0.14558000084495,0.147893117043808,15.4041887011023,1.01458565420515,0.89251448052985,0.17615585030166,0.240239775655943,0.127428644488104,0.499884466630736,0.155275832602131,0.0408484692203427,,,,,1.87135485490829,-114.338554000358,2.3565143275765,AttemptLanding,AttemptLanding,1,0.522668866182923,0.203774781044708,0.206130338590725,0.896937716647681,0.343365046894176
