scenario_id,mean_wind_speed,max_wind_speed,wind_velocity_x,wind_velocity_y,wind_velocity,wind_acceleration_x,wind_acceleration_y,wind_acceleration,wind_body_force_x,wind_body_force_y,wind_body_force,mean_wind_body_risk,mean_wind_gust_risk,mean_wind_risk_raw,min_thrust_margin_n,mean_abs_roll_deg,mean_abs_pitch_deg,mean_abs_vz,max_abs_vz,mean_tag_error,max_tag_error,stability_std_z,stability_std_vz,mean_imu_ang_vel,max_imu_ang_vel,mean_imu_lin_acc,max_imu_lin_acc,wind_speed_cmd,wind_dir_cmd,hover_height_cmd,gt_safe_to_land,label,success,onto_wind_condition,onto_gust,onto_temporal_pattern,onto_drone_state,onto_tag_observation
1,2.03475012584608,2.75336742401123,-1.25430605901296,-1.58488245809876,2.03475012584608,-0.0547860945290731,0.0121268679164064,0.0561121829838271,-0.0849480875135143,-0.132096625562293,0.160739550847237,0.0103658187787722,0.123262977072747,0.0442349662669645,15.4561701493276,1.01046807633013,1.00417649241585,0.175278357446671,0.240247372871494,0.131230418134514,0.424482623274047,0.156764260860092,0.0412701194080427,,,,,2.0716688985117,-127.374480982322,2.31472368639318,AttemptLanding,AttemptLanding,1,0.551447026812349,0.171976125634193,0.187865996355602,0.89653147109366,0.341675369717994
2,2.30489468495051,3.0,-1.39850915947115,-1.79288751913341,2.30489468495051,0.0071005175898892,0.007462649114808,0.01030089713836,-0.110993829785119,-0.174154901156096,0.216007324539083,0.0139357940722711,0.227149943621468,0.0779000389370302,15.4687555850008,1.75083829227576,1.6298456007842,0.0330293659088792,0.0831035517101831,0.128104334891228,0.424719410046553,0.0104077373287512,0.0074001168647496,,,,,2.42882567996652,-126.095851442396,1.65567109748004,AttemptLanding,AttemptLanding,1,0.630218590440876,0.158287193694834,0.102288928839083,0.956922800742946,0.343064740048343
3,1.73897643697342,2.84049797058105,-1.06989995938212,-1.33918471868168,1.73897643697342,-0.0795708049440836,0.0197470862775564,0.0819845132686818,-0.0674599346014501,-0.101706394382931,0.128109867397278,0.0082615950706534,0.180891291995724,0.0600505041481745,15.4753579897554,0.895913507828681,0.931427460558223,0.176011865763657,0.240248666343634,0.164572747392121,0.450204754255585,0.157184660122797,0.0411003808397674,,,,,1.87319628751653,-127.297520073929,2.13255888853765,AttemptLanding,AttemptLanding,1,0.475737150689213,0.262872839160977,0.242529145472694,0.897636388080846,0.326856556714613
4,2.34321164746656,3.0,-0.66980083093704,-2.21616862093297,2.34321164746656,-0.014743827278112,0.0134918346596461,0.0199852456900091,-0.03275568466581,-0.273177914158177,0.276762415106191,0.0178591527052966,0.231161499763815,0.0818498568228522,15.4139777573154,1.89957615857031,1.54481474672497,0.062303880125129,0.24036058563287,0.150699976260827,0.451820245397372,0.0019450348026316,0.0095566674759611,,,,,2.46779887999601,-105.553838771394,2.09812028932176,HoldLanding,HoldLanding,0,0.641226410688988,0.151441341029858,0.0952044163396359,0.941784988538687,0.333022232772966
5,1.80421132781879,2.59805178642273,-1.03900503532211,-1.46232560143045,1.80421132781879,-0.0409633504464799,0.0139577868393289,0.0432760429481863,-0.0583004733282704,-0.112807400533299,0.129111419931802,0.0083256541274599,0.116615154735149,0.0408125043097668,15.474155282571,0.875199809410145,0.937724191667322,0.17782832937896,0.24020531237398,0.137410117652638,0.480732068668519,0.156613442264331,0.0387110735716318,,,,,1.88084050141636,-125.058018224367,2.46655571633148,AttemptLanding,AttemptLanding,1,0.48928552161363,0.186548044393055,0.195611555001583,0.896841432444911,0.338928836598828
6,1.88992125272751,2.71349406242371,-1.04306207217645,-1.55329433776558,1.88992125272751,0.0044832536222237,0.0021705115806843,0.004981032379243,-0.0604685899192566,-0.127951005807189,0.145376774682119,0.0093785152673082,0.153552947914394,0.0526308450614339,15.4544999532548,1.63550533464423,1.48616376499368,0.033422855309651,0.0497753119009196,0.119794353427913,0.438748348108448,0.020468297994376,0.0055713428932513,,,,,1.9161886291726,-122.783489357006,1.64592234258661,AttemptLanding,AttemptLanding,1,0.514505169739622,0.186217071451172,0.12285320707181,0.958761172276591,0.34675806514315
7,1.89938454563115,2.83119463920593,-1.06130823163625,-1.54193456684051,1.89938454563115,-0.0755951540064897,0.0078803192455895,0.0760047810382827,-0.0658701712980762,-0.131442710133184,0.153023003059615,0.0098673110429975,0.203707296272077,0.0680193066117215,15.4916762218351,0.845022183105557,0.945206684059026,0.177103165826388,0.240293224264913,0.153470418752833,0.441405993021622,0.159406872910155,0.0369423356220101,,,,,1.96867067391655,-123.586570068552,1.83260190102123,AttemptLanding,AttemptLanding,1,0.520106406823984,0.223591480911345,0.218435964207809,0.897382333130513,0.331790924998741
8,1.91503182236029,2.7147364616394,-1.11691351597277,-1.54041099466128,1.91503182236029,-0.0388430025477554,0.0079039747107077,0.0396390169296924,-0.0676858653513451,-0.125734461083371,0.145632521024355,0.0093912099333617,0.131176170913683,0.045926698227458,15.479118557974,0.92931321028836,0.968994475755322,0.176766042300681,0.240224251932707,0.172518753862647,0.441674227781573,0.159460598566824,0.0377509187529226,,,,,1.96461919299708,-125.030810267647,1.61713621122874,AttemptLanding,AttemptLanding,1,0.519860492274903,0.187200696941577,0.196919402125002,0.896701704173602,0.323324998283268
9,2.62863034089406,3.0,-0.825997708221441,-2.46197199916329,2.62863034089406,0.0063935947596185,0.00085852737074,0.0064509784681497,-0.0444479442083733,-0.315419697225867,0.320713407300238,0.0206953913958805,0.193987557577423,0.0726830412503433,15.4324667977683,2.00535234076349,1.96446897201695,0.0338681727439821,0.062697721400279,0.134593648141992,0.439035213193701,0.022854259683692,0.0062081243155441,,,,,2.98365709536118,-106.900241715489,1.61031925399391,AttemptLanding,AttemptLanding,1,0.715504699155152,0.0847408526846632,0.0632594601102124,0.951874460456163,0.340180600825781
10,1.83745858539529,2.76752519607544,-1.10195258957385,-1.43819293222047,1.83745858539529,-0.0686097104343685,0.0063043976977932,0.0688987503240794,-0.0701648707841222,-0.114269037570617,0.140437148683328,0.0090562888132623,0.180039778206828,0.0603513356313319,15.4806179522302,0.980091865631438,1.10375652068181,0.176737557489046,0.240280623671215,0.169351442601516,0.47853334374126,0.159542162088848,0.0360576017209295,,,,,1.92399487038037,-126.353098118705,2.3498926722071,AttemptLanding,AttemptLanding,1,0.502059223231678,0.221896424962447,0.217157337743759,0.895258126791587,0.324732692177104
11,1.84969778531263,2.69632577896118,-1.13170352206298,-1.44685407907146,1.84969778531263,-0.0455929678452174,0.0169507975963206,0.0486420420632857,-0.0687898797158786,-0.111364673696944,0.133994441834575,0.0086405648640741,0.126084051315749,0.0438736107995766,15.4826785991007,0.922064768620392,1.07876464900393,0.176606009323983,0.240240461199981,0.178139440796315,0.506606306316243,0.159575459085773,0.0384552978878838,,,,,1.90759543141243,-127.844704273722,2.11288325154555,AttemptLanding,AttemptLanding,1,0.502027464909949,0.199409006282527,0.204551574716363,0.89597619277096,0.320826915201638
12,2.62883688131968,3.0,-0.784989370465773,-2.47776382893543,2.62883688131968,0.0069578996329483,0.0038879872762262,0.0079704963686259,-0.0404323973524348,-0.319205993513213,0.323570477246282,0.0208781639842448,0.191550254198613,0.0720797910485554,15.4451292362574,1.91856507502639,1.66185868847164,0.0291099102436281,0.0758438244424462,0.116872217748237,0.497830197237323,0.0071973601199085,0.0055806376159523,,,,,3.0,-106.299635778902,1.87845414813041,AttemptLanding,AttemptLanding,1,0.715439126561626,0.084972959370653,0.0562119251117884,0.957313143879273,0.348056792111895
13,1.96372073199473,2.83989381790161,-1.04436920751249,-1.63053341202824,1.96372073199473,-0.0767357011458583,0.0055936827940911,0.0769393080131826,-0.0644987338411484,-0.145975509647837,0.165151681913781,0.0106517794031949,0.193407012692264,0.0654783493899157,15.4462860401316,1.22892082219251,1.1928934361375,0.176499627045143,0.240321575334229,0.184494531480292,0.474174339929907,0.156587489103888,0.0424064485447784,,,,,2.02726066309477,-121.319262228342,1.97487253333339,AttemptLanding,AttemptLanding,1,0.536754531743245,0.211244484131465,0.211761656824162,0.892721645876264,0.318002430453204
14,2.57845350694209,3.0,-0.690799647816945,-2.45076697422229,2.57845350694209,-0.0095426722721458,0.0211590051011435,0.0232113353981153,-0.0360351531935451,-0.327859855349017,0.331600482789968,0.0213929779276901,0.202871860558551,0.0758366427169484,15.4480885216539,1.66488601760346,1.57147018750319,0.0631940030055589,0.24036659893341,0.129626505214432,0.539305618570003,0.0019393019760261,0.0110464793623143,,,,,2.96211416560549,-104.652706865072,2.24321656606111,HoldLanding,HoldLanding,0,0.702754930394613,0.0991033724276851,0.0643408370322521,0.942974485457097,0.342388219904697
15,1.70809711323303,2.28010058403015,-0.915905800922839,-1.4223558903583,1.70809711323303,-0.059435408883338,-0.0004049782104815,0.0594367885781234,-0.0468303523403715,-0.107485987938884,0.11999944517902,0.0077375902017522,0.130828426962418,0.044664841229952,15.4857706382897,0.753874495188285,0.691821131193371,0.177498575223896,0.240216729644833,0.11499777310179,0.384320165404193,0.159548300716528,0.0357854321443984,,,,,1.78867162897179,-121.8764556945,2.43971225162336,AttemptLanding,AttemptLanding,1,0.4644255317748,0.139597525502007,0.167681755591362,0.899891675323625,0.348889878621427
16,1.77020054578781,2.44779229164124,-1.00378506016284,-1.44379613136904,1.77020054578781,0.0050527589607793,0.0032200391090332,0.005991579506227,-0.054839778690274,-0.109920545429457,0.12519185521746,0.0080760679873021,0.124128098706326,0.0428916772030093,15.4600263140925,1.69285827141884,1.88026661976271,0.0176408168731434,0.0442049285115896,0.12123106004264,0.441327025585267,0.0002449731762015,0.0069038909346185,,,,,1.79698325918466,-123.928221238646,2.36475924237542,AttemptLanding,AttemptLanding,1,0.480631814317352,0.153556599059829,0.0947533421975046,0.963105038847002,0.346119528869938
17,1.86370810278419,2.63358521461487,-1.01812091956899,-1.54422308603534,1.86370810278419,-0.0401132460926522,0.0139262380940247,0.042461896089802,-0.0568853407460927,-0.12655783076953,0.141459169416536,0.009121497676665,0.131722875810911,0.0459019111169389,15.4760981809671,0.824020987260723,0.906611424228964,0.17742180755596,0.240249394903872,0.137896009468237,0.420181417750674,0.159505789740445,0.036353199243596,,,,,1.90606506718967,-122.683382350962,1.97282671671683,AttemptLanding,AttemptLanding,1,0.506169209632505,0.1810070311117,0.192715025953374,0.897691270131744,0.338712884680784
18,1.83420731826704,2.76626396179199,-1.04589832233376,-1.48630691799385,1.83420731826704,-0.0589084744663657,-0.0034452027145594,0.0590091330702195,-0.0613754381166162,-0.118268247875809,0.136760647729571,0.0088191694215221,0.14318240078012,0.0491281388291015,15.4707338667658,0.961210018033434,1.0046010336198,0.1775659345537,0.240235522992894,0.134733641925491,0.485163212306226,0.159581567849599,0.0366235365100746,,,,,1.87952489310621,-124.36494621675,1.71629764059485,AttemptLanding,AttemptLanding,1,0.498947579303699,0.220531085855987,0.216561442420108,0.89577137446016,0.340118381366448
19,2.61885878205299,3.0,-0.780119708760981,-2.46762442710504,2.61885878205299,0.0059011161701861,0.0035674865291053,0.0068956603881992,-0.0403364138203192,-0.316851715267323,0.3212956151071,0.0207283542598987,0.191277114856912,0.0718929824390026,15.4586978392806,1.7690130336178,1.63658967716545,0.020499731176692,0.0468987652830229,0.119005374474311,0.423412804895208,0.0002087029637157,0.0057887387631007,,,,,3.0,-106.031594526481,2.25269504080582,AttemptLanding,AttemptLanding,1,0.712740938368599,0.0870209784425796,0.0544103398521651,0.962991827398357,0.347108722455862
20,1.88881922498041,2.6728937625885,-1.0181592726489,-1.57666441536993,1.88881922498041,-0.0497942284664789,-0.0014992741473146,0.0498167944727549,-0.0568916471702712,-0.13128701235469,0.14539436837564,0.0093774960570658,0.132702320872451,0.0463749435016813,15.4466050013205,1.20497212302732,1.15585572032392,0.175966451203265,0.240225506794049,0.164521379374069,0.494431869398197,0.15669658835748,0.0421921550797487,,,,,1.95533603544456,-121.682915799118,2.19740960716741,AttemptLanding,AttemptLanding,1,0.51296011536178,0.185549849948492,0.196315439975156,0.893467412772036,0.326879386944858
21,1.95633556080513,2.78643894195557,-1.07863186121747,-1.61760417506989,1.95633556080513,-0.0498663879659832,0.0162985796296964,0.0524623707691476,-0.0630476427378717,-0.138740452166201,0.154962153784977,0.0099927661148354,0.131216527120636,0.0463598944165756,15.4819164962802,0.943818152507096,1.04802803787182,0.175857003705899,0.240254846706087,0.155270006152135,0.483289136790205,0.156723949430684,0.0397035013758643,,,,,2.01006102178809,-122.843348050567,1.98738547656474,AttemptLanding,AttemptLanding,1,0.530961461764684,0.196391362066525,0.201927542739725,0.896421278079788,0.330991108376829
22,2.62439020514488,3.0,-0.738943740775518,-2.48517361437096,2.62439020514488,0.0065462875310108,0.002363746521704,0.0069599696879754,-0.0373629869465714,-0.321028927970767,0.324987384837462,0.0209700482700058,0.193902136781798,0.0728496748235435,15.4417461091139,1.99900499070568,1.8296895295695,0.0311101528273043,0.0781132476330711,0.121767515953524,0.501583678000578,0.0103421364764093,0.0052407213076828,,,,,3.0,-105.373889448931,1.82377291002939,AttemptLanding,AttemptLanding,1,0.714407323003344,0.085788198285197,0.0579751409109019,0.954362323784186,0.345881104020656
23,1.68956370499669,2.44484710693359,-0.810518940493634,-1.4696216229329,1.68956370499669,-0.0365881972419198,0.0136617652299848,0.039055601475497,-0.0362342831260884,-0.115067715757333,0.122123429469059,0.0078745358366593,0.122409846618749,0.0422351290712863,15.4833629044739,0.755264070532842,0.768459252237523,0.176542534751109,0.240212345669406,0.123628419680192,0.424027728251742,0.159525365939548,0.0386568267717727,,,,,1.75191981509009,-118.497538474994,1.58368807991618,AttemptLanding,AttemptLanding,1,0.458997347146709,0.177098959039644,0.191216565980594,0.899756620802678,0.345054035697692
24,2.68242712261585,3.0,-0.631390910209066,-2.57234184950192,2.68242712261585,-0.0308389676696291,-0.0069229625958677,0.0316064762039714,-0.0278743137235671,-0.340962277562517,0.343222808071326,0.0221490508809727,0.19725030165697,0.0746794261137719,15.4120890765039,1.96688070731862,1.52778990270317,0.0623898080140396,0.240437497233622,0.128497642329985,0.501550795767036,0.0018632175069936,0.007116594510009,,,,,3.0,-102.185830974197,2.01629427344342,HoldLanding,HoldLanding,0,0.730249784586981,0.0772484180488283,0.0497650000481662,0.94134696977138,0.342889936742229
25,1.73622809624185,2.66485524177551,-0.945134038994373,-1.42879051905824,1.73622809624185,-0.068598935777993,0.0028299630135785,0.0686572842496077,-0.0526124359950375,-0.112061685404776,0.128241824342303,0.0082700232923128,0.176848864710102,0.0588436757176497,15.4641202598007,1.03242772291209,1.04317997581186,0.1769790505372,0.24025211471164,0.170454294468176,0.49264926825416,0.159432554544135,0.037230112667224,,,,,1.79680657025774,-122.144595008979,1.62869525987161,AttemptLanding,AttemptLanding,1,0.474762894141358,0.221528276524168,0.217314101833309,0.89520212852714,0.324242535791922
26,1.84410832378777,2.73852348327637,-1.03100674081438,-1.50261676705235,1.84410832378777,0.0010739413033623,0.0003879113492826,0.0011418516269506,-0.061015194171293,-0.12250694898457,0.141511103068152,0.0091324060275975,0.184805708602315,0.0618343968000128,15.3978885730943,2.18380323057579,2.20025434861637,0.0285582411688492,0.0737544084970146,0.143007366635006,0.499508929653404,0.0199311877748523,0.0062410645271944,,,,,1.89015622586425,-123.159855511628,1.50494273396477,AttemptLanding,AttemptLanding,1,0.50412909903674,0.201452750349876,0.131999433897527,0.951274712721923,0.336441170384442
27,1.68068735271492,2.42282819747925,-0.803469035697134,-1.45557632947845,1.68068735271492,-0.0541301539544894,0.0133370697842557,0.0557489999692087,-0.0380708988385881,-0.114145147706311,0.122786294958588,0.0079182133294833,0.136065628575146,0.0463624379031821,15.4707731150315,0.929642603821434,0.925831488529934,0.174676402613202,0.240211512743242,0.17566956500195,0.390535186954886,0.157304532162163,0.040670115218666,,,,,1.77620387229689,-117.832865156267,1.72340200492394,AttemptLanding,AttemptLanding,1,0.457455781637949,0.177202340066328,0.19102366225199,0.898083073682067,0.321924637776911
28,1.71432125408377,2.47289609909058,-0.975828415044357,-1.389753800277,1.71432125408377,-0.0633446675297392,0.0023442348623727,0.0633880299547411,-0.0535917218382066,-0.103416601171519,0.1196395800263,0.0077148527148299,0.138072979617815,0.0468222907857253,15.4843705838497,0.833889938123383,0.92179948939535,0.174167070826082,0.240215994613105,0.159501994246473,0.455700010772756,0.156700771199085,0.0416652298552223,,,,,1.77693740749085,-123.63065316624,1.64979513455614,AttemptLanding,AttemptLanding,1,0.466516792579485,0.182300478951566,0.194176067245159,0.899121761942169,0.329110224779346
29,2.62537919680278,3.0,-0.515272479989401,-2.54084461938412,2.62537919680278,0.0062877593547295,0.0037721197745997,0.0073324487926555,-0.0230264383248389,-0.335399005571239,0.33703097974314,0.0217500656272413,0.192940063206747,0.0731070649010931,15.4053831865715,2.09431272341722,1.92531390144036,0.029668611921514,0.0707991304216769,0.123060091226102,0.50691061922691,0.006542886455045,0.0043921369057443,,,,,3.0,-100.208461528465,1.89220263592634,AttemptLanding,AttemptLanding,1,0.714722532127625,0.0856339629980291,0.055885468027391,0.953582913415362,0.345306626121733
30,1.83963244707406,2.76275205612183,-0.926213419978962,-1.57580839750498,1.83963244707406,-0.0445034718945588,-0.0011116649512848,0.0445173540277688,-0.0472718707782015,-0.132094387035251,0.142150646237586,0.0091668580547664,0.131249282527337,0.0457915853965377,15.4625210014958,0.982518759982469,0.851757856124689,0.176495145810018,0.240230101808328,0.122591617116208,0.393700026926927,0.159460268678932,0.0365831708767516,,,,,1.90894849737311,-119.745808657761,1.61787681919699,AttemptLanding,AttemptLanding,1,0.49972696963239,0.215863426940838,0.213692257916382,0.897340253682721,0.345514836837241
31,1.90016264818153,2.61893248558044,-0.939208894055757,-1.63778946301044,1.90016264818153,-0.043012696673462,-0.0025353684517724,0.0430873550860283,-0.0486513304385414,-0.142444761808196,0.152465799767571,0.0098313380393146,0.133982239366638,0.0470766084375116,15.4771179268887,0.909949455181355,0.897741854053941,0.176877113480294,0.240288828301626,0.159767864958819,0.43864727822551,0.159503623167468,0.0364426551565648,,,,,1.95935225919259,-119.13516242978,1.5327881671086,AttemptLanding,AttemptLanding,1,0.516125361202576,0.169622561847195,0.185915910896246,0.897358154401576,0.328992060018303
32,2.61856497486432,3.0,-0.64454308145653,-2.5047317137003,2.61856497486432,0.005300234321712,0.0027780943424406,0.0059841701212913,-0.0308199248657078,-0.326645389056059,0.329393383453792,0.0212499231877448,0.196191886491633,0.0737325121789112,15.4620897668776,1.7127854122148,1.33735516336105,0.0333046816394037,0.0488765655306904,0.113841317137078,0.433857274159347,0.0257351700836084,0.0059170195186958,,,,,3.0,-103.01941117063,1.51682517130966,AttemptLanding,AttemptLanding,1,0.713030495732935,0.0869199785110972,0.0657414839384949,0.959382268943631,0.349403859050187
33,1.89649216577309,2.64447784423828,-0.816767258182723,-1.69523754197372,1.89649216577309,-0.048772084651365,0.0006410254031808,0.0487762970592011,-0.0375766378150931,-0.151949590342289,0.158159355355909,0.0101992867543316,0.127511701943267,0.0453930113110121,15.4757822936535,1.02898775526796,0.940071654114776,0.177578346586168,0.240253638606262,0.158113581919187,0.448470060767769,0.159549047120577,0.0359911066860697,,,,,1.93692079365451,-115.089103932968,1.78484246614727,AttemptLanding,AttemptLanding,1,0.514809846468361,0.177239098782188,0.190341822037029,0.895739645633195,0.329727296924806
34,2.6765428479825,3.0,-0.591797652792588,-2.57448197915283,2.6765428479825,-0.029832795589891,-0.0070654917948198,0.0306580636539701,-0.0248089295566908,-0.340242037473733,0.34218562271418,0.0220721799567581,0.198417933637422,0.0749759060609573,15.4581574132606,1.49689895560009,1.03231146101421,0.0629470152112507,0.2402895928752,0.106782955387211,0.439438311877739,0.0018508341210516,0.0092889839344702,,,,,3.0,-101.157933097739,1.72648283786412,HoldLanding,HoldLanding,0,0.72873994067419,0.0783985042071663,0.0512395078067968,0.948654124835262,0.352540908716795
35,1.80761875749445,2.41881465911865,-0.812640053437976,-1.59506492752212,1.80761875749445,-0.0512126685250566,0.0056703828564361,0.0515256310897391,-0.0382887264339276,-0.135575760792317,0.142923399159587,0.0092157555394863,0.146513018662425,0.0504049344763679,15.4922933437137,0.822608999299994,0.869700258685636,0.176116226752541,0.240255944444404,0.165521302878354,0.429711863179658,0.159547758259747,0.035992914030547,,,,,1.86137587595629,-115.841095627455,1.87284482051647,AttemptLanding,AttemptLanding,1,0.492112655560461,0.14696544356523,0.172177713295992,0.898645171025271,0.32643497649851
36,1.9635726638635,3.0,-0.89860131721619,-1.71638415421511,1.9635726638635,0.0093824739819755,0.004484630530095,0.0103991696309806,-0.049322701313417,-0.159650605626114,0.170835012363937,0.0110233871366696,0.208684365759137,0.0703216807234098,15.4447074952861,2.06496138520414,1.68254893521011,0.0236018543134088,0.049114360675941,0.128499393764586,0.438125861778228,0.0004358858763629,0.0098935900782253,,,,,2.00134863438598,-116.022448666907,2.11404407257768,AttemptLanding,AttemptLanding,1,0.537683713174949,0.235102665063059,0.144852995213351,0.958754348897184,0.342889158326851
37,1.81228006534836,2.55730319023132,-0.814349706447079,-1.60619403184949,1.81228006534836,-0.0435326318839303,0.0047241869348743,0.0437882173756528,-0.0372251671121046,-0.136391851891227,0.14274092743414,0.0092043204524553,0.124210733371314,0.0437062443281128,15.4901066069973,0.870186721772168,0.566944777913745,0.175957047510094,0.240239076544569,0.113289547104892,0.389096399102773,0.159600406263177,0.0358870591419466,,,,,1.84847057739295,-116.145839673518,2.14433222219332,AttemptLanding,AttemptLanding,1,0.492015932958518,0.17565804295087,0.189378179353248,0.900729728747421,0.349649090175604
38,1.93880276858401,2.81497287750244,-0.763627589803922,-1.75468746668077,1.93880276858401,-0.0648861681325897,0.0060925662134695,0.065171574923399,-0.036383759782408,-0.167400910541106,0.173699840067172,0.0112012936882984,0.1847902701201,0.0632779866178388,15.4634145297766,1.02184083108067,0.855716797363978,0.176709644994123,0.240307569431804,0.122534135957072,0.465666944022172,0.159528288914086,0.036901192545198,,,,,1.9993932608471,-112.620106358339,1.53536534831059,AttemptLanding,AttemptLanding,1,0.529669668945971,0.209086396575937,0.209771915156137,0.896892938993731,0.345540384019079
39,2.63071484327316,3.0,-0.628113700044592,-2.5215487858047,2.63071484327316,0.0052217729283539,0.0058448640982767,0.0078376877229585,-0.0296854546840952,-0.33067929557949,0.333196630952863,0.021497392796324,0.196610251864104,0.0740312505166579,15.4516392772782,1.84714963670423,1.65046606310219,0.0332740368438531,0.0709755215486974,0.116826475766921,0.502328755578481,0.0172705031580829,0.0049935048197702,,,,,2.9987372183553,-102.731971335258,1.68145975288001,AttemptLanding,AttemptLanding,1,0.716330208309508,0.0845260696794141,0.0602072409234806,0.955881715365309,0.348077121881368
40,1.89576439792607,2.80630540847778,-0.307162491533608,-1.84411080371578,1.89576439792607,-0.0691698221194643,-0.0244883032595036,0.0733767080793881,-0.0106993843537007,-0.184173326353066,0.184882333292443,0.0119226975396842,0.183528735016666,0.0634045087827787,15.4594521015678,0.978578147481222,0.799043468925787,0.176624806068041,0.24029051688369,0.127935876685481,0.376605004359706,0.159615621496899,0.0350105790035597,,,,,1.96262077332345,-97.9255988407311,1.5,AttemptLanding,AttemptLanding,1,0.518218074536841,0.218324123855356,0.214665870171716,0.897720569979925,0.343139610362009
41,1.86816424982888,2.83602786064148,-0.25636330385831,-1.82334267659541,1.86816424982888,-0.0609878271908173,-0.0172721629122025,0.0633864549972836,-0.0082347647612613,-0.180624240997848,0.181114234620971,0.0116799174275289,0.186799358929748,0.0642157498781946,15.4780857427032,1.09027045585774,0.931681882914553,0.177379969960013,0.243233595503176,0.155634745551389,0.457409077000512,0.159578668225179,0.0364122053366126,,,,,1.94919332297993,-97.076725643542,1.78928734194137,AttemptLanding,AttemptLanding,1,0.511020283263341,0.229390162515669,0.221798751994512,0.895423246643925,0.33082900197716
42,2.60787093997002,3.0,-0.630974224767149,-2.49718189557218,2.60787093997002,0.0031619149674669,0.0032036951247888,0.0045012630132094,-0.0299211568117891,-0.324875794390671,0.327498315376971,0.0211296770125467,0.201617728408721,0.075276092431399,15.4438389701804,1.80383504006685,1.50033169054026,0.0338996773703891,0.0704158851418189,0.106330435409911,0.473280470627402,0.0274855236774711,0.0050861270394226,,,,,2.97766096785849,-102.83550377438,1.5,AttemptLanding,AttemptLanding,1,0.710487469144951,0.089054270059168,0.0674978510782073,0.957088851288607,0.352742028706706
43,1.8152555129966,2.56169986724854,-0.230826099888007,-1.78875968986818,1.8152555129966,-0.0403677546240999,-0.0152108872906078,0.0431384597031363,-0.0052130043270791,-0.169391422453476,0.16957748035047,0.0109350877082319,0.126007505221849,0.0454568129623171,15.4849628387315,0.959308319680386,0.729967893419447,0.176317891757926,0.240227133025119,0.144267445959523,0.400228398108976,0.159537674276367,0.0344038045547686,,,,,1.87761184680711,-96.9149867627548,1.98806545919453,AttemptLanding,AttemptLanding,1,0.493159499391556,0.175858697318928,0.188931325786628,0.898568169589538,0.335881135129101
44,2.47752595089058,3.0,-0.592572564053169,-2.3741531348302,2.47752595089058,-0.0169406681315247,0.009682280454176,0.0195123753432476,-0.0278813106954357,-0.306261207932059,0.30877910131879,0.0199183972000317,0.22016636611754,0.079992787875284,15.4528690331533,1.49039279135795,1.4542677654005,0.0624153295194587,0.240415716292087,0.122850918091006,0.375574669100119,0.0019283910263133,0.0111323327807428,,,,,2.70268226585959,-102.84402520654,2.15513810805485,HoldLanding,HoldLanding,0,0.676672144479212,0.121133929862548,0.0775855416070694,0.945655716580026,0.345399591959553
45,1.68674154781006,2.33524417877197,-0.244154751066188,-1.65668761122314,1.68674154781006,-0.0443868141908539,-0.0079223412066234,0.0450882774588645,-0.0055196172679689,-0.145824410367343,0.146033625362774,0.0094175246461931,0.116981170490983,0.0416866183996302,15.472315514713,1.00238582970781,0.527231705100199,0.176981412840827,0.240243872002413,0.152468798323283,0.37058233435331,0.156682948210704,0.0413069382350563,,,,,1.74484723470437,-96.8322370152764,1.8298242016117,AttemptLanding,AttemptLanding,1,0.45813506976261,0.154179276167221,0.177165136384504,0.899490870091809,0.332236089634097
46,1.66013796567917,2.42959785461426,-0.214752127498077,-1.63422110903797,1.66013796567917,0.0008895025801016,0.0013602660791921,0.0016252810975976,-0.0045265901039887,-0.139381985123739,0.139551983843377,0.0090037522397824,0.114438493420146,0.0406341745938914,15.4279135355845,1.83038037505303,1.69499409986504,0.0253238292983693,0.0687415779480926,0.108153889510336,0.476233168286696,0.0001798438120723,0.0053853321278902,,,,,1.71876069037497,-96.5690723186371,2.04669123727029,AttemptLanding,AttemptLanding,1,0.450830292433223,0.173426443211621,0.106094099102076,0.959638714476459,0.951931604662073
47,1.77189413219893,2.55000972747803,-0.153589256515236,-1.74774722274645,1.77189413219893,-0.0496146687696063,-0.0208659992060832,0.0538238356119853,-0.0038180757111818,-0.163503117573011,0.163650531638234,0.010553772710801,0.152093590521088,0.0530157180538872,15.4453955338962,1.03562437476881,0.65732844395613,0.177340570192938,0.240229458017189,0.109305531026258,0.372355262967586,0.159379546177887,0.0360806570034145,,,,,1.8330973949862,-93.5355183886098,1.56279454581961,AttemptLanding,AttemptLanding,1,0.483108245530492,0.184943712133327,0.194921820047168,0.898027942756407,0.35141976398833
48,1.72074845940077,2.58527874946594,-0.18816767836409,-1.69900053986116,1.72074845940077,-0.0407669984240827,-0.0198855033641283,0.0453583664228984,-0.0039065490003033,-0.152370545111503,0.152489705073589,0.0098327335636311,0.116416923778297,0.0418079906280308,15.4887734113899,0.870246467188868,0.688899238504592,0.176148845228732,0.240205304101656,0.139217709047488,0.385567672111531,0.159586073419747,0.0362740714731072,,,,,1.76093856199151,-95.8152911333806,1.72165214087011,AttemptLanding,AttemptLanding,1,0.467227853965813,0.202835015775528,0.205818724652193,0.8996751468409,0.338125462645561
49,2.6210204064846,3.0,-0.673406067779728,-2.49809985357371,2.6210204064846,0.0083275119155888,0.0041510430218892,0.0093047629133605,-0.0331292310721304,-0.32506595460025,0.328232882442865,0.0211789564647565,0.200538377952518,0.0749867829110848,15.435851840919,1.94554190902413,1.76607854749957,0.0243330089156112,0.0608617726197139,0.127975164321737,0.404890485081576,0.0004005451816898,0.0067013161442432,,,,,3.0,-103.690253195533,2.0808347952591,AttemptLanding,AttemptLanding,1,0.713936131644778,0.0869762817417469,0.0548006313600694,0.958670763383794,0.343122149190339
50,1.64761906459525,2.55328607559204,-0.173740368450597,-1.61553513023693,1.64761906459525,-0.0592635739406739,-0.021738807400281,0.0631248520268225,-0.0050890519978823,-0.142877560508834,0.143139839167824,0.0092299327484771,0.173276276951744,0.0584438360094572,15.4965779398421,0.788374389406568,0.579511125633194,0.176057921316144,0.240224430332592,0.13864588307659,0.378355277208457,0.156711058492436,0.0421097502581384,,,,,1.72627812567413,-94.411640590645,2.02042284723455,AttemptLanding,AttemptLanding,1,0.451053851093958,0.215347967012529,0.214170775994994,0.901223367438044,0.338379607521515
51,1.5868761125876,2.37356448173523,-0.125692562313325,-1.57104720695322,1.5868761125876,-0.0454624243291098,-0.0215366241924021,0.0503056478686518,-0.0023459570607298,-0.130151795504343,0.130219213523938,0.0083969953838366,0.10240187690119,0.0365984598390426,15.4644551934436,0.856098988064164,0.699834254274684,0.176048383546746,0.240144808660004,0.128401975980153,0.448351382316391,0.159494426836871,0.0342921709244247,,,,,1.64198518080473,-93.7945426045898,2.03757615670779,AttemptLanding,AttemptLanding,1,0.430486655324501,0.18622758516747,0.195092843364134,0.899750618465393,0.342932455119932
52,2.63902676902886,3.0,-0.659696850100709,-2.52190450160132,2.63902676902886,0.0064020676786506,0.008148757844505,0.010362853128864,-0.0317260639014172,-0.330458732785806,0.333274383549906,0.0215044878277343,0.194613702210078,0.0734372521424375,15.4459206623632,1.9561184967356,1.96953480699794,0.0210292408102874,0.0695395760586338,0.136002820168221,0.431992790566619,0.0014780561493829,0.0052472749449118,,,,,3.0,-102.899260755177,2.18489170661232,AttemptLanding,AttemptLanding,1,0.718427922169516,0.0831188333754653,0.0524363138494173,0.958640960779807,0.339554302147457
53,1.71269973198573,2.59488105773926,-0.149536160550147,-1.68420249556202,1.71269973198573,-0.0677164752463435,-0.0342359363300368,0.0758789849443374,-0.0041463474187063,-0.156679867062691,0.156875231485058,0.0101167881495394,0.171740315154983,0.0586038462511725,15.4564062064792,0.991356895513698,0.724954486771046,0.17505084535421,0.240209310826452,0.135715025405341,0.399345223733329,0.156942577328614,0.0396928172153635,,,,,1.76767167051157,-93.7767495596924,1.86157390115837,AttemptLanding,AttemptLanding,1,0.468440697779762,0.212401945534339,0.211627175625776,0.898989273604943,0.33968221093096
54,2.67140461913511,3.0,-0.570094177031275,-2.57163157419964,2.67140461913511,-0.0272794890132644,-0.0083317380373129,0.0285234706784995,-0.0248220815455495,-0.340492291864719,0.342420028137933,0.022088839344079,0.205151048542987,0.0770075021037515,15.4539887327447,1.55228206541324,1.30659723015152,0.0628448694678417,0.240302005057713,0.11115778583782,0.382237379856855,0.0018399704055592,0.0090973668891526,,,,,3.0,-101.106544404973,1.73130816355338,HoldLanding,HoldLanding,0,0.727776065523446,0.0791632636523254,0.0516238562303256,0.946114942229499,0.350596539627635
55,1.62257174650828,2.26718544960022,-0.153428479495784,-1.59853390475617,1.62257174650828,-0.0480384402263194,-0.0172608488274163,0.0510453586687427,-0.0035185138402562,-0.135621041295734,0.135753729971315,0.0087542031271167,0.128360841837878,0.0446361947403452,15.4863452863156,0.960065589280843,0.927264317639128,0.176589008225521,0.240177327272894,0.143631896955864,0.473365804819035,0.156794009943139,0.0420872174196312,,,,,1.6954412846166,-94.4207914550518,1.75871750681415,AttemptLanding,AttemptLanding,1,0.441613038016944,0.154396398951622,0.177628508710416,0.896876475190011,0.33616360135295
56,1.69711276690165,2.73831677436829,-0.104290859918238,-1.66990633421539,1.69711276690165,0.0026633754385119,0.0048928488757272,0.0055707754260223,-0.0026948339213155,-0.150986877396674,0.151146183955082,0.0097507669144827,0.18381853580451,0.0619710975814908,15.469917809605,1.73559388602637,1.79416195553539,0.0192409086038021,0.049255188813962,0.112950429819626,0.409217426693162,0.0002051817002839,0.0069213434002233,,,,,1.73280982852964,-92.1431804697514,2.29077297557902,AttemptLanding,AttemptLanding,1,0.464957624023405,0.235292210508097,0.143783370317187,0.962645749800114,0.349799808969055
57,1.59991622782078,2.49352431297302,-0.201520069877568,-1.56275577232442,1.59991622782078,-0.0554537575904055,-0.0162537970172339,0.0577867212114765,-0.0058335358854945,-0.132729841752565,0.133089975167098,0.0085823060296794,0.164379207152164,0.0553213763664248,15.4752742872573,0.91033087218754,0.654631984478487,0.176633967957338,0.240231508243401,0.116677687226748,0.33076703718553,0.15947573250235,0.03543193765284,,,,,1.65239533729994,-95.8334835366937,2.14481830941809,AttemptLanding,AttemptLanding,1,0.437708602692159,0.211656051381359,0.210756075127862,0.899386879290384,0.348143250121445
58,1.62472324347009,2.34369564056396,-0.0903514206790879,-1.60633400021803,1.62472324347009,-0.0476565850088166,-0.0143489307485069,0.0497698895752041,-0.0018304837090882,-0.137331970054494,0.137402413269111,0.0088603578272476,0.126772529395399,0.0442340092976929,15.4583859283618,0.860912325091531,0.59660844278616,0.176928940082418,0.240212499098989,0.129160441198609,0.393352509593349,0.159560550853447,0.0354296005977424,,,,,1.68060545220575,-92.4282145747537,2.33137519432274,AttemptLanding,AttemptLanding,1,0.442106333451564,0.170893269101575,0.186335252966706,0.900083581068324,0.342595359467285
59,2.53791417002678,3.0,-0.531429418407916,-2.44997180936033,2.53791417002678,0.0060193626390845,0.0096954522578738,0.0114120340459323,-0.0235719106744182,-0.314747633491327,0.316490434666864,0.0204235053819776,0.207572516484537,0.0765682087127454,15.4433835186954,2.05097423302938,1.80767663471698,0.0308843811020998,0.0501009012693116,0.133038283337781,0.412204322182678,0.0088569686263679,0.0067587186076393,,,,,2.78982386220964,-100.41262924442,1.84307201620951,AttemptLanding,AttemptLanding,1,0.69209075374969,0.106061517985729,0.0700310571493688,0.954239838345229,0.340871874072097
60,1.68226833773308,2.54106903076172,-0.089751591079269,-1.65652063319021,1.68226833773308,-0.0585632815535306,-0.0335456001503716,0.0674904825569258,-0.0023668650132878,-0.14871818067668,0.148857619838865,0.0095991493543609,0.169510391622074,0.0575725220346748,15.4883499191926,0.942832374897303,0.639689201119075,0.176181984811585,0.240219272149274,0.144636224172086,0.388263513136157,0.15959428576153,0.0358364298868573,,,,,1.72864210057146,-91.9462754292346,1.8070727025707,AttemptLanding,AttemptLanding,1,0.46011939446909,0.20560341106688,0.207324269361685,0.899474909496936,0.335717233701295
61,1.60159094027571,2.45118045806885,-0.198766402515338,-1.57389881338865,1.60159094027571,-0.049765091745587,-0.0060542436420426,0.0501320079642129,-0.0046587688036184,-0.132030018741828,0.132229142721906,0.0085261900493742,0.125373891015431,0.0435805003391912,15.4812965462304,0.77086976095979,0.596010429053861,0.176163476360568,0.240197515919575,0.121521733693273,0.389184734102037,0.156647905800186,0.041933424055597,,,,,1.6541677253945,-95.777639022521,1.65844242700406,AttemptLanding,AttemptLanding,1,0.435807017474694,0.200348509630229,0.205078915083286,0.90117848889818,0.345990340580767
62,2.60629968444506,3.0,-0.525397145939972,-2.51903049969764,2.60629968444506,0.0072591798344543,0.0039214749180661,0.0082506761784698,-0.0235499488933059,-0.330572518688626,0.332243915225478,0.0214339380063367,0.201589210394457,0.0754805197227728,15.4625436458939,1.71954720096382,1.56411654430274,0.0323320665613524,0.0475264276755307,0.106098968666118,0.405209426709918,0.0179233140753101,0.0059274665982677,,,,,2.96888331606625,-100.576107342626,1.72132937725538,AttemptLanding,AttemptLanding,1,0.710109353129905,0.0900951949659136,0.0641784767457227,0.958033751577944,0.352844902815059
63,1.55258113470207,2.44423508644104,-0.0972683144557557,-1.52689931854112,1.55258113470207,-0.0557530398554242,-0.0280981270099686,0.0624332138736173,-0.0023781067978797,-0.127412825447562,0.127561350713064,0.0082252726544664,0.158011369562538,0.053161101726888,15.4863302688554,0.856934752414625,0.746835884947522,0.177312788260914,0.240189349063535,0.131476320129811,0.44327722023481,0.159443059380445,0.0348335662505543,,,,,1.60300708299886,-92.1234906695166,2.30485784949483,AttemptLanding,AttemptLanding,1,0.42465385626593,0.212068228351431,0.210771270321561,0.898742550861698,0.341566079942306
64,2.67936466328892,3.0,-0.638268137846906,-2.56096925619777,2.67936466328892,-0.0293351641589974,-0.0063354786687716,0.030011500232374,-0.028353209304766,-0.337285193935642,0.33977595128426,0.0219151387323801,0.206705217147696,0.0773521622569749,15.4712909015061,1.40549290824052,1.05874291458342,0.0638181548290788,0.240363466026274,0.104447301773338,0.427077572928965,0.0018505529526451,0.0112963486802867,,,,,3.0,-102.201792877698,1.61562267501365,HoldLanding,HoldLanding,0,0.729967675995106,0.0776450591359289,0.0515172666169786,0.948729069691844,0.353578976989627
65,1.51964848949796,2.11914110183716,-0.136939738184917,-1.50364718148891,1.51964848949796,-0.0308885052707877,-0.0082352382410464,0.0319674663799037,-0.0023307520466611,-0.119717504434111,0.119780922663677,0.0077236563920494,0.110006681403415,0.0384085638954591,15.485241200753,0.824120670316665,0.698405604751525,0.176470588611604,0.240190794105284,0.14878039134007,0.438093177737887,0.15946635550472,0.0371043840303468,,,,,1.55228808798252,-94.2268777224065,2.3645049616199,AttemptLanding,AttemptLanding,1,0.412921309978547,0.140746539945969,0.16881436303122,0.899801999247233,0.333875381626635
66,1.56651956160863,2.40738487243652,-0.120656507334041,-1.55077098709291,1.56651956160863,0.0011348505315336,0.0006885539356403,0.0013274005617024,-0.0021646446947139,-0.125876024589112,0.125938642403128,0.0081238438094838,0.108151910802874,0.0381322639075008,15.4704066626381,1.57226824238687,1.54440625125091,0.0161855024883069,0.045873121118528,0.111110900936187,0.373547878801665,0.000170810200648,0.0071231777761037,,,,,1.60696450398557,-93.5145725727472,2.39185674586131,AttemptLanding,AttemptLanding,1,0.425365002543802,0.189438051705921,0.116328993132323,0.967419092020121,0.350617377361695
67,1.65561638802898,2.50276446342468,-0.0990716662694762,-1.64091105032444,1.65561638802898,-0.0396478125971414,-0.0212241822232805,0.0449712681029239,-0.0017902457584018,-0.141590186933398,0.141638766515961,0.0091334825197443,0.106910151260666,0.0384664831420209,15.4839901757933,0.942804552670402,0.612088213889602,0.176672026549623,0.240198164938165,0.139050700506948,0.31379566078727,0.15957847243778,0.0378708238223513,,,,,1.70472744872138,-93.0615211949791,2.30717324408575,AttemptLanding,AttemptLanding,1,0.449191000102799,0.198853049449569,0.204006803860316,0.899446972130789,0.338199688663579
68,1.59862624706865,2.22581148147583,-0.130856577941241,-1.58256378788386,1.59862624706865,-0.0359134956294533,-0.0190483063105336,0.0406523940454516,-0.0023698458457868,-0.131703349643568,0.131766245232661,0.0084967473750721,0.101179202413807,0.0363014838866927,15.4727731583358,0.894800514010579,0.58067990357638,0.176048736341265,0.240181171206465,0.118470769400865,0.380341322196714,0.15951649949377,0.038657250887498,,,,,1.6346567991892,-94.1375227104005,2.11572859609912,AttemptLanding,AttemptLanding,1,0.433560629328979,0.148569616649948,0.174095174128108,0.90038257140547,0.347346324710727
69,2.61826860904694,3.0,-0.388361910526527,-2.55796518813246,2.61826860904694,0.007346516578926,0.002642728522473,0.0078073888008685,-0.0158718317126063,-0.34030966396217,0.341127570168551,0.0220070764628238,0.195021918395588,0.0739115290426531,15.4611793174243,1.72334580806378,1.6833349027372,0.0280355100677128,0.0506286163516904,0.116964639086729,0.387065867448337,0.0064728576926124,0.005365315683365,,,,,2.97762147861884,-97.4745863886534,1.91285012084544,AttemptLanding,AttemptLanding,1,0.712987268221047,0.087320917577932,0.0572204000727803,0.959215467952707,0.348015715961454
70,1.68224883566097,2.73009395599365,-0.085320652629773,-1.65813935998204,1.68224883566097,-0.047324377967918,-0.0286310909304531,0.0553112657414223,-0.0022330222650132,-0.149905346359808,0.150044011331598,0.0096761328022431,0.171346471129297,0.0581772343003592,15.4672871297412,1.0559811137272,0.809226834586678,0.176757248337792,0.240228082392466,0.128586264757566,0.449893850161107,0.159478458537702,0.0378356291124877,,,,,1.74106956136438,-91.9626622500687,2.15997032147337,AttemptLanding,AttemptLanding,1,0.460235136369665,0.245905550794114,0.232181055968472,0.896966170522924,0.342850548996638
71,1.62207710580761,2.4734218120575,-0.194191438728066,-1.59465284725235,1.62207710580761,-0.0435699266437499,0.0033956809365579,0.0437020498004916,-0.0044238474523248,-0.135389649350064,0.135562048930744,0.008742501456282,0.123581364324974,0.0431941603168895,15.4657031259307,1.06758042405618,0.929389535374463,0.176786656736639,0.240197567583516,0.163380384740521,0.455770481674775,0.159433959198115,0.0375940974523616,,,,,1.67774962146967,-95.9395937551425,1.79761800974175,AttemptLanding,AttemptLanding,1,0.441192726945407,0.199564601369648,0.204268879134941,0.895916193379011,0.32738649567088
72,2.61946933825811,3.0,-0.606784486537744,-2.51713244137716,2.61946933825811,0.0070190216821312,0.0037585977957778,0.0079620175059249,-0.0278557924166311,-0.329709039337837,0.331902116005282,0.02141379872129,0.19440572646458,0.073311377044277,15.4498741412757,1.86211779227916,1.42170957067906,0.027331526030863,0.0769139482948376,0.111096317956159,0.459672228187516,0.0043778776888441,0.0082092367688884,,,,,3.0,-102.28205700878,1.96295526663645,AttemptLanding,AttemptLanding,1,0.713187432277684,0.0870791021013454,0.0571783616849398,0.960532736275611,0.350623858686151
73,1.68802295736715,2.40471172332764,-0.161180798447463,-1.66510277932063,1.68802295736715,-0.0467119098139554,-0.0181011765288986,0.0500964580604003,-0.0037374719904151,-0.14743353929466,0.147571623831833,0.0095169607140798,0.132640914011347,0.0464541467032599,15.4693945160265,1.12338938822394,0.809689898428581,0.176978368697396,0.240239532480204,0.14370961214317,0.451326626405011,0.159575326186808,0.0363195065943699,,,,,1.730743683828,-94.7490683234343,1.78062124511446,AttemptLanding,AttemptLanding,1,0.459430284638559,0.170439322985516,0.18639305429249,0.896322335541889,0.336129061269702
74,2.58733061330263,3.0,-0.558663425207864,-2.49562176417533,2.58733061330263,-0.0108972656198156,0.0195822910329046,0.022410187863697,-0.0263864142355767,-0.336693814384394,0.338772364647714,0.0218538594449134,0.194959192543681,0.0737854593745436,15.4338792145234,1.51246985860996,1.29558114196739,0.0631665206377256,0.240430717587123,0.118483595133145,0.419937449698302,0.0019307869136294,0.0075734763248811,,,,,3.0,-101.440236798872,2.33548206343339,HoldLanding,HoldLanding,0,0.704711922088943,0.096959146448586,0.0617876067771861,0.946353481819458,0.347340624385269
75,1.67497340351546,2.37466788291931,-0.181846555653609,-1.65356938152305,1.67497340351546,-0.035766343167654,-0.0057795382597535,0.03623029624613,-0.0036048951884392,-0.144035112774934,0.14414156088376,0.0092939434195262,0.110545336923263,0.0396693614706473,15.5018070999616,0.726298346682894,0.603818992632745,0.17650032957131,0.240186918015818,0.110434237751919,0.376798629105411,0.159595459474871,0.0369021939083765,,,,,1.72844746755899,-95.0560971705178,2.16327170026731,AttemptLanding,AttemptLanding,1,0.454593446564919,0.164073478844324,0.182794382231805,0.901298913262579,0.350918116554703
76,1.77513788421949,2.47460556030273,-0.224114211964174,-1.75010624195132,1.77513788421949,0.0046042653100029,0.0023382337002326,0.0051639709412234,-0.0046608623184636,-0.159885940810001,0.160029947719671,0.0103232015359086,0.117434486325058,0.0424565869726535,15.4674130008886,1.60169296192062,1.71432550320984,0.0334859392886394,0.0736256212688534,0.110821710866026,0.465925985453595,0.0239555167732137,0.0057640381128196,,,,,1.80133462105751,-96.2777836497926,1.62129939651115,AttemptLanding,AttemptLanding,1,0.481861419853061,0.158326955124621,0.107739083277631,0.957202599558227,0.350745906281766
77,1.71058390051329,2.56185245513916,-0.136953246550225,-1.68092796453946,1.71058390051329,-0.0477233236308173,-0.0235318718002322,0.053209628910511,-0.0039414823909089,-0.152964913282896,0.153167497443977,0.0098768023408923,0.168829159578813,0.0575625095122685,15.4792262774611,0.894513459536979,0.67374093904036,0.177063903316181,0.2402633448213,0.131181640360787,0.369082293721086,0.159877252675868,0.0347844002087605,,,,,1.75923009576763,-93.8331549635916,2.0291988354736,AttemptLanding,AttemptLanding,1,0.467668208705998,0.201290523424414,0.204479743602664,0.899146049495945,0.341697048728539
78,1.78123113693007,2.66970610618591,-0.224317702687454,-1.74016032190296,1.78123113693007,-0.0750121310928575,-0.0473971248289014,0.0887316586858292,-0.0073547961851959,-0.165259064775059,0.16567478132296,0.0106848189580184,0.187973454745493,0.0638714096942608,15.4434831586045,1.12337738903968,0.884463980067559,0.175088351193781,0.240273096291454,0.203018174714118,0.457889185580248,0.159731590699057,0.035497921118381,,,,,1.84421771642335,-95.6415120879709,2.20042784586865,AttemptLanding,AttemptLanding,1,0.487769251786871,0.216174338841634,0.213604756345589,0.896679927931552,0.309769700127059
79,2.62571962980124,3.0,-0.407636397184936,-2.56130229042528,2.62571962980124,0.0044827373925619,0.0033538354733233,0.0055984950578521,-0.0173387475314475,-0.341039074044634,0.342037815676116,0.0220711802335073,0.197009814167032,0.0745527704135647,15.4359271303304,1.91697895222108,1.70353568627584,0.0250173915241087,0.0521479425157035,0.127294488500113,0.438853143434336,0.0183909015540921,0.008263188960409,,,,,3.0,-97.5958361626102,1.98137584005232,AttemptLanding,AttemptLanding,1,0.715102455363043,0.085239474055328,0.062322214442841,0.959044403506898,0.343424671777727
80,1.78584039211273,2.61913156509399,-0.234617751314846,-1.75349276469554,1.78584039211273,-0.0537260755834838,-0.0086749572250044,0.0544219264677195,-0.0060523288520249,-0.164018212962787,0.164279651966533,0.0105934622298768,0.143610607868402,0.0504986059214344,15.4781531645577,0.95802074015026,0.522478911010055,0.176114350405242,0.240231362047474,0.114489792986964,0.376413612570137,0.159530275790106,0.0366326125971643,,,,,1.84269174465958,-96.4089816842801,2.3344097352556,AttemptLanding,AttemptLanding,1,0.486323825747682,0.197467867106533,0.202704015094855,0.900310327538262,0.349115647561349
81,1.84504076980409,2.65382432937622,-0.206596836755184,-1.81706883175597,1.84504076980409,-0.0453792651790045,-0.0140001832506344,0.047489818269159,-0.0052420344847455,-0.17539219819217,0.175593352354792,0.0113240198428464,0.147135763333502,0.052067542890043,15.4779439430732,1.12518367405674,0.835142423076075,0.176975542299485,0.240254513418732,0.151861634036159,0.471508573048762,0.15954493207862,0.0368069974920311,,,,,1.90149022471625,-95.3637271300002,1.52302953939599,AttemptLanding,AttemptLanding,1,0.502424380525766,0.190682767586408,0.198702881977829,0.896109666658499,0.332505940428374
82,2.58423761208852,3.0,-0.397261197198228,-2.52151081718026,2.58423761208852,0.0069249280556137,0.0036358852076007,0.0078213994795226,-0.0163302756621805,-0.331975553343561,0.332860585634897,0.0214704860871597,0.200298481947257,0.075118884845189,15.4642960907653,1.45011247001836,1.60307588241597,0.0293634226461633,0.0507614703624611,0.101428378775888,0.368256834889991,0.0106970486190598,0.0041735817168963,,,,,2.91783086718893,-97.7855854258006,1.85538181181207,AttemptLanding,AttemptLanding,1,0.70415380685931,0.0949804605179951,0.0632601862203617,0.961328951622077,0.35492072054405
83,1.70332095898739,2.35680961608887,-0.299828073264785,-1.66582963703646,1.70332095898739,-0.0365390426353255,-0.0189379854659835,0.041155181085933,-0.0068494227345213,-0.147407435252831,0.147703394170707,0.009524551252253,0.117164192633113,0.0418164436665111,15.470410938626,0.979299332066824,0.726852747486885,0.176752989715508,0.240219081303965,0.163900440055912,0.392769913182689,0.159537410342203,0.0362512281314868,,,,,1.75027764965131,-99.5200046041142,2.32869425773853,AttemptLanding,AttemptLanding,1,0.462582211129938,0.154580064380254,0.176835819110884,0.898218024517181,0.32715535997515
84,2.63634498581362,3.0,-0.434565398510639,-2.56649431526377,2.63634498581362,-0.0251810931526419,-0.0039232098209122,0.0254848784117353,-0.0185544399374998,-0.343559886862779,0.344700318692195,0.0222406898030318,0.206679097506195,0.0775722121139808,15.4479109255776,1.84089519100559,1.39509992759029,0.0626444399995668,0.240555936509667,0.13906010813678,0.416244068079844,0.0019215226674488,0.0081843018606862,,,,,2.95681470906161,-98.270421652992,2.07170240004878,HoldLanding,HoldLanding,0,0.718539771973094,0.0864946059007547,0.0557268833823968,0.943252104068392,0.338195507494764
85,2.01328514060196,2.89189720153809,-0.433503467224411,-1.95016987630101,2.01328514060196,-0.0597720090845271,-0.012126524861031,0.0609897177826393,-0.0134982761419937,-0.200517072448371,0.201351102077028,0.0129843764169861,0.139316311468473,0.0508839569324322,15.4826686671152,1.05693511325845,0.772302179441118,0.176787006799539,0.240257322492445,0.156307710463045,0.40596688449471,0.159512836675542,0.036569351175085,,,,,2.10680641889481,-101.731697741666,1.77785748739861,AttemptLanding,AttemptLanding,1,0.547052828880341,0.20886916197078,0.209514037142335,0.897233917871877,0.330529906460869
86,1.96176399668058,2.9542281627655,-0.556430876424255,-1.85197248624694,1.96176399668058,0.0070090903163388,0.0051071599428446,0.0086723946949151,-0.0232929199411775,-0.185647950991519,0.18837561394199,0.012153706075199,0.210755635503842,0.071734284903792,15.4064681780205,1.70082588558924,1.76390728320428,0.029993784108118,0.0705786429184542,0.11068162019892,0.470485820853223,0.0104020854837678,0.0055290202094797,,,,,2.01104491577433,-105.279667622794,1.85268504272683,AttemptLanding,AttemptLanding,1,0.537483922762246,0.224894376396509,0.14157032774525,0.957780204476849,0.35080816880048
87,2.00275005682095,2.72916746139526,-1.14847678660403,-1.62337102263206,2.00275005682095,-0.0493502034341832,0.0052818005894966,0.0496320460636318,-0.0721076219817168,-0.138943915682771,0.159964249930272,0.0103149917357681,0.13144145593454,0.0466529309953997,15.4758692339564,0.855617578297216,0.945241565128438,0.175949919171019,0.24024520793894,0.140103104474087,0.434228156144978,0.156709887342375,0.042793425575256,,,,,2.06469467336038,-124.238920485483,2.23935399194517,AttemptLanding,AttemptLanding,1,0.543397268017999,0.17254312447422,0.188735959167095,0.897875432859003,0.337731953567072
88,1.90674613852079,2.91757965087891,-1.06446895493023,-1.55184168892128,1.90674613852079,-0.0707166032022951,0.0050934379647467,0.0708997960418193,-0.0659351321889949,-0.13227552847669,0.153403821319064,0.0098925105056742,0.194044362578281,0.0651380661274564,15.4804767837165,0.948360367732931,0.954841461571189,0.176778164299383,0.240272152538613,0.15373197792027,0.440511453169464,0.159502164589819,0.0352275697238183,,,,,2.00959748573364,-123.70580417537,2.33986217786917,AttemptLanding,AttemptLanding,1,0.521493250164369,0.240435836221576,0.22796137801587,0.896657189191491,0.33167467647988
89,2.62646696011225,3.0,-0.236737763517314,-2.58428870158349,2.62646696011225,0.0063795342954898,0.0048385340322513,0.008006863893472,-0.0089140385521069,-0.347223029567172,0.347619381686581,0.0224294661669944,0.192510226363023,0.073453694225803,15.4413917456196,1.89984500673911,1.66550880679588,0.0263511624342958,0.0536236475078845,0.11654060118653,0.466584226211528,0.0011540985375632,0.0061943410283269,,,,,3.0,-94.0907171926139,1.99107836542295,AttemptLanding,AttemptLanding,1,0.715081928208428,0.0855128590218794,0.0540731357431535,0.958810924533649,0.348204177250431
90,1.94048732073129,2.91892457008362,-1.0659587497418,-1.59955521893477,1.94048732073129,-0.0595217985728916,0.0039131501373165,0.0596502912763136,-0.0636959017816554,-0.13658694408725,0.154649757558084,0.0099719716994283,0.147043452544781,0.0510934159530342,15.4946817379519,0.789201870971478,0.823229453189606,0.176599284180514,0.240350609022417,0.147858762878307,0.39153306230016,0.159567825020051,0.0367081018602128,,,,,1.99637079272466,-122.311062912018,2.30761337167187,AttemptLanding,AttemptLanding,1,0.52768196871895,0.231084267838266,0.222917994721645,0.899031254648477,0.334284994276308
91,1.91278378412026,2.62033414840698,-1.15547759028893,-1.50735423955359,1.91278378412026,-0.0532000213891483,-0.0051034751446464,0.0534442488426759,-0.0723805523018461,-0.119845126855385,0.143293374693144,0.0092408240593669,0.13207636981468,0.0460914877859608,15.4764592008933,1.02148695800391,1.14930583830833,0.177509644919094,0.240238147350419,0.165972194748768,0.514851958376921,0.159605911066442,0.0355826415588871,,,,,1.94546366280019,-126.251978914843,2.09662701231318,AttemptLanding,AttemptLanding,1,0.519293973322595,0.168996944252336,0.185273269410426,0.894188948426571,0.326234580111659
92,2.61960682034492,3.0,-0.481002410796823,-2.54043455978497,2.61960682034492,0.0065072798450051,0.0041904494690398,0.0077398034686797,-0.0213716528685402,-0.335986830029628,0.337418841117572,0.0217704427966056,0.201689368933252,0.0757461206375995,15.4536695223296,1.87561569392743,1.66557561004535,0.0340161850199197,0.0755158448355308,0.119230173998561,0.495140521585467,0.0255792154625401,0.0049025077471895,,,,,3.0,-99.2513675644137,1.5,AttemptLanding,AttemptLanding,1,0.713711042886167,0.0870074293916498,0.0653557279304504,0.955168261530254,0.347008811556195
93,1.67047902110483,2.66739869117737,-1.00158276994425,-1.30532534578953,1.67047902110483,-0.0635237919332842,0.0196556183807266,0.066495228968039,-0.0583687557952355,-0.0945194543854506,0.116814953338764,0.0075322978679582,0.168997713510105,0.0559719225606022,15.4872652713315,0.749365012926043,0.748341833158574,0.176291510329175,0.240231831284926,0.123340875100182,0.389248781141187,0.159506683601333,0.03749503754095,,,,,1.74681180591764,-126.657123786368,2.37030318866669,AttemptLanding,AttemptLanding,1,0.456655456806741,0.236497717743796,0.226425049130448,0.900086548187605,0.345181833288808
94,2.6836953042466,3.0,-0.266456291664056,-2.63299797858223,2.6836953042466,-0.0236193035428779,-0.010969181912258,0.0260421668006872,-0.0097766752848058,-0.353209240358939,0.353729725790469,0.0228174526282418,0.203935447709259,0.0771528511525471,15.4625522019009,1.55160201967427,1.19006846189633,0.0631917592122142,0.240354702195841,0.112807308429289,0.428247405614477,0.0018909826616636,0.0082866874482886,,,,,3.0,-94.2734617915732,1.50039163739493,HoldLanding,HoldLanding,0,0.731082651362935,0.0759429537913084,0.049419549903589,0.946862423752981,0.349863418475872
95,1.80441509704201,2.6084668636322,-1.1432197178563,-1.38178570422555,1.80441509704201,-0.0355143991814239,0.0115400002660514,0.0373422569665786,-0.0703022008139354,-0.101004703304433,0.125862705357848,0.0081165018031845,0.115375977156597,0.0402943444092083,15.4571360800728,0.922928864906349,0.892133866579023,0.176559030417631,0.240282641407569,0.155680404761755,0.385716285426063,0.159601801096763,0.0376510415327033,,,,,1.86493072097439,-128.583435678336,1.67103760266083,AttemptLanding,AttemptLanding,1,0.489236228093043,0.187757727926667,0.197280058406858,0.897459277615228,0.330808708994775
96,1.72209069331487,2.35772657394409,-1.05925473164431,-1.34275068604122,1.72209069331487,0.0059675571283083,0.0030022518018765,0.0066802136164568,-0.0606190357495281,-0.0952145696862969,0.115537007020236,0.007453474346858,0.118676026015246,0.0408202398473745,15.4647545719543,1.73555995980309,1.54985397535698,0.0193926081165901,0.0432330686878852,0.117177988623879,0.417276360175279,0.0001490789558124,0.0058873053799882,,,,,1.76269102467469,-127.19753908103,2.29545893013191,AttemptLanding,AttemptLanding,1,0.46738823285344,0.144242778971259,0.0887527630164453,0.964489729308304,0.347920893944943
97,1.77407171045031,2.52778601646423,-1.09245732941111,-1.38275692133099,1.77407171045031,-0.0386617997872843,0.0069728422082532,0.0392855608494171,-0.0648843593282286,-0.101522856480413,0.123296247118064,0.0079507310955901,0.121460749302963,0.0420037365578021,15.4671726691524,0.903572270159918,1.18907769896896,0.176974781414242,0.240210952632994,0.164113064275981,0.467352679993935,0.159598403806101,0.0360835693176984,,,,,1.81622668042125,-127.513201967813,1.53857798610323,AttemptLanding,AttemptLanding,1,0.481486536764976,0.176788071675526,0.190126764852847,0.895070359535438,0.327060860321786
98,1.85989174064325,2.55927181243896,-1.18050311600068,-1.42216036877339,1.85989174064325,-0.0328944180555127,0.017850392002738,0.0374256494113629,-0.0751567483369331,-0.106966382024525,0.133721508329196,0.0086227720102329,0.121804465155002,0.0425772799536635,15.4690451433143,0.829060663816658,1.03064745277695,0.177180393468257,0.240222433133242,0.155898945136052,0.440199510177424,0.159518420036161,0.0347357171627544,,,,,1.91962505408224,-128.853168090004,1.83408949911149,AttemptLanding,AttemptLanding,1,0.504486586828932,0.164221885212786,0.182061376576664,0.896797810921208,0.330711579939532
99,2.62224892934163,3.0,-0.159483918767536,-2.58613694330582,2.62224892934163,0.0069437539979215,0.0020606973506646,0.0072430789830491,-0.0058157290568172,-0.347366624106626,0.347644778676824,0.0224291169476784,0.190474802116842,0.0728428224984276,15.4448641710854,1.83089375265988,1.68279124088869,0.0255446234634531,0.0606450909608106,0.119099792975105,0.46025614187355,0.0008396814815836,0.0043191201273459,,,,,3.0,-92.2002194325483,2.00389174164871,AttemptLanding,AttemptLanding,1,0.713834945657455,0.0863218887116913,0.0537369141338242,0.959620163318963,0.347066758677731
100,1.63938090914772,2.3227219581604,-1.02280431453494,-1.26645444251416,1.63938090914772,-0.0382742354918431,0.0103439979708283,0.0396473882684038,-0.0565152686654948,-0.085630917486608,0.105173649536954,0.0067822312188997,0.110317436532056,0.0378427928128466,15.4688233418412,0.921299629830957,0.980142067933749,0.176721909122601,0.240205183520026,0.176986592265192,0.395445244041666,0.159570320345383,0.0376280031492609,,,,,1.68546986904653,-128.540481584722,2.41731579418747,AttemptLanding,AttemptLanding,1,0.44473680100196,0.161020423877061,0.181215306938057,0.896699146384834,0.321339292326581
