scenario_id,mean_wind_speed,max_wind_speed,wind_velocity_x,wind_velocity_y,wind_velocity,wind_acceleration_x,wind_acceleration_y,wind_acceleration,wind_body_force_x,wind_body_force_y,wind_body_force,mean_wind_body_risk,mean_wind_gust_risk,mean_wind_risk_raw,min_thrust_margin_n,mean_abs_roll_deg,mean_abs_pitch_deg,mean_abs_vz,max_abs_vz,mean_tag_error,max_tag_error,stability_std_z,stability_std_vz,mean_imu_ang_vel,max_imu_ang_vel,mean_imu_lin_acc,max_imu_lin_acc,wind_speed_cmd,wind_dir_cmd,hover_height_cmd,gt_safe_to_land,label,success,onto_wind_condition,onto_gust,onto_temporal_pattern,onto_drone_state,onto_tag_observation
1,2.04278885351645,2.68374371528625,-1.26358953544302,-1.58705799890192,2.04278885351645,-0.0636722351864709,0.0118423182650831,0.0647641415872455,-0.086418696933114,-0.132440630196168,0.161951592247902,0.0104468337187483,0.124501906492662,0.127154381567419,15.4536149851847,0.951896387276037,1.01365119997734,0.176359588300423,0.240269122559253,0.141407436573898,0.398419516580435,0.158804938461224,0.037830689789725,NaN,NaN,NaN,NaN,2.0716688985117,-127.374480982322,2.31472368639318,stable,stable,1,0.570174570584537,0.156088269855868,0.177989549031944,0.896376617664226,0.337152250411601
2,2.29851322198652,3,-1.34806865196983,-1.8225678697386,2.29851322198652,0.0230163243647562,-0.000459202327497051,0.0230209047181307,-0.102935115380187,-0.180754778338577,0.217333077601965,0.0140284730658869,0.236089976690715,0.237776543997138,15.4155866942722,1.5810568467312,1.61216526099814,0.0279786700209352,0.104296569986016,0.315533204436608,0.81625008866068,0.00800676642465249,0.012823707035734,NaN,NaN,NaN,NaN,2.42882567996652,-126.095851442396,1.59133896787116,stable,stable,1,0.660492167995832,0.162055024251358,0.105454743601028,0.960921062714516,0.259763020250396
3,1.65581247132486,2.67840385437012,-1.03624492599814,-1.27667269931317,1.65581247132486,-0.0402174881597469,-0.0228896903984244,0.0462750935214086,-0.0643417478941622,-0.0957285127506985,0.118240018480859,0.00762577341906441,0.143879324268732,0.144793385513522,15.4754482392983,0.607347923724291,0.933190651226582,0.16791167678938,0.247068587776641,0.244787177913447,0.437084002451655,0.165058837467825,0.00445835309642779,NaN,NaN,NaN,NaN,1.87319628751653,-127.297520073929,1.5999334590801,stable,stable,1,0.470508669456001,0.238566828330774,0.21812079962529,0.903939929944982,0.291205698705134
4,2.3257825810122,3,-0.665341840901508,-2.19493809038498,2.3257825810122,-0.0116853654894942,0.0216284472173098,0.0245832767477206,-0.0340655133745773,-0.269930935952516,0.273936996463433,0.0176827953729771,0.23381442466376,0.235339718656602,15.4257162446788,1.63983923904758,1.6227940419567,0.0628171578881198,0.240423424905135,0.131711059200482,0.448255773149188,0.00195467388340152,0.00889177824324966,NaN,NaN,NaN,NaN,2.46779887999601,-105.553838771394,2.28848985446736,unstable,unstable,0,0.66727663200124,0.156205853342671,0.0978256298604172,0.942956445276621,0.341461751466452
5,1.81410082044273,2.47313737869263,-1.04743339620901,-1.46693658028214,1.81410082044273,-0.0454175640908532,0.00760726186593448,0.0460502503906728,-0.0594980279619682,-0.113835065067908,0.130932755856701,0.00844531657888398,0.118630843410542,0.120858359809667,15.4431555317168,0.914566227877416,0.852087978616556,0.180038500784851,0.240198460804218,0.11160367332479,0.407877631325277,0.157557488614942,0.0355473783103366,NaN,NaN,NaN,NaN,1.88084050141636,-125.058018224367,1.97796810365841,stable,stable,1,0.50793189074666,0.156725771511184,0.176987332787817,0.896099895127979,0.350398367411205
6,1.88453316249975,2.55664753913879,-1.03307579223422,-1.56119348565404,1.88453316249975,0.0032750099558463,-3.61855500600525e-05,0.00327520985662378,-0.0578841610038407,-0.128431841636364,0.143301208586812,0.00925650117424279,0.13633673184379,0.137496547472899,15.3945402622706,2.10139282873242,2.22516924024562,0.0301732687771546,0.0538194774061699,0.14519075458821,0.473137726305015,0.0235089332561239,0.00565953440444187,NaN,NaN,NaN,NaN,1.9161886291726,-122.783489357006,1.5873390962013,stable,stable,1,0.53004148616118,0.151826189884166,0.103602141221705,0.950918949355167,0.335470775738573
7,1.92095946540704,2.73632717132568,-1.08301234002669,-1.56997030128483,1.92095946540704,-0.0497057848360805,0.00868166725446367,0.0504582638671601,-0.0644472534662669,-0.130319916139508,0.1483062224798,0.0095669585111756,0.132003487600946,0.134482693176873,15.4368926112716,1.00448972790264,0.999072369787859,0.177170616305323,0.240281110011998,0.16790258689133,0.410951884240896,0.157628307276605,0.0357639114642113,NaN,NaN,NaN,NaN,1.96867067391655,-123.586570068552,1.73211004588199,stable,stable,1,0.539152396077251,0.192708415540675,0.198687133494932,0.895672418222628,0.325376628048298
8,1.87661283322283,2.96842169761658,-1.09408478555586,-1.49245114331533,1.87661283322283,-0.0631136103521352,0.0247158893495124,0.0677805502929748,-0.0698464947558184,-0.12354112149567,0.14809787074425,0.00955203920650459,0.192943745271534,0.195280046321045,15.4407258616982,0.919685103150695,0.910841027003329,0.176816267246338,0.240302159613783,0.136890223497464,0.473179800472018,0.15947295443206,0.0348169605834013,NaN,NaN,NaN,NaN,1.96461919299708,-125.030810267647,1.5,stable,stable,1,0.539486098123629,0.258083428708972,0.238387638801273,0.897209161068478,0.339159900667794
9,2.60650230174097,3,-0.80530976431639,-2.44148480591151,2.60650230174097,0.00233292719582692,0.00219020797714088,0.00319993129366248,-0.0437249709405865,-0.311560352934853,0.316934725309976,0.020467930401246,0.201110058139722,0.203546530236044,15.3951394070567,2.03156846949697,2.07434726498175,0.0163897692486764,0.0671118791526266,0.140300769375568,0.503789143684349,0.000149113730354329,0.00743603017231538,NaN,NaN,NaN,NaN,2.98365709536118,-106.900241715489,2.39262929323035,stable,stable,1,0.735776586511466,0.0891236361787874,0.0562444654480698,0.959544348890472,0.337644102499748
10,1.89968756082896,2.5734224319458,-1.13589512131055,-1.50868925523685,1.89968756082896,-0.0431150748992102,0.00643185238230453,0.0435921828844606,-0.0694646249683423,-0.120797744993778,0.142015618013552,0.00916391635217365,0.131442360740168,0.133656831445818,15.3518941942236,1.21081633323006,1.22647370643731,0.176620082320885,0.240883089740509,0.172975070236122,0.478195260090459,0.156584187996283,0.0404053033533165,NaN,NaN,NaN,NaN,1.92399487038037,-126.353098118705,2.08781832031465,stable,stable,1,0.533314715843552,0.159582246196774,0.180035157743881,0.8925398228136,0.323122191006168
11,1.88253536498224,2.64201688766479,-1.17234548555989,-1.45777162128755,1.88253536498224,-0.0429103933251534,0.0121133415646714,0.0445873849780604,-0.0739869241449568,-0.113029053896193,0.138129274650702,0.00891127832779266,0.129898187935764,0.132113157068123,15.4222365610706,1.06801480571628,1.06737074499446,0.177888316775409,0.240252640465236,0.206981234193889,0.445916043010885,0.157434873520951,0.035171769036599,NaN,NaN,NaN,NaN,1.90759543141243,-127.844704273722,1.72277703565853,stable,stable,1,0.528432062075556,0.179057696516218,0.190195407003059,0.894277812285283,0.308008340358272
12,2.62249227351568,3,-0.782846344498393,-2.46803059374988,2.62249227351568,0.00753163026245176,0.0040487938400782,0.00855091725896903,-0.0412438676961217,-0.316973230119362,0.321721525915381,0.0207724249524256,0.193706559694883,0.196181181140171,15.3798670994717,1.80603419437125,2.00318701338538,0.0291000546380994,0.0569449545371577,0.135059095248563,0.470697417926615,0.0157272379260103,0.00689704894411842,NaN,NaN,NaN,NaN,3,-106.299635778902,1.80452671763322,stable,stable,1,0.738567509165549,0.0865069066231158,0.061402045294402,0.955520377477148,0.339973735445083
13,1.98289207348952,2.72310495376587,-1.05581431872742,-1.66341983312327,1.98289207348952,-0.0509855436966105,0.0130636189901016,0.0526325356329859,-0.0609929274198582,-0.145925137764865,0.16062328092446,0.0103609770691162,0.127803310855384,0.130406383136111,15.4013983388197,1.01677693304731,0.98605220767477,0.176539453952135,0.240262783557468,0.135015640333711,0.452070066353495,0.157237181048853,0.036795943059004,NaN,NaN,NaN,NaN,2.02726066309477,-121.319262228342,1.81065788165379,stable,stable,1,0.554852496224429,0.176197196261558,0.18898185226475,0.895993758346831,0.339993048740573
14,2.58462286161822,3,-0.697077664242938,-2.45617960159122,2.58462286161822,-0.0158929996431932,0.0175543737989197,0.0236800227434591,-0.0345302158538341,-0.324109204156684,0.327516837078309,0.0211450347446701,0.208321638223662,0.210235500368202,15.3604400782978,1.72567411790207,1.58634459387608,0.0631457959050944,0.240451668387513,0.135689292358943,0.461277104153079,0.00193175052773496,0.00884454923797214,NaN,NaN,NaN,NaN,2.96211416560549,-104.652706865072,2.39232659952182,unstable,unstable,0,0.731279863171832,0.0978011936388681,0.0627554716963243,0.942404097883482,0.33969364784047
15,1.7422022395486,2.54929971694946,-0.942157921235858,-1.43556305424688,1.7422022395486,-0.0763878278967979,0.00724136715088122,0.0767302915998934,-0.0527939285326425,-0.11386945180402,0.130189457978468,0.00839770746178556,0.181195016502906,0.183198989052025,15.4157508963757,0.975795261302135,0.936273364051432,0.175146498714761,0.240263976948794,0.15949243120669,0.446206550852287,0.156289587577713,0.0410627981602975,NaN,NaN,NaN,NaN,1.78867162897179,-121.8764556945,1.6651956304529,stable,stable,1,0.501227061690032,0.195664152541841,0.201792457052277,0.897403354300556,0.329114475019249
16,1.75339367537195,2.83258891105652,-1.00116361128269,-1.41039883287243,1.75339367537195,0.008735317125701,0.00416969370313321,0.00967946852179983,-0.0580622869989537,-0.108421349697716,0.127987282045099,0.00826474634916937,0.181105491063166,0.182117211291054,15.4047634508404,1.85644199710541,2.1107150236609,0.0299756487436199,0.0589039854674263,0.137883501664398,0.469779758920819,0.0219634112815764,0.00609249351275803,NaN,NaN,NaN,NaN,1.79698325918466,-123.928221238646,1.5,stable,stable,1,0.503995089024065,0.244593497258024,0.158733066666417,0.953841656179312,0.338718443704712
17,1.84264902488605,2.62015986442566,-1.00430510349058,-1.52868798522472,1.84264902488605,-0.0432752521299508,0.0134063111286185,0.0453042671829943,-0.0553293311339261,-0.125468099305573,0.139733570476532,0.00901485106123906,0.145587572105297,0.147732759525282,15.4061428990222,1.05445617382204,1.05898743484558,0.177642162986049,0.240265640137194,0.151256931513588,0.406872210798566,0.158461739178691,0.0363838493059248,NaN,NaN,NaN,NaN,1.90606506718967,-122.683382350962,2.40185977654094,stable,stable,1,0.520919625208004,0.183245721213293,0.19360536301965,0.894573290153158,0.332774697105072
18,1.82123404381259,2.87395215034485,-1.05290078063829,-1.45541420137064,1.82123404381259,-0.0792930133820735,0.00982961229345427,0.0798999577537392,-0.0647547069564113,-0.116835950211093,0.13913960879458,0.00897406722858902,0.190946603129032,0.193120450059105,15.4492016630387,0.796358810121514,0.835063045425314,0.175060261673175,0.240270081292945,0.106299247405733,0.406254710071469,0.156121924350695,0.0417498790618422,NaN,NaN,NaN,NaN,1.87952489310621,-124.36494621675,2.31635055725676,stable,stable,1,0.524286501695179,0.251509899557943,0.235475235872715,0.899651554584116,0.352755890041896
19,2.62053403447703,3,-0.775748829164541,-2.46620150210811,2.62053403447703,0.00634529053785872,0.00402284713497575,0.00751305604140033,-0.0411355193128593,-0.31711570760272,0.321886525407616,0.0207840617559998,0.201391264325545,0.203900336985738,15.3917612221258,1.98192348755929,1.82117266644259,0.030379219088724,0.0526263702498185,0.133511911661205,0.526250252054498,0.0247281702437532,0.00733680903355448,NaN,NaN,NaN,NaN,3,-106.031594526481,1.5,stable,stable,1,0.739589143257689,0.0867572358502584,0.0657125699539237,0.954928920674195,0.34066137259502
20,1.87109074399278,2.80039763450623,-1.00657493403382,-1.54831962491605,1.87109074399278,-0.0730448985484475,-0.00908240848952873,0.0736073865038261,-0.0595726184962989,-0.132625191849637,0.150240305265478,0.00969132263823308,0.18744417246429,0.189656120043626,15.4355696411375,1.00665828601126,0.960696140363715,0.176834598253999,0.24026030330977,0.152111866704374,0.431170977068303,0.158672812327099,0.037071089486658,NaN,NaN,NaN,NaN,1.95533603544456,-121.682915799118,2.1436565171874,stable,stable,1,0.536888755740133,0.222588737891227,0.217554888834858,0.89612491609434,0.332394725909167
21,1.97044205825601,2.61223387718201,-1.101320805213,-1.61877107697503,1.97044205825601,-0.0631328209170235,-0.00908526128993878,0.0637831878291406,-0.0661552892140922,-0.138461641685178,0.156183919819123,0.0100732600470146,0.127033498147425,0.129555734574569,15.4458769954413,0.909267449796766,0.800476272089166,0.17621093784467,0.240252594194523,0.156753621002883,0.48055865389394,0.155009825523433,0.0403169346716856,NaN,NaN,NaN,NaN,2.01006102178809,-122.843348050567,1.7540602410127,stable,stable,1,0.551362362449849,0.156096743693692,0.177212005521384,0.898460830405704,0.330331723998719
22,2.63082503913637,3,-0.739457152267971,-2.49147183502575,2.63082503913637,0.00751911866492241,0.00132816719585762,0.00763552051908295,-0.0375100003729916,-0.323016649439257,0.326965648192372,0.0211079094892979,0.201762460778143,0.20433385616054,15.4298138228927,1.93720946123082,1.66767435719051,0.0282164837166969,0.049977879481712,0.124783115189612,0.451453288858768,0.0107272640879925,0.00738186802908196,NaN,NaN,NaN,NaN,3,-105.373889448931,1.90112525336795,stable,stable,1,0.742420115001807,0.0844642116228153,0.0581305155486248,0.957567670996913,0.344540837693506
23,1.67590602185275,2.58433389663696,-0.822890574903642,-1.44260930688032,1.67590602185275,-0.0564056056187829,0.00659469771053087,0.0567898087962528,-0.0384294859236963,-0.111201612291359,0.119770692893269,0.00772596281185921,0.138383194139875,0.14026744729881,15.4195571212852,0.970561227305965,0.982461254930622,0.175827745965079,0.240180804284068,0.154150790493744,0.448504453227724,0.159448399101162,0.0383155839350947,NaN,NaN,NaN,NaN,1.75191981509009,-118.497538474994,1.96143122339608,stable,stable,1,0.474961761953829,0.214807736772427,0.21368353683229,0.896740950371316,0.331488537558336
24,2.64949195341366,3,-0.610952904597409,-2.54268812272378,2.64949195341366,-0.0125779835324445,0.00020808508634339,0.0125797046525585,-0.0294638639087696,-0.336912331924892,0.339441919406352,0.0218957446864899,0.191671593405706,0.193460874118339,15.4421161510299,1.21133982823763,0.835917524024061,0.071560465999147,0.249308023203548,0.317697633768237,0.917843417598585,0.0604672105329128,0.125840032265742,NaN,NaN,NaN,NaN,3,-102.185830974197,1.5,unstable,unstable,0,0.745223362400644,0.0811705896682287,0.12133668132634,0.94813417351837,0.258801051658562
25,1.72950189580788,2.67101049423218,-0.947614464702021,-1.42715448259553,1.72950189580788,-0.0532842749368207,0.00277248074520487,0.0533563548701111,-0.050957063902828,-0.109157217802308,0.123508564729873,0.00796699208550619,0.142842646334429,0.145021167617392,15.435372206252,0.887516481470188,0.976713091131766,0.176731997380736,0.240222847694915,0.149590421215764,0.473042624700654,0.159051081720428,0.0354823675094405,NaN,NaN,NaN,NaN,1.79680657025774,-122.144595008979,2.02453587593037,stable,stable,1,0.490204739072248,0.22162143303832,0.216564908570857,0.896986483239188,0.333515368348549
26,1.85629317553147,2.68347001075745,-1.03407383258751,-1.51897146946595,1.85629317553147,0.0059295893647998,0.0044051704876853,0.00738685028010724,-0.0593233323961364,-0.12257851208916,0.139866946454832,0.00903602244035213,0.148127118549547,0.149235860535887,15.4033371096182,2.25645744108276,2.30809415321071,0.022705653619008,0.0653720544777411,0.147007537408953,0.498152216052928,0.00011857534531373,0.0058107436873079,NaN,NaN,NaN,NaN,1.89015622586425,-123.159855511628,2.14815698015273,stable,stable,1,0.524858685582236,0.187469043810531,0.114647124144267,0.952782839235333,0.334663316707132
27,1.73087302030333,2.4525728225708,-0.839698846817926,-1.49296108499347,1.73087302030333,-0.0611211266472864,0.00978472822809826,0.0618993782612666,-0.0406719785107627,-0.118912296622999,0.128179996794597,0.00826711193246622,0.129897163979576,0.131890718370273,15.4286853086458,0.830529097177581,0.88087955783877,0.175892319779254,0.240226141428215,0.15897685474552,0.489539543402313,0.156316736026631,0.0396348013141273,NaN,NaN,NaN,NaN,1.77620387229689,-117.832865156267,1.9902966520531,stable,stable,1,0.487944282421609,0.17373067485808,0.188125164838892,0.898607057820959,0.329343620113102
28,1.73794651353681,2.38075232505798,-0.979383847900846,-1.42216310721465,1.73794651353681,-0.0434506556569552,0.00564024801089667,0.0438152014105118,-0.0522989324721691,-0.107013229079862,0.121271049022184,0.00782365291227777,0.11925572020366,0.121173719739531,15.4198053067009,1.0007359923693,1.10064936388042,0.176286963740323,0.240198333526114,0.165971789198832,0.465798015272145,0.158063179348213,0.0373765696434428,NaN,NaN,NaN,NaN,1.77693740749085,-123.63065316624,1.58628748285983,stable,stable,1,0.487687147557723,0.152664094517524,0.175440238513396,0.895345633187876,0.326234760356075
29,2.61084182645166,3,-0.523794930589682,-2.52143669080896,2.61084182645166,0.00498556063567429,0.00392654591661563,0.00634614668025219,-0.0242253708767651,-0.332164122849018,0.333987757701459,0.0215674200897041,0.205699252279732,0.208301680611207,15.3950852084562,2.0233875880656,1.87812611857364,0.0265065903716545,0.068708790439292,0.127093827434019,0.487410054907843,0.00702560964836761,0.00734021012501577,NaN,NaN,NaN,NaN,3,-100.208461528465,1.98448838516385,stable,stable,1,0.737884823176018,0.088724049273089,0.0590260900590932,0.956091954262007,0.343513854473769
30,1.83937177545316,2.68671178817749,-0.937695832528883,-1.55211624050954,1.83937177545316,-0.0760355233880608,0.0150775310520792,0.0775160161484242,-0.0524145897405033,-0.131861829089503,0.146488144015625,0.0094497290548466,0.178886038613911,0.181057544787749,15.4414189475487,0.923282020752169,1.06640319944544,0.175766451611662,0.240302393714932,0.174974594246005,0.388882332288754,0.159116019763886,0.0347865026759555,NaN,NaN,NaN,NaN,1.90894849737311,-119.745808657761,1.5,stable,stable,1,0.526710649078391,0.204862772490187,0.206285531836995,0.896483533178331,0.322233513668442
31,1.89146676176303,2.73979353904724,-0.948802575540457,-1.61443131882891,1.89146676176303,-0.0727838537514053,-0.0083056670407368,0.0732562179742958,-0.0520269778010701,-0.140050955099812,0.152614014925728,0.0098438666031654,0.154828126494817,0.157142190641174,15.428611940951,0.939355604871521,0.963901853394927,0.176719765287827,0.240255854216562,0.190109300473542,0.47853648800652,0.158705216495257,0.0351261452046777,NaN,NaN,NaN,NaN,1.95935225919259,-119.13516242978,2.38067827347054,stable,stable,1,0.535819574598376,0.204303831517568,0.205891094397002,0.896685951612564,0.315506977567315
32,2.62140083513004,3,-0.645465421182887,-2.50832128836378,2.62140083513004,0.00731021436961513,0.00242509015311945,0.00770196704618272,-0.0306244585324757,-0.328253492950663,0.330881437624025,0.0213716651287026,0.193947200652525,0.196488588779647,15.4120770550854,2.12322549120301,2.10346532337824,0.0299768090616152,0.0671690182202258,0.143409135973859,0.50190307130401,0.0222839288759447,0.00902972949888577,NaN,NaN,NaN,NaN,3,-103.01941117063,1.72902490437019,stable,stable,1,0.738337940457273,0.0865968393875414,0.0651456100214284,0.951801881926054,0.33626260623384
33,1.86319281684386,2.63340020179749,-0.824164427956966,-1.6505741576303,1.86319281684386,-0.0581054235644619,0.0142423379496743,0.0598254497507395,-0.0395278153385274,-0.145480835629702,0.152929782898464,0.00986548815368397,0.14511157412414,0.147482011304426,15.4294563336863,1.05748293667052,0.995282741186963,0.176367467534217,0.240236631315149,0.17921907050513,0.433061502187081,0.158652904313901,0.036117238646338,NaN,NaN,NaN,NaN,1.93692079365451,-115.089103932968,1.85302993446573,stable,stable,1,0.526347820085914,0.184264660735535,0.194204739684551,0.895687393049725,0.320347079775498
34,2.68251477043803,3,-0.575988144224165,-2.58465134655246,2.68251477043803,-0.025956273954258,-0.00890736957981574,0.0274421098026358,-0.0254362016282088,-0.341128131677887,0.343136728315698,0.0221521011728797,0.201208873750492,0.203269767690888,15.4090900092613,1.88965982036277,1.46227178106008,0.063067967542828,0.240540751273522,0.138288115575989,0.478050997408948,0.00182982293857301,0.00834120119053769,NaN,NaN,NaN,NaN,3,-101.157933097739,1.77517532745938,unstable,unstable,0,0.755991225654986,0.0764652301152595,0.0497255567778079,0.942129410788835,0.33853861529956
35,1.8298550731427,2.5516619682312,-0.826301989088684,-1.61838478393256,1.8298550731427,-0.0480046727304501,0.000519637738999927,0.0480074851178169,-0.0382277042541854,-0.138064887695799,0.144780780514435,0.00933799771289013,0.12336614910542,0.125707220113607,15.441586495013,0.89273133007035,0.877953507607844,0.176176644519817,0.240220511375288,0.162853918100136,0.45043321909975,0.158201520030595,0.0343722594537487,NaN,NaN,NaN,NaN,1.86137587595629,-115.841095627455,2.42612294751191,stable,stable,1,0.513102796860774,0.171207923666513,0.185535544317899,0.897999154015477,0.327620480844384
36,1.95284079668115,3,-0.878268060475461,-1.71231749704196,1.95284079668115,0.0063162546271365,0.00565986804010212,0.00848110716511663,-0.0478179604048873,-0.159840058045589,0.170666617521979,0.0110189752988942,0.212891872106632,0.21418558118446,15.4329105145398,1.93450893629745,1.88421992241189,0.0174519845289039,0.0508734801957612,0.131700517168172,0.46455235234978,0.000136290048631552,0.00668610755123934,NaN,NaN,NaN,NaN,2.00134863438598,-116.022448666907,2.35049914481851,stable,stable,1,0.563594662018533,0.237165690393679,0.144791299427969,0.961269709559975,0.341466436814146
37,1.81518360086389,2.5112156867981,-0.815509244711898,-1.60880638043067,1.81518360086389,-0.0482990823271649,-0.0218537072459974,0.0530130726711819,-0.0372852883851731,-0.137202779321946,0.14352506671528,0.00925949686374821,0.119343606629715,0.121600852411157,15.4239914959688,1.03248893006583,1.02007669809377,0.177188017618432,0.24023609882857,0.204941094959791,0.409818918120919,0.158293542215134,0.035734104344214,NaN,NaN,NaN,NaN,1.84847057739295,-116.145839673518,1.91511753078836,stable,stable,1,0.508369130712603,0.166326282658245,0.183142674785428,0.895278689826673,0.308915068906759
38,1.93523098488112,3,-0.77082682674579,-1.74682490996183,1.93523098488112,-0.0868104413045692,-0.0196770799820534,0.0890125844817135,-0.0379614985927199,-0.16751260430425,0.174310759600878,0.0112439554370259,0.202532384300245,0.205282583614325,15.4426244840884,0.962574301681907,0.942630336624457,0.176335371692773,0.240306448810685,0.140804200936716,0.45560313217589,0.159191695877218,0.0362282498547382,NaN,NaN,NaN,NaN,1.9993932608471,-112.620106358339,1.5,stable,stable,1,0.557118112691163,0.255892002223396,0.237460975206443,0.896862849138349,0.337420355139237
39,2.62418175620778,3,-0.628876807677833,-2.51240250167823,2.62418175620778,0.00506751225332031,0.00786277730475299,0.00935430100978637,-0.0304273064245189,-0.32825491744256,0.331001049608925,0.0213794952825795,0.199940604300068,0.202578235742086,15.3933126952003,2.00545545283396,2.22310360797334,0.0202048676136809,0.0547722852894671,0.140296818154653,0.451992936445329,0.000279146229345627,0.00740109508069118,NaN,NaN,NaN,NaN,2.9987372183553,-102.731971335258,2.2538088636372,stable,stable,1,0.740297448803824,0.086274060038378,0.0545798083159166,0.956673173572531,0.337645858597932
40,1.90887875573055,2.82141828536987,-0.310479821987718,-1.85584107816977,1.90887875573055,-0.0776421868948253,-0.0344548498193502,0.0849437805956679,-0.0112021922709396,-0.188482941052521,0.189214415245935,0.0122060398955326,0.199424712419361,0.20251714138511,15.3962557972003,1.12568799476621,0.789436750985781,0.17656541241591,0.240302930200928,0.163928056306985,0.413876136361421,0.159532273293984,0.0363322065923098,NaN,NaN,NaN,NaN,1.96262077332345,-97.9255988407311,2.33903601419275,stable,stable,1,0.549537763138502,0.220894420611386,0.216651596430048,0.896669885075422,0.327143086085784
41,1.89820589648711,2.54940533638,-0.272997121435896,-1.86008458802558,1.89820589648711,-0.0650627166575748,-0.0146076255287405,0.06668238014987,-0.00755137893466663,-0.183642679331557,0.183986759913546,0.01187092220764,0.146487170386174,0.149527347542598,15.3869394325964,1.23131799380679,0.824617680823798,0.176704907562443,0.240256076702211,0.151379768129558,0.44260698783439,0.158261028078298,0.0380156367115195,NaN,NaN,NaN,NaN,1.94919332297993,-97.076725643542,2.20361136430781,stable,stable,1,0.536093708571748,0.158744977003378,0.179409088798591,0.895493765918109,0.33272010305353
42,2.62818822095227,3,-0.624990616611495,-2.51574083887056,2.62818822095227,0.004389771903303,0.001935144564019,0.00479738281218841,-0.0305254975722613,-0.328860599420762,0.331654654812556,0.0214152210876952,0.198726254137289,0.201342989293585,15.3704204638416,2.00981848324226,1.93573456690792,0.0306285307528033,0.0721793336831992,0.129043477883449,0.483040853728782,0.0212326803131968,0.0051454721131722,NaN,NaN,NaN,NaN,2.97766096785849,-102.83550377438,1.560389702163,stable,stable,1,0.741118790112655,0.0845371704679745,0.0620301298550762,0.953684960658133,0.342647343162912
43,1.79778318187675,2.67853617668152,-0.259627172182738,-1.75149611317794,1.79778318187675,-0.0698986582469313,-0.0254096684777159,0.0743738776511533,-0.00844621997946224,-0.168101048660895,0.16862010287797,0.0108766562727448,0.185756613080287,0.188374477260837,15.4102741447152,1.01175637871269,0.746871568489452,0.175899772785253,0.240260477783949,0.133113448241725,0.405271605777642,0.15922140957561,0.0347151740787553,NaN,NaN,NaN,NaN,1.87761184680711,-96.9149867627548,2.12526956913934,stable,stable,1,0.517083743952634,0.211804634733784,0.210471551427766,0.898232322593642,0.340838467448122
44,2.54903529375648,3,-0.610835836692201,-2.44100182762774,2.54903529375648,-0.0221554000340172,-0.0122387860849468,0.0253110575737249,-0.0282295489860493,-0.309107317837855,0.311688272565208,0.0201187761884519,0.222440334770764,0.22431163317234,15.4141318000655,1.63389920415682,1.42734065446889,0.0622838977998301,0.240249942490838,0.12620519971485,0.410229389452791,0.0018686102899594,0.00723698620608066,NaN,NaN,NaN,NaN,2.70268226585959,-102.84402520654,1.958002610534,unstable,unstable,0,0.724605071636195,0.106107419459976,0.0671265764858554,0.944805452210883,0.343908800126733
45,1.72061728142403,2.4064884185791,-0.258889936176306,-1.68959228040645,1.72061728142403,-0.0394954893136921,-0.00797660345382153,0.040292925914948,-0.00566500719907818,-0.150082941167451,0.150288051972635,0.00969513099561118,0.111498476965393,0.113915713892265,15.3891061726902,1.10283779398265,0.793573018795679,0.175918259879218,0.240200522873033,0.129018745776029,0.44173492790315,0.158490124025267,0.0346275404948856,NaN,NaN,NaN,NaN,1.74484723470437,-96.8322370152764,1.95246077372799,stable,stable,1,0.481614417824862,0.161708042277631,0.18005671339615,0.897140499388561,0.342658335210654
46,1.68536660683195,2.41768908500671,-0.227476049065138,-1.65887577931181,1.68536660683195,0.00311301641774366,0.00330724117335668,0.00454188456435071,-0.00465250105612854,-0.144019760616134,0.144175686761849,0.00930713697044788,0.117844807755921,0.119003594630516,15.4103075141063,1.66249808247196,1.70637867330398,0.0289329491048231,0.052802133279802,0.121188025744212,0.40017289018524,0.0229589495679083,0.00518249362530566,NaN,NaN,NaN,NaN,1.71876069037497,-96.5690723186371,1.51470656884426,stable,stable,1,0.47323181408129,0.16560523642612,0.111451662577884,0.959063779509349,0.346138655224795
47,1.7673653996474,2.69210696220398,-0.133561952778165,-1.73385991098578,1.7673653996474,-0.0744029154904905,-0.0402111444704786,0.0845738137552681,-0.00372435189530369,-0.163643663008793,0.163886797769189,0.0105708250712818,0.18411350227634,0.186786904064113,15.3950359165141,1.03622708858519,0.750082608807876,0.176345042814316,0.24024357025441,0.149507607327629,0.40693300554753,0.155939236769298,0.0403799577587217,NaN,NaN,NaN,NaN,1.8330973949862,-93.5355183886098,2.37830695394503,stable,stable,1,0.508654820718797,0.223572050763695,0.21813317891441,0.897792188113325,0.333552174521054
48,1.55216528883028,2.45706558227539,-0.196679576160531,-1.52440882539989,1.55216528883028,-0.0237021568099841,-0.0260373064125759,0.0352098503641728,-0.00482650562583456,-0.13778942134393,0.137993412395338,0.00889904396597843,0.139118441076414,0.140154343108429,15.4687175984818,0.648538643107065,0.66132940465842,0.163391069778631,0.244995530326167,0.258937459106206,0.543724019013794,0.151360465170108,0.00531668553652774,NaN,NaN,NaN,NaN,1.76093856199151,-95.8152911333806,2.24895719916865,stable,stable,1,0.44194161230976,0.210057705258582,0.195239281203632,0.908012644735384,0.284916684841686
49,2.62375907594942,3,-0.681745283052119,-2.4962224235825,2.62375907594942,0.00886022412592634,0.000771564966405083,0.0088937553406326,-0.0345245238802467,-0.324101734017432,0.327594525163717,0.0211537067368341,0.202270605960506,0.204910082394086,15.373114997592,2.1591666261447,1.67152410439017,0.0303906140395981,0.0595274320425977,0.127582068811028,0.430347252822254,0.0219350572161665,0.00499767478399914,NaN,NaN,NaN,NaN,3,-103.690253195533,1.5,stable,stable,1,0.740651103398664,0.0862847297238291,0.0633370884376843,0.954706408668856,0.34329685830621
50,1.65912787414886,2.32163023948669,-0.148279110809798,-1.63840209782193,1.65912787414886,-0.0420139175178749,-0.0287411426528358,0.0509040523552836,-0.00332223137760952,-0.142695818787869,0.142809764411965,0.00921260912872644,0.129947035283843,0.132319189734424,15.4217557355647,1.07595845529774,0.754482199445681,0.176752061942145,0.24021007220487,0.144341075822573,0.397903897297978,0.157910088648391,0.0365379592154087,NaN,NaN,NaN,NaN,1.72627812567413,-94.411640590645,1.53520052250649,stable,stable,1,0.468897937719914,0.158395441799482,0.178506057324981,0.897241935313086,0.335848410745523
51,1.5698524453496,2.37167406082153,-0.132876225016964,-1.54491290295932,1.5698524453496,-0.0612387622318079,-0.0258021992111775,0.0664525355710163,-0.00333429077203166,-0.12901107904623,0.129162639364558,0.0083287796265548,0.147325403036804,0.149341750559954,15.4901439781762,0.809349689145197,0.344066102828577,0.175982524603945,0.240179307760632,0.109561687345462,0.350712678642557,0.155306607174469,0.0416444523012031,NaN,NaN,NaN,NaN,1.64198518080473,-93.7945426045898,1.93174940957443,stable,stable,1,0.448495668871883,0.192592828335872,0.199724292946169,0.902946185046805,0.35130591673535
52,2.63749103123528,3,-0.641464180564625,-2.52474652457399,2.63749103123528,0.00546329892511878,0.00142739222705923,0.00564668785351848,-0.0306131837076885,-0.331134467090818,0.333775291578375,0.0215537863732072,0.194221227469853,0.196845096398926,15.4111776121035,2.01657609000723,2.06717869844886,0.0160716428839391,0.0469287792374465,0.137816260495428,0.402737663305798,0.00029575266509828,0.00704864559810947,NaN,NaN,NaN,NaN,3,-102.899260755177,2.42005316524385,stable,stable,1,0.742699960942526,0.0825997440785411,0.0522544359299152,0.95987753379159,0.338748328668699
53,1.72593966906503,2.41523289680481,-0.151240169285396,-1.70655170640246,1.72593966906503,-0.04466020719314,-0.0164500430004464,0.0475934661613412,-0.00312517066827982,-0.154075390412474,0.154166892543127,0.00994391143748019,0.118236326915622,0.120844783399279,15.4545287248204,0.9439489546001,0.66858605215101,0.175951502052255,0.24020294756657,0.135911961912175,0.394949731709341,0.155367529211024,0.0408736268066619,NaN,NaN,NaN,NaN,1.76767167051157,-93.7767495596924,2.45813735647588,stable,stable,1,0.484419535097196,0.163816445037697,0.182205239248122,0.899354331063685,0.339594683594589
54,2.59803172111511,3,-0.547944558320935,-2.50527226033848,2.59803172111511,-0.0136869904404429,0.0146035376474582,0.0200149199133423,-0.0262725880848285,-0.339047939458063,0.341117446744861,0.0220205291796984,0.203115466685072,0.205145531839911,15.3879901992782,1.6779777860973,1.53745775686377,0.0628634385419426,0.240396069224176,0.127250389680387,0.456407279741001,0.00190837195078372,0.00725049535499269,NaN,NaN,NaN,NaN,3,-101.106544404973,2.22769655788286,unstable,unstable,0,0.733837565332012,0.0941122647332125,0.0599520679168388,0.943304144320049,0.343444271253161
55,1.63035872014793,2.4819188117981,-0.150967389927235,-1.59947264165527,1.63035872014793,-0.0658248065460759,-0.0278099706349188,0.0714583768605428,-0.00421714208922013,-0.139052097544989,0.139288874028168,0.0089843506526011,0.163231536643623,0.165549130290645,15.4103727213159,0.962841156934541,0.760881865464041,0.176745992927382,0.240208222366249,0.157375801287924,0.366732816463455,0.158813120857379,0.0370890194921423,NaN,NaN,NaN,NaN,1.6954412846166,-94.4207914550518,1.56938350252016,stable,stable,1,0.467872151430911,0.20470172304572,0.206891559276339,0.898083465503177,0.330055199427589
56,1.68407805288914,2.59575462341309,-0.103752520746854,-1.65789744844346,1.68407805288914,0.00382199675464223,0.0116994164003297,0.0123078837864516,-0.00276833538631444,-0.149215875591138,0.149365481606835,0.0096452818515012,0.181540434646948,0.182709608324149,15.4042638683548,1.99153704081026,1.85726739414385,0.029545731675994,0.0496710836010701,0.140236719038012,0.388175135655406,0.0189925103916798,0.00675325158472759,NaN,NaN,NaN,NaN,1.73280982852964,-92.1431804697514,1.68825071710071,stable,stable,1,0.485629402435268,0.207383673728736,0.135327047815869,0.954986527887364,0.337672569316439
57,1.58215956639924,2.28825569152832,-0.189434149330692,-1.55588223657767,1.58215956639924,-0.054024655610204,-0.0172178212019186,0.0567019997949136,-0.00427930656427377,-0.128729067037415,0.128900485307144,0.00831408877159214,0.125060632043926,0.127126640065933,15.4371131304741,0.903568781535107,0.710523139987862,0.175962755754138,0.240166631389412,0.113617556562321,0.320138369853886,0.156954786362718,0.0409306895499454,NaN,NaN,NaN,NaN,1.65239533729994,-95.8334835366937,1.7609554263421,stable,stable,1,0.447334545719649,0.169266994783112,0.186201766806813,0.899336471310965,0.349503308194524
58,1.63347977319279,2.40734004974365,-0.102717437068597,-1.61857455940184,1.63347977319279,-0.0366073634224865,-0.0208738493708624,0.042140439536192,-0.0018383921568708,-0.138491023095897,0.138541519653164,0.00893550214238152,0.121075968647488,0.123386456895151,15.3948643546534,0.858383124131911,0.676167394317514,0.176839433980356,0.240187880517097,0.143088640200648,0.443078335332406,0.157985001812643,0.0366675682934892,NaN,NaN,NaN,NaN,1.68060545220575,-92.4282145747537,1.70672901456584,stable,stable,1,0.460271897563775,0.181844309472245,0.192655803242154,0.899523100364862,0.336405048799712
59,2.52592634915508,3,-0.507058777811018,-2.44466159717933,2.52592634915508,0.00717105553293029,0.00586655959436784,0.00926501802106393,-0.0217618117045538,-0.313537745342886,0.315022274486224,0.0203394607301461,0.207773067185962,0.210223989288497,15.4270548912872,2.04674847994081,1.64295745759375,0.0292036516675492,0.0453672501495016,0.127257983500721,0.350732561256773,0.0195702719336796,0.00568043979680595,NaN,NaN,NaN,NaN,2.78982386220964,-100.41262924442,1.76401355006413,stable,stable,1,0.715625157632388,0.108365158077302,0.0757826079551378,0.956407627514168,0.343440896221902
60,1.64210916205541,2.35611939430237,-0.0810332639844191,-1.62990040758084,1.64210916205541,-0.0412903921198739,-0.0198647513227602,0.0458203538455134,-0.00138231851033236,-0.140729598298338,0.140764519675789,0.00908007224457985,0.119275539670422,0.121685268217793,15.4274020201491,0.95213764774708,0.716310787577374,0.174834994229034,0.240187105370545,0.119926332516267,0.344277042414492,0.1576133930361,0.0427302804045584,NaN,NaN,NaN,NaN,1.72864210057146,-91.9462754292346,1.66630924924982,stable,stable,1,0.462232830191667,0.169052700460577,0.187020300964755,0.899473265179362,0.346699407770548
61,1.60970660624088,2.31676268577576,-0.192127777876899,-1.58698912872457,1.60970660624088,-0.0405525526618702,-0.0213389963172261,0.0458242543989571,-0.00387274628282576,-0.133403252401066,0.133536835297599,0.00861253471743544,0.110772021079994,0.113089487385157,15.4181372095009,0.824474847287615,0.665213953575319,0.175836077568266,0.240171817362869,0.132711909618231,0.427469146191128,0.156347131612262,0.0392926206761105,NaN,NaN,NaN,NaN,1.6541677253945,-95.777639022521,2.45011066480617,stable,stable,1,0.451872992474599,0.167488731201823,0.184269078471392,0.900377263494801,0.341016929058564
62,2.61218631905457,3,-0.530139212034966,-2.52617412544431,2.61218631905457,0.00843394695864014,0.00343739818740027,0.00910753356293009,-0.023397251586723,-0.331981884734102,0.333607623657558,0.0215500126976167,0.193964939879091,0.196605031283905,15.3847853868881,2.34766539602089,2.08356835556239,0.0192775064847941,0.0530070117732193,0.144257547664617,0.417895955843079,9.16571479484267e-05,0.00983671540895513,NaN,NaN,NaN,NaN,2.96888331606625,-100.576107342626,2.28749518247866,stable,stable,1,0.735904024671333,0.0889277926992593,0.0569743995511931,0.95554441013802,0.335885534371281
63,1.54668160548081,2.31977248191833,-0.096027359030531,-1.52208806790864,1.54668160548081,-0.0549546340362722,-0.043658655621584,0.0701861098276908,-0.00245553803895923,-0.125910045896357,0.126052113105167,0.00812967740319831,0.159239667233038,0.161304456952656,15.4698651125497,0.855308179554162,0.649190720918248,0.175578585064701,0.24020088244134,0.152201980693057,0.385785061826575,0.157645568095511,0.0341486470701069,NaN,NaN,NaN,NaN,1.60300708299886,-92.1234906695166,1.5,stable,stable,1,0.444709319518748,0.186812900666852,0.194570127175125,0.900389644678223,0.33235467524753
64,2.65997862671884,3,-0.629008472815424,-2.55223884162672,2.65997862671884,-0.0211883221630567,-0.00376592837840482,0.0215203906246321,-0.0289000158891104,-0.338473672835128,0.340891094887114,0.0220090195375437,0.201527232199124,0.203576626006642,15.3930998408818,1.95547330950552,1.50093001884682,0.0629794411220062,0.243424374223331,0.135941944788481,0.40033687464576,0.0018767604086533,0.00977372194750983,NaN,NaN,NaN,NaN,3,-102.201792877698,1.96617479313371,unstable,unstable,0,0.75004295899302,0.0804502139361094,0.0526583248070303,0.941352824716228,0.339581357871786
65,1.50824728688678,2.10140037536621,-0.139373126323058,-1.4907262497333,1.50824728688678,-0.0384996498432683,-0.0183265728575419,0.0426390233325889,-0.00250490939623322,-0.118000590559005,0.118073886246606,0.0076161708798316,0.11226745450732,0.114204776193153,15.4289733000722,0.907514452363406,0.769999676195333,0.176503400934367,0.240166592502048,0.148358113844905,0.465619353154006,0.157973559529027,0.0362328195130786,NaN,NaN,NaN,NaN,1.55228808798252,-94.2268777224065,2.22445560140401,stable,stable,1,0.425040231741773,0.141276599185513,0.168152001145126,0.898567831379855,0.334063060513376
66,1.58465215892696,2.25812840461731,-0.123253142580549,-1.56407754830389,1.58465215892696,0.00226359800515486,0.00298396309762745,0.00374538538697201,-0.00274911755028154,-0.12900605472217,0.129112245744454,0.00833614010624793,0.124497713356978,0.125596140777155,15.42427690631,1.87800548636966,1.89229684177302,0.0272208359335366,0.0486173917904791,0.123913701633785,0.39399413301371,0.0104420027387487,0.00645206782054195,NaN,NaN,NaN,NaN,1.60696450398557,-93.5145725727472,1.92360165944359,stable,stable,1,0.447693137202621,0.15221880926794,0.0983183821470716,0.956765778026396,0.344927243718318
67,1.65223481204059,2.33357357978821,-0.108347174228162,-1.63691718339699,1.65223481204059,-0.0419736371741426,-0.0179587154726529,0.0456541529223166,-0.00205527992905139,-0.141323111847999,0.141378536192847,0.00911910844961603,0.105156862250777,0.107503451641137,15.4264180500581,0.934985698204289,0.750050713160297,0.176053833917692,0.240177860446502,0.129227505183912,0.408657550165546,0.159013984879806,0.0358923644405844,NaN,NaN,NaN,NaN,1.70472744872138,-93.0615211949791,2.2506822113863,stable,stable,1,0.462096640205717,0.161671150778973,0.180727341523672,0.898733511237575,0.342565553251595
68,1.60428286598833,2.22615456581116,-0.135232703105377,-1.58274053809336,1.60428286598833,-0.0587795399740592,-0.0294466563673413,0.0657429835859182,-0.00306399111225138,-0.133451914295108,0.133568408206752,0.00861545855389838,0.129647605446516,0.131783973276005,15.4417766687941,0.911247648104364,0.730217762862385,0.175985155734027,0.240207207536877,0.151911624580231,0.386440309263967,0.156124110536356,0.040560737375995,NaN,NaN,NaN,NaN,1.6346567991892,-94.1375227104005,1.72306262154367,stable,stable,1,0.454165558918755,0.151974012784222,0.175322260288063,0.899110193903962,0.332483722408786
69,2.61645171116028,3,-0.399624321391788,-2.55234812052181,2.61645171116028,0.00577638716907831,0.00519665349613563,0.00776993283664609,-0.0167883581102671,-0.338571550600158,0.339510064915076,0.0219321102033638,0.197506863077716,0.200266397027512,15.4064821881506,2.28784679546455,2.08431349247569,0.0300590711666926,0.0504496919001283,0.144400102916624,0.357674418352988,0.023212686153423,0.00599623291659283,NaN,NaN,NaN,NaN,2.97762147861884,-97.4745863886534,1.53269686281467,stable,stable,1,0.737773735714911,0.0877228526756546,0.0651309093402206,0.95061777643998,0.3358221764815
70,1.70890434236334,2.35168886184692,-0.100289910860094,-1.69392677408018,1.70890434236334,-0.0487273270096888,-0.0212116695382644,0.0531440243311482,-0.00193644595679068,-0.1526822901787,0.1527372678221,0.00985160327200344,0.122373590636166,0.124823856873872,15.442946348467,1.01966395101954,0.561710034338047,0.176397019392659,0.240211191839469,0.134837041338408,0.35221447708349,0.15600233820034,0.03898580670944,NaN,NaN,NaN,NaN,1.74106956136438,-91.9626622500687,2.41145633825358,stable,stable,1,0.480672596005,0.154369588011182,0.176132782325445,0.899376408990147,0.340072426071818
71,1.6372566173474,2.35098195075989,-0.197819000964056,-1.61433494107422,1.6372566173474,-0.0492431833397869,-0.0257948625991983,0.0555901613772381,-0.0039527248248981,-0.138193282698863,0.138321741005504,0.00892316313882261,0.113274000053724,0.115407655649107,15.4246079014848,1.06967093532288,0.765437557961618,0.182543079930693,0.24019178282764,0.154241744556806,0.43961102223196,0.14485738974872,0.0045078490459686,NaN,NaN,NaN,NaN,1.67774962146967,-95.9395937551425,1.99477092411116,stable,stable,1,0.459683295755795,0.170779729603637,0.168488117707622,0.894309750444561,0.331448113530309
72,2.41936939431203,3,-0.565031958979109,-2.3217695787833,2.41936939431203,-0.0214084659322258,0.0157697985979456,0.0265896401139812,-0.0263347432369752,-0.30314991771293,0.305290807934465,0.0197036486812579,0.201747072210432,0.203451426326789,15.3946307339598,1.52231054876616,1.27891785152526,0.0272817390665558,0.0881785484046983,0.181182777932807,0.661552578774553,0.0242544612675706,0.00493673930390115,NaN,NaN,NaN,NaN,3,-102.28205700878,1.54139650147356,stable,stable,1,0.6858554570819,0.135516653634022,0.0938849306724694,0.964349478750147,0.319474320918752
73,1.67451013814683,2.43026304244995,-0.176552691093185,-1.65044080366073,1.67451013814683,-0.054366558329626,-0.0271768395000291,0.0607807804311442,-0.0041310202690505,-0.145392346704088,0.145541628067325,0.00938635942809036,0.135643691033469,0.137977103473302,15.4711314475031,0.812447148679162,0.562638376419011,0.175799197934751,0.240184883638374,0.13125597379104,0.368026423710892,0.155889815687654,0.0414989050695974,NaN,NaN,NaN,NaN,1.730743683828,-94.7490683234343,1.87299886764807,stable,stable,1,0.474131457533815,0.181187546547246,0.193087401390593,0.901296157621139,0.341664011648427
74,2.66236039631658,3,-0.592129340803511,-2.56138259571663,2.66236039631658,-0.0265433901198731,-0.00500429681990285,0.0270110078619342,-0.0268675082040575,-0.339875392160347,0.342027722517674,0.0220742985036992,0.20472523913683,0.206778655524012,15.4089023433652,1.65450018101096,1.26666951430743,0.0627579993491665,0.240399208252289,0.121484320328438,0.399162058140716,0.00188358648172805,0.0102039006608338,NaN,NaN,NaN,NaN,3,-101.440236798872,2.06303520685037,unstable,unstable,0,0.751318503455891,0.0809209289367901,0.053100216240721,0.945668952719344,0.346006968742916
75,1.66031017053772,2.56602168083191,-0.187564159440008,-1.62828419888826,1.66031017053772,-0.0614096670324588,-0.0323305134870196,0.0694003552395217,-0.00529690534293089,-0.144615205360241,0.144865721266276,0.0093453111110833,0.173667116163059,0.176194770346466,15.380740187564,1.12686370329974,0.81913611828847,0.177964161284587,0.240202384965749,0.1403376121908,0.469931174578573,0.15863773133685,0.0372007689197002,NaN,NaN,NaN,NaN,1.72844746755899,-95.0560971705178,1.85821653569849,stable,stable,1,0.477988332879351,0.216508488276772,0.213938303672433,0.895727920759514,0.3376277279152
76,1.76197667783718,2.51583170890808,-0.231655964310622,-1.729181805542,1.76197667783718,0.00352290277095276,0.00589935676281915,0.00687119015517739,-0.00600305687940318,-0.158012489016448,0.158278187006962,0.0102184958539091,0.146702591732741,0.148006126658682,15.4283523867331,1.81847045354293,1.7799557534888,0.0255975100780102,0.050788300792124,0.122635030807945,0.412497816243378,0.00694851753391957,0.00551427757750571,NaN,NaN,NaN,NaN,1.80133462105751,-96.2777836497926,2.00758163260788,stable,stable,1,0.499461672754985,0.170877100186069,0.107619681973082,0.95892789619146,0.345495541863136
77,1.6928169131279,2.4327564239502,-0.145861052699368,-1.67083120934859,1.6928169131279,-0.0420607357855831,-0.0172880121447376,0.0454750575452217,-0.00314879229565769,-0.149437254558592,0.149545415215112,0.0096451461977992,0.140279624316177,0.142731979462463,15.4630382156362,0.972191262282028,0.551386725457442,0.17678078611285,0.240207012960379,0.13000458182374,0.35965887299549,0.157508989695961,0.0365853344456202,NaN,NaN,NaN,NaN,1.75923009576763,-93.8331549635916,2.24311272693151,stable,stable,1,0.479964239393266,0.174823483818307,0.188201843691637,0.899638637039908,0.342220185856115
78,1.77828467852317,2.73555088043213,-0.212737183853589,-1.73676863707474,1.77828467852317,-0.0759609484594865,-0.0241157389360587,0.0796971427047225,-0.00709732792017894,-0.164029666416536,0.164462241300623,0.0106076187173272,0.182251590676827,0.184903084320407,15.4563051739374,0.881889588942045,0.7450525105357,0.176092505361158,0.240255746726891,0.14360260087362,0.40803832423146,0.155209940966427,0.0397624005439313,NaN,NaN,NaN,NaN,1.84421771642335,-95.6415120879709,2.37416673226075,stable,stable,1,0.511189864470261,0.229996038258714,0.221438873683555,0.899170630823524,0.336176621833947
79,2.62796223761645,3,-0.404908565345226,-2.56632482487228,2.62796223761645,0.00436661017837601,0.00244746480670773,0.00500573355563097,-0.0164265850372494,-0.342470799469493,0.343347262317233,0.0221794220242268,0.193799936490004,0.196566229398243,15.3971697186509,2.25421040855684,2.14792080185328,0.0161752987231951,0.064245134575756,0.143655599652023,0.461260229692518,0.00032377121947749,0.00623991882894522,NaN,NaN,NaN,NaN,3,-97.5958361626102,2.41871633169891,stable,stable,1,0.740103175910701,0.0846262143548319,0.0531886883250106,0.957324176842323,0.336153066821323
80,1.78912040752334,2.50822591781616,-0.213815235880693,-1.7646281508398,1.78912040752334,-0.0387000682050629,-0.00980116317695859,0.0399218997380872,-0.0044973874703966,-0.163807169008156,0.163955889298571,0.0105744560111546,0.117531622855606,0.12016616990449,15.4583043071684,0.935780875958981,0.67066595910133,0.176245744778933,0.240203726522943,0.156218169135912,0.403117817023414,0.159446722968664,0.0352039814778903,NaN,NaN,NaN,NaN,1.84269174465958,-96.4089816842801,2.1389471364167,stable,stable,1,0.501132009320454,0.169117754767869,0.185137310879158,0.89925504533506,0.330569702606262
81,1.85898559721741,2.54223036766052,-0.199763780961842,-1.83520611386934,1.85898559721741,-0.0493135604986009,-0.0190682778109498,0.0528717927417326,-0.00441948469378387,-0.177063468851931,0.1772049978287,0.0114337783185207,0.123969780824428,0.126939782013746,15.3499305426907,1.19930347634244,0.933565798550726,0.176574400334141,0.240322826223924,0.169634151131373,0.459572371665045,0.156110418762126,0.0415525818735951,NaN,NaN,NaN,NaN,1.90149022471625,-95.3637271300002,2.48077161253645,stable,stable,1,0.521117448994057,0.163423235352352,0.18254637932235,0.894954541244483,0.324607043941612
82,2.59238264233771,3,-0.39830903066688,-2.52745207771407,2.59238264233771,0.00851997031218914,0.00246286610188933,0.0088687994427893,-0.0169542335141256,-0.333269836590032,0.334273590264204,0.0215906548982805,0.208366494731796,0.211042895667515,15.40770240416,2.1741008994137,2.1148893477909,0.0157274714614049,0.0663759598995174,0.149914696416188,0.483650905933083,0.000181936565678345,0.0116586338028898,NaN,NaN,NaN,NaN,2.91783086718893,-97.7855854258006,2.42910756134993,stable,stable,1,0.733510617090225,0.0933398520385267,0.0603242751200239,0.958437055184118,0.33337124603725
83,1.7044362377476,2.64497399330139,-0.334126641036216,-1.64662125637005,1.7044362377476,-0.0650048531760393,-0.0252885681087418,0.0697505742874487,-0.0109167999161355,-0.147922589269078,0.148772895978666,0.00959669624341835,0.167760417931814,0.170135523445893,15.4222815854951,0.970213854451887,0.841292896171912,0.176987616433153,0.240246902115653,0.157139878666606,0.442074032931775,0.158655122741475,0.0361974968924504,NaN,NaN,NaN,NaN,1.75027764965131,-99.5200046041142,2.22259147069358,stable,stable,1,0.488543434755207,0.224408600285634,0.21832127419919,0.897272924457094,0.330160053925953
84,2.65581685188905,3,-0.445783666417876,-2.58416164382888,2.65581685188905,-0.0253106464703755,-0.00912957779709134,0.0269068395673196,-0.0178755266049918,-0.343879808969101,0.344951406708866,0.0222687096361078,0.207308065816656,0.20936660331453,15.4202671712746,1.76194743179495,1.47829469258745,0.0631764593779057,0.240373453462929,0.140304369435754,0.39026857532528,0.00190803984253658,0.00894738653125562,NaN,NaN,NaN,NaN,2.95681470906161,-98.270421652992,1.87005891672024,unstable,unstable,0,0.750091147833318,0.0823741289123067,0.0535260901574528,0.942952725048043,0.337642502472998
85,2.03513260225992,2.83056211471558,-0.454135888568734,-1.96110913347497,2.03513260225992,-0.0627681884458351,-0.0166345018786266,0.0649349838956005,-0.01639071332782,-0.203785819372057,0.205099071525539,0.0132301528359944,0.153783328097491,0.157072802454062,15.4092481334709,1.12227618600659,0.80560103531219,0.17704231737592,0.24029635245558,0.165492000136293,0.469583711915881,0.158080333388352,0.0366697971224633,NaN,NaN,NaN,NaN,2.10680641889481,-101.731697741666,2.29559699178149,stable,stable,1,0.574116587760124,0.190876387350049,0.198118230041304,0.896331234573107,0.326447999939425
86,1.9510750583183,2.7762086391449,-0.540603987190505,-1.85451578390671,1.9510750583183,0.00210454359943648,0.00643301182685072,0.0067685112784371,-0.0198663017240607,-0.181995305974679,0.183865029487459,0.0118743776341875,0.164045195697588,0.165408392177147,15.397592637779,1.93641687234288,2.04237814078563,0.0297209006769378,0.0559872319714134,0.139613431097271,0.424304771983968,0.0192705459305367,0.00502458051032821,NaN,NaN,NaN,NaN,2.01104491577433,-105.279667622794,1.51668639397039,stable,stable,1,0.553368360653643,0.186895949420364,0.122529376918031,0.953877588844093,0.337949586178991
87,2.01579058653599,2.8999617099762,-1.15035692183867,-1.63926692324708,2.01579058653599,-0.0470138134700435,0.0137332953759782,0.0489785877591413,-0.0719384342738709,-0.142509905349193,0.162717266998914,0.0104972788015965,0.136654745308135,0.139328297457533,15.4182099545448,1.06403688644918,1.05103106582801,0.177012350936166,0.243603058112,0.180417408963477,0.375056611788163,0.15775999558753,0.040058160677496,NaN,NaN,NaN,NaN,2.06469467336038,-124.238920485483,1.7409234215209,stable,stable,1,0.565409815901105,0.207917910529888,0.209432903795116,0.89487543347831,0.319814484905121
88,1.923382094583,2.91808199882507,-1.07750171246084,-1.56063614299296,1.923382094583,-0.0873779592942059,-0.0105268019630373,0.0880097797405999,-0.0681401317907996,-0.13452435969243,0.156603450147986,0.0101014409101657,0.197065302152927,0.199443556918316,15.4286626062554,0.998916106003559,0.895043257931611,0.176667629394823,0.240293438817197,0.148266030536029,0.477912085934264,0.155625672448106,0.0394684269083868,NaN,NaN,NaN,NaN,2.00959748573364,-123.70580417537,1.64227335972975,stable,stable,1,0.552790603272462,0.239942604740244,0.227484683616051,0.896785076014526,0.334103986428432
89,2.62266750877916,3,-0.254473977934823,-2.57920158691092,2.62266750877916,0.00551364202680977,0.00340172368235603,0.00647857796209205,-0.00998746929253682,-0.345866661158091,0.346320437433465,0.0223639818429971,0.194504292312616,0.19733555104143,15.3981899162081,2.09280432152864,1.8872637031349,0.0260518838620887,0.0694938668089033,0.13282554426204,0.510627167452022,0.00663448119911327,0.00793782089996779,NaN,NaN,NaN,NaN,3,-94.0907171926139,1.99776617710087,stable,stable,1,0.738845112549396,0.0860875498177387,0.0574876685286213,0.955702095018028,0.340966424772427
90,1.93731326784864,3,-1.06414656927006,-1.58416589005424,1.93731326784864,-0.0899150162513022,0.0061078384682212,0.0901222272151871,-0.0672520967359228,-0.139354281652939,0.161065901215143,0.0103883001565788,0.21040601341796,0.212814203266123,15.4559808266294,0.894054353812419,0.885429565508699,0.176050081411255,0.240280645997402,0.158199818064543,0.361770262169319,0.156500177298235,0.0414838324188185,NaN,NaN,NaN,NaN,1.99637079272466,-122.311062912018,2.02230922348179,stable,stable,1,0.559179712079527,0.255626923056841,0.238016818159355,0.897993299928278,0.329688969749092
91,1.89255073183292,2.60087728500366,-1.13189538256557,-1.50298141534063,1.89255073183292,-0.0513885151906788,0.00302107300450974,0.0514772413363537,-0.0691787322893356,-0.1195275746528,0.140649858992681,0.00907139369138222,0.121749423961791,0.124043293271218,15.4270320847683,0.885772258988235,0.835459837831908,0.177361689486172,0.240225494810471,0.150910668212305,0.503242093975861,0.158382043096902,0.0361189826726534,NaN,NaN,NaN,NaN,1.94546366280019,-126.251978914843,1.50609490651621,stable,stable,1,0.529488853809688,0.168810968708416,0.184812775896557,0.897795188781899,0.332928591905642
92,2.6248262781762,3,-0.482630726117122,-2.54642134910445,2.6248262781762,0.00649736652628585,0.00618151825136059,0.00896810680516261,-0.0212988873509814,-0.336974429171449,0.338400757447804,0.0218491144674094,0.196450394898595,0.199163260673948,15.3746354982367,1.89082694259261,1.88682634427065,0.0293135124344505,0.0626337315336039,0.119774348777579,0.516929754904685,0.0207592906788583,0.00685896561753976,NaN,NaN,NaN,NaN,3,-99.2513675644137,1.55316798662328,stable,stable,1,0.739786326315109,0.0860582403246357,0.0633554649230764,0.955661682243135,0.346766956098854
93,1.65988237753108,2.54636168479919,-1.00836905422243,-1.28974951443367,1.65988237753108,-0.0678050288464848,0.00943224450802455,0.0684579372558931,-0.0592189904375209,-0.0923800665219617,0.114909742040202,0.00741233096748463,0.175963260016339,0.177794089787989,15.3763630159105,0.962941755926705,1.01444969771755,0.177647569033679,0.240233898928956,0.148982002783896,0.463498440363645,0.159595716325129,0.0371014667768839,NaN,NaN,NaN,NaN,1.74681180591764,-126.657123786368,1.52618810643684,stable,stable,1,0.478194118632552,0.212008465965573,0.211627951521501,0.895639568347384,0.333785776540491
94,2.64571982408765,3,-0.262440103167518,-2.59846632441491,2.64571982408765,-0.0244215072351353,-0.00341072943526197,0.0246585297801051,-0.0102859646724662,-0.352226791267146,0.352734046854581,0.0227733991437623,0.204527284363212,0.20666822491817,15.4052907779608,1.93024796787309,1.50981211531866,0.0719316503649663,0.240509572549677,0.135815137045191,0.433500506193474,0.0380899879070397,0.0830499740289858,NaN,NaN,NaN,NaN,3,-94.2734617915732,1.95076188281817,unstable,unstable,0,0.746858931407007,0.0842337700399651,0.0976691360942138,0.937005131306724,0.339637716868804
95,1.72893236016714,2.76927828788757,-1.08998320274337,-1.32697564449235,1.72893236016714,-0.0371584456049894,-0.000498001055926965,0.0371617825841369,-0.0683568637362755,-0.0998597212266233,0.123909899724803,0.00799217043687811,0.131141416657685,0.132334716030462,15.4376108581162,0.641565243966396,0.99144274579074,0.168149312068024,0.243412670472653,0.240296174108724,0.50829675292197,0.263041360841863,0.00475031841794365,NaN,NaN,NaN,NaN,1.86493072097439,-128.583435678336,1.87856906297092,stable,stable,1,0.487515572583998,0.240890827210855,0.263169156327401,0.90309456690361,0.293201700396123
96,1.71274219767306,2.67528581619263,-1.05659124860522,-1.31846324965985,1.71274219767306,0.00596372721883433,-0.000995932921844957,0.00604631497074707,-0.0642658955316592,-0.0950653434576064,0.120223045479791,0.00776466281703212,0.181860929806277,0.182791952259666,15.3880860947155,2.09021053077647,2.10457054398843,0.02988131875056,0.05504932331656,0.13790824823112,0.458586305026523,0.0169563310627824,0.00535133782116872,NaN,NaN,NaN,NaN,1.76269102467469,-127.19753908103,1.74726535956856,stable,stable,1,0.493289643164748,0.217680805244873,0.140090571311818,0.952100346465853,0.338707445230614
97,1.78294452564828,2.40332102775574,-1.10302105034823,-1.38532577783224,1.78294452564828,-0.0536325011328236,0.00280895422319782,0.0537060089895939,-0.0660546557344698,-0.101839240842603,0.124291781978821,0.00801503443072584,0.122295856633674,0.124251431227163,15.4762337981086,0.745439502927278,0.655162163697346,0.176284442461147,0.240221523629461,0.129883073134001,0.374368909141373,0.159476064201328,0.0353899393695302,NaN,NaN,NaN,NaN,1.81622668042125,-127.513201967813,1.76881148886427,stable,stable,1,0.500302159751641,0.149430814622269,0.173405808391155,0.900853051388805,0.342274189718222
98,1.88497882517608,2.67892575263977,-1.19758428039589,-1.43831163379443,1.88497882517608,-0.0458242936899435,0.00602805562255147,0.0462190798996558,-0.0777465609239861,-0.110109205223935,0.138363940657083,0.00892601567842762,0.131636168120391,0.133834755855614,15.4037588737445,0.929970909029223,1.16814308503134,0.176710327365557,0.240253109801418,0.178550736552902,0.50749015390177,0.159337006194744,0.0353189470259921,NaN,NaN,NaN,NaN,1.91962505408224,-128.853168090004,2.10302780009953,stable,stable,1,0.529427971218079,0.187111556660933,0.195926634658221,0.895159654935317,0.320644117087599
99,2.62538416090618,3,-0.168480740058902,-2.58988409833218,2.62538416090618,0.00205094103988606,0.00817128530571407,0.00842474110560482,-0.00637384684230803,-0.348505596469436,0.348779494107076,0.0225216196140024,0.194305404760431,0.197114383515323,15.3588834634297,2.02978945028504,1.77301777230563,0.0285051533180888,0.0599788914432694,0.129586087664532,0.513927738916366,0.0219224003416348,0.00522435664644791,NaN,NaN,NaN,NaN,3,-92.2002194325483,1.61834640807659,stable,stable,1,0.739525319611378,0.0858330996654712,0.0631429148932631,0.955868223734886,0.342406183260208
100,1.61326328886522,2.4029438495636,-1.01684062143065,-1.23486886715135,1.61326328886522,-0.05124489963438,0.00511504308940291,0.0514995476130046,-0.0567201064837677,-0.0816398392424201,0.102509704657252,0.00661113010050562,0.127431840458313,0.129132759653515,15.4352007167515,0.778129547610956,0.84916487601982,0.177136175970082,0.240187745144174,0.142469850174952,0.387894938362946,0.158327885721696,0.0361824277472709,NaN,NaN,NaN,NaN,1.68546986904653,-128.540481584722,1.61782911122407,stable,stable,1,0.456030095628095,0.187119709886186,0.195797021594908,0.89864602725786,0.33668006658891
101,1.6733254741978,2.35608983039856,-1.07559095817396,-1.26857443531613,1.6733254741978,-0.0425013007804885,0.0106703626428751,0.0438202830543576,-0.062105207046282,-0.0851600453663436,0.107803305839376,0.00695442608401919,0.115637309452864,0.117397472402926,15.4046277879083,0.92286801598342,1.07880179564915,0.176931933467171,0.240198256011154,0.17695436658871,0.464009495571441,0.159648447194053,0.0344259800612346,NaN,NaN,NaN,NaN,1.69807149429304,-129.55767099295,2.32825451730089,stable,stable,1,0.469699620933332,0.161655698705136,0.180466822846746,0.895806627603587,0.321353614849462
102,2.62329499298912,3,-0.134337904311451,-2.5895579370197,2.62329499298912,0.00396210002944271,0.00745127878362728,0.00843918196003878,-0.00449101679199229,-0.348585518568082,0.348806874918265,0.0225215996670032,0.188560833630979,0.191427100539825,15.3936211183083,1.88511536106482,2.02655188861744,0.0198106743290684,0.062936902989655,0.12787339617201,0.481551479770072,0.00043695827631316,0.0080596298784295,NaN,NaN,NaN,NaN,3,-91.8482151525671,2.2646502593225,stable,stable,1,0.737830751571731,0.086305809936788,0.0549084641416813,0.959360134445105,0.343167379479107
103,1.65645282252415,2.39155912399292,-1.05423791446644,-1.26434865570816,1.65645282252415,-0.0411802040066064,0.00575447213716806,0.0415803216871053,-0.0606260172657869,-0.0854670412702624,0.10724391943399,0.00691752645527789,0.11955979374731,0.12140232870903,15.4531275804997,0.872867532067759,0.958991506736825,0.176340024370483,0.240203321297022,0.151685277581973,0.400254495098477,0.158364045563354,0.0332464179287371,NaN,NaN,NaN,NaN,1.75398132014352,-128.600052606655,1.56408789475441,stable,stable,1,0.466001218414912,0.173021976806443,0.186286812853786,0.897436809652723,0.332584321074679
104,2.67672373376242,3,-0.359824347549202,-2.61889073444801,2.67672373376242,-0.0287299502638738,-0.0121815725972632,0.03120578076426,-0.0132223196236345,-0.350628468155527,0.351265919117975,0.0226790580011889,0.19982458842359,0.20199636765815,15.4114278540609,1.93057344999425,1.42646299725454,0.06346113176402,0.240258585558979,0.132908826588622,0.415400812930836,0.0019062502867264,0.00862866163735535,NaN,NaN,NaN,NaN,3,-96.2939600424606,1.56903709563521,unstable,unstable,0,0.754192269201607,0.0784582197102376,0.0510598493166552,0.941892719175321,0.340929410405057
105,1.73800382662464,2.54815340042114,-1.11123715406441,-1.32208897252798,1.73800382662464,-0.0445693093124055,0.00356359972140149,0.0447115485703553,-0.0666554289841763,-0.0930989599880075,0.11719790153413,0.0075604936340302,0.115203513438599,0.117131508437078,15.4307267170567,0.954128038845792,1.04946012113819,0.17694851433293,0.240228562226535,0.156455235087078,0.458684852346064,0.157515207520571,0.0350355375740402,NaN,NaN,NaN,NaN,1.78074250763471,-129.221424924807,1.61331915904413,stable,stable,1,0.486893988787319,0.190480771342112,0.197035417184768,0.895783264433661,0.330464339961299
106,1.86134317048816,2.69288849830627,-1.08744955996093,-1.48784055644082,1.86134317048816,0.00957937694671794,0.00609246132228647,0.0113526449627771,-0.0656669178147878,-0.117106984525812,0.138412901533327,0.00893565925813884,0.148741677822495,0.149814975135892,15.4156643735851,1.89499229553194,1.59143518921903,0.0280291086655395,0.047018928128287,0.121880333459113,0.425519059131799,0.02172901395032,0.00431756677354225,NaN,NaN,NaN,NaN,1.88415857146299,-124.959215831678,1.79660222287772,stable,stable,1,0.526321173824021,0.189179017002252,0.124734774016115,0.958592086858473,0.345830962907061
107,1.66630147357245,2.35594248771667,-1.00725551152974,-1.31401916365827,1.66630147357245,-0.0441968486412088,0.0160431072821234,0.0470185359308394,-0.0553079254287565,-0.0923586777043419,0.109951564480502,0.00709420769557673,0.120452154568491,0.122216312480624,15.3768515697388,0.94941365913848,1.16090884772304,0.178231375444263,0.243695004856043,0.136389782623935,0.483185832644896,0.157406122532597,0.0339816087376692,NaN,NaN,NaN,NaN,1.72726488943798,-126.550224489005,2.36572927490383,stable,stable,1,0.468790322115444,0.163789293103105,0.180588801174897,0.894303206866814,0.339382318833807
108,1.66128553329287,2.33568048477173,-1.00798064141359,-1.30434860198995,1.66128553329287,-0.0461200237253306,0.00579639082324297,0.0464828434478876,-0.0551705404510526,-0.0906427523366404,0.108908855952061,0.00702514457845328,0.115472398706432,0.117182143386118,15.4363756855715,0.896153285935141,0.941790373298235,0.176905636114855,0.240214670928168,0.180646113910679,0.434495310533018,0.157140483508806,0.0359468253725519,NaN,NaN,NaN,NaN,1.72684939224008,-126.925173742408,2.07894586724907,stable,stable,1,0.46644590422199,0.160260718714855,0.179068218984462,0.897106196048596,0.31971283826192
109,2.62144107164747,3,-0.302148609920913,-2.5699063444776,2.62144107164747,0.00452622986916289,0.00390102702331554,0.00597534674015997,-0.0124310518916011,-0.344176978785833,0.344792710180174,0.0222622561183423,0.199005428275324,0.201780676742408,15.4062346876126,1.95129214321849,1.92349738816705,0.0208196629050093,0.054898049208231,0.136612056397223,0.429569057818654,0.000140573284218482,0.00532450553694107,NaN,NaN,NaN,NaN,3,-95.4171668207032,2.18843284989352,stable,stable,1,0.739407087787806,0.0862712391150162,0.0537614043158329,0.959145393658038,0.339283530490123
110,1.62174101616885,2.31535339355469,-0.948865535078826,-1.30356651180238,1.62174101616885,-0.03839491790685,0.00665146251945132,0.0389668022131842,-0.0487727510079553,-0.0906198546437414,0.104804403287059,0.00675942297167768,0.118966302409874,0.120600406042679,15.4501633602884,0.814616565518376,0.890551025495572,0.176569856451728,0.240233956594382,0.175290841880336,0.403844707239882,0.160051022761605,0.0370573561101676,NaN,NaN,NaN,NaN,1.65985778043302,-125.136897277648,1.61539306314093,stable,stable,1,0.456584352186896,0.163206698650897,0.182533209306464,0.898317326416169,0.322092959164295
111,1.54871033695904,2.13524961471558,-0.930277057413351,-1.22372139351693,1.54871033695904,-0.0405023132586715,0.0095110675001059,0.0416040597093015,-0.047303645637245,-0.0797873667924744,0.0950963205053729,0.00613403328800269,0.114046589791808,0.115591355397513,15.4341607069823,0.757339185481946,1.0319619416271,0.176242895815558,0.240167188745617,0.149952110687567,0.465579413428947,0.158390040743542,0.034912316284766,NaN,NaN,NaN,NaN,1.59306398738573,-126.486183134521,1.99262380330862,stable,stable,1,0.43610769426858,0.139598748441926,0.166850210468867,0.897819757522079,0.333354617472192
112,2.63605426864879,3,-0.243687244888255,-2.59113850363129,2.63605426864879,0.00705828548761539,0.00435639970097567,0.00829443261346687,-0.00952214496233868,-0.348095032297587,0.348545953675877,0.0225028237425302,0.193270874113494,0.196061678564642,15.4039068256362,1.84708414233937,1.83051874197503,0.0252905857916227,0.0584517283306309,0.124073523096391,0.458681240463404,0.00837560587785306,0.00806662141084167,NaN,NaN,NaN,NaN,3,-94.1056534981467,2.00352549550673,stable,stable,1,0.742160140685939,0.0834084355331575,0.0567008696978322,0.95845925587029,0.34485621195716
113,1.7508180342816,2.43210458755493,-1.02256217343729,-1.40623989645876,1.7508180342816,-0.0533157116321778,-0.0018141978922332,0.0533465689696884,-0.0573627893823659,-0.104644039765895,0.121920118203003,0.00786459436240956,0.118753294781862,0.120711942460457,15.4194663116483,0.972864812411051,0.928599868406081,0.176947381515266,0.240237507149971,0.136700134862621,0.356516724417551,0.15834214354443,0.036251721829952,NaN,NaN,NaN,NaN,1.77528590773906,-124.910768203071,2.0761155512212,stable,stable,1,0.491027197633852,0.163069678797609,0.181398537600113,0.896586229607375,0.339244384505502
114,2.68763048440507,3,-0.448443937420455,-2.61126091841311,2.68763048440507,-0.0285864188951778,-0.0104769870692111,0.0304458634842074,-0.0185723278861195,-0.348568489525913,0.349770190672904,0.0225765299891617,0.206734243389587,0.20886341175331,15.3851597954257,1.71683113602289,1.32292378957771,0.0630857889003381,0.240244281065257,0.128145489358087,0.416284912684902,0.00185784868441574,0.0102043865171914,NaN,NaN,NaN,NaN,2.9979851142919,-97.9705526263991,1.73828767557053,unstable,unstable,0,0.758474144858682,0.0758648826476299,0.0500553261212363,0.944573316848683,0.343046449174184
115,1.85570378883465,2.71362209320068,-1.04990553142196,-1.51550702005703,1.85570378883465,-0.0495612999506697,0.00877643527005573,0.0503323779375635,-0.0599501395044945,-0.12123014880106,0.137741980684905,0.00888467387011088,0.121913012260617,0.124046379612804,15.4503992564148,0.944125163330009,0.978708426202708,0.177242680203214,0.240250130562163,0.178171009690912,0.458716900312877,0.159867117555786,0.0365529844581531,NaN,NaN,NaN,NaN,1.89315516909655,-124.179562229341,1.81128912572064,stable,stable,1,0.519663619611801,0.202259221104244,0.205699579257982,0.896270681694922,0.320812884581817
116,1.63519231033166,2.57553672790527,-1.00716122873071,-1.25998937593929,1.63519231033166,0.0051094180018402,0.00394157465545737,0.00645307392504321,-0.0587556198435392,-0.0872312190477006,0.110180978755633,0.00711582224543425,0.175394857152193,0.176241796559667,15.3837385640501,1.94536361005955,2.02097840405761,0.0291873225265838,0.0706298457349167,0.13112049103271,0.502860023667752,0.0196132721681959,0.00515284113875058,NaN,NaN,NaN,NaN,1.69700248239393,-126.66944677606,1.58264997543974,stable,stable,1,0.471299642067042,0.212760557506988,0.138247104770816,0.954242222911502,0.341724226207685
117,1.65009444710371,2.27486300468445,-0.967535644910651,-1.32360484278144,1.65009444710371,-0.0440956135496988,0.0127367788279509,0.0458982425506306,-0.0508117241891335,-0.0928165479260268,0.107955958647293,0.00696314106450319,0.11548331201273,0.117268109645008,15.456460118719,0.826938912189718,0.911044488230586,0.177047624322054,0.240200826702154,0.126507763245048,0.409269688242754,0.156918754402081,0.0321945141376537,NaN,NaN,NaN,NaN,1.6721231422542,-125.43586516234,1.81559651173743,stable,stable,1,0.463478807823323,0.148987603256616,0.170841326627172,0.897820603978527,0.343774327446645
118,1.60961527021686,2.46987056732178,-1.00311278482156,-1.24394934564765,1.60961527021686,-0.0474068322066699,-0.0132345972480599,0.0492195317347667,-0.0600435286546451,-0.0897325373162706,0.110654729236799,0.0071367273703937,0.134177959408528,0.135005551683216,15.4691111371237,0.62199188266838,0.993770755632588,0.16502223779623,0.247293078338691,0.260271951425796,0.47011452768114,0.127851175184793,0.00560809904831236,NaN,NaN,NaN,NaN,1.78141492798702,-127.597402747289,1.53152789715394,stable,stable,1,0.456231849061139,0.202581022666647,0.180410666871404,0.904793603229521,0.284323577144091
119,2.55676870362017,3,-0.371746744143768,-2.49645380429668,2.55676870362017,0.00697320663776465,0.00658766195028867,0.00959285675824705,-0.0157589134008093,-0.326270489467786,0.327151027647123,0.0211339872897136,0.208758772197182,0.211305661590322,15.3501595558238,2.23547686575224,2.00567034182251,0.0298204147481698,0.0731870764758421,0.14448888663661,0.476659581446595,0.0208789125930743,0.00576939482908014,NaN,NaN,NaN,NaN,2.88139783872518,-96.8469577847742,1.66834947462344,stable,stable,1,0.72406611995011,0.10148573209114,0.0722689177187463,0.951766493137828,0.335782717050396
120,1.70085166425121,2.6875593662262,-1.01131795086223,-1.33869173659858,1.70085166425121,-0.0591771950127103,0.0172997515830235,0.0616540494566794,-0.059248241017558,-0.0991535736586691,0.120743367489585,0.00779001673929746,0.177150757837876,0.179092767242379,15.400171322074,1.0428143374071,1.05206822413239,0.176669119786599,0.240846942418173,0.168114128512966,0.367514665853033,0.159447741652049,0.0342753518341462,NaN,NaN,NaN,NaN,1.76744363452008,-125.864521808831,1.58441379651423,stable,stable,1,0.489378997248799,0.233312475344763,0.22331691246665,0.895205648551748,0.325282609549793
121,1.7059600176038,2.38410687446594,-0.990237754940133,-1.37668011644329,1.7059600176038,-0.0436259905929388,0.00728874382039808,0.0442306776083588,-0.0532030895873888,-0.100254119699225,0.115587266149689,0.00745565141737958,0.117556135167863,0.119408507363007,15.4349376464478,0.921400159701594,0.917851932516537,0.176921523119941,0.240189124325512,0.15811324861578,0.444528347719212,0.159490154249571,0.0340438951670518,NaN,NaN,NaN,NaN,1.76448514358837,-124.664357217421,2.12988921393169,stable,stable,1,0.478804372833614,0.160692000355515,0.179679311455683,0.897087972001173,0.329727445059653
122,2.63124278835628,3,-0.380768189499936,-2.57387835596697,2.63124278835628,0.00760829146970548,0.00523054554773695,0.00923280595566396,-0.0152726265479103,-0.344289532472912,0.345077223767942,0.0222864313077885,0.192873056464389,0.195625649927136,15.3940748620418,2.14152212239665,2.00194918820031,0.0286349143051328,0.0576038309044677,0.125576091742498,0.519010873766729,0.0198001073975829,0.00655936934524243,NaN,NaN,NaN,NaN,3,-97.1526305433791,1.78315519843878,stable,stable,1,0.740789873547103,0.084663053711708,0.0619831051757357,0.9531266968356,0.344188403670001
123,1.64117109615531,2.26306176185608,-0.949850282850527,-1.32574783601798,1.64117109615531,-0.0427246716821193,0.00342688340687824,0.0428618840023303,-0.0488746280720658,-0.0926398032092313,0.106716910085515,0.00688279598133099,0.101439483719986,0.103147967595269,15.453397431738,0.805723447295275,0.846841485362967,0.175196869898303,0.240165698793507,0.128761111360315,0.380002995658225,0.155729586530689,0.0431938871594271,NaN,NaN,NaN,NaN,1.66518818535526,-124.488998271363,1.74971424843791,stable,stable,1,0.458275219160469,0.147783411849768,0.173590064737029,0.899417126294248,0.342772839395416
124,2.58632883547625,3,-0.507589673047787,-2.50372051844255,2.58632883547625,-0.0121383874617702,0.0202296589892702,0.0235919383051546,-0.0236551173502648,-0.340155457203225,0.341858662907969,0.0220678677629322,0.196673277741462,0.198709405716912,15.4022836312479,1.74838162521547,1.44167100040256,0.0629059145748116,0.240463505008578,0.129564762502879,0.463116748554875,0.00195674252811167,0.00886292953812631,NaN,NaN,NaN,NaN,3,-100.530616564359,2.34379820885812,unstable,unstable,0,0.729429570603716,0.0974012007071219,0.0625332672385101,0.94348234351131,0.342415661109832
125,1.56732009241245,2.18592572212219,-0.807562403225396,-1.32982441457168,1.56732009241245,-0.0436498728017424,0.0123254073605729,0.0453566650252457,-0.036051382402239,-0.0939958306728155,0.102345602776256,0.00659974365124091,0.113143237854605,0.114811127655145,15.4878949783067,0.586961625786252,0.693684177068995,0.175186902027365,0.240170084542895,0.133021809979023,0.373737461860914,0.157543516327959,0.0401921185352234,NaN,NaN,NaN,NaN,1.59718321662841,-120.692341177793,2.47136005988909,stable,stable,1,0.440914250174349,0.147501655272654,0.173135649584787,0.902344331963884,0.340879195564879
126,1.53962841380799,2.55282473564148,-0.859929006293152,-1.2514308497293,1.53962841380799,0.00591051809518551,0.0022423205971574,0.00632156830335255,-0.0433982737623744,-0.0856118891149461,0.0997606027655977,0.00644040583139645,0.161911433605698,0.162686027688772,15.409524445091,1.90136084759071,1.68033761615874,0.0283821033179357,0.0626031014129892,0.127529694292229,0.494639074896349,0.0215619510604401,0.0046295853530399,NaN,NaN,NaN,NaN,1.57811714801433,-123.111297136965,1.74418010886528,stable,stable,1,0.443104782553218,0.229128126601484,0.148743450904009,0.957667031840144,0.343320135870121
127,1.48696645530494,2.07157421112061,-0.748514478681389,-1.27185278691067,1.48696645530494,-0.0441336780211372,-0.00550896487336206,0.0444761759782622,-0.0313913381013791,-0.0858800473014039,0.0928660631818256,0.00599159486004434,0.1163802339657,0.117916823092735,15.3596199481155,0.952658850128978,1.04881761299619,0.177464204110999,0.240139972319518,0.14545622791062,0.460789691998867,0.158960797493165,0.0342365545136787,NaN,NaN,NaN,NaN,1.53181850141805,-119.504479623187,2.14024348858899,stable,stable,1,0.420107752699866,0.139690710654538,0.166913325909811,0.895542011448517,0.33535278759528
128,1.63852338855331,2.72312641143799,-0.886434162564554,-1.35024254450082,1.63852338855331,-0.0621512124108049,0.00578742650215141,0.0624200889910515,-0.0465163181004031,-0.100432310847458,0.114698016765856,0.00739797370985856,0.168325571483856,0.170149787927555,15.4216212311661,0.879880889183522,0.860860080933006,0.176294034136231,0.240197731730939,0.123736108101344,0.436118139724757,0.159494316735935,0.0358279279221533,NaN,NaN,NaN,NaN,1.67347133841587,-121.814224359451,2.04624712024441,stable,stable,1,0.470969527866394,0.255479363130745,0.237202318298434,0.898175732452397,0.345006174177181
129,2.6305209792976,3,-0.522681900379951,-2.54411057014684,2.6305209792976,0.00828905161708795,0.00462226686306969,0.00949071797411452,-0.0236182957029764,-0.336191859088992,0.337897643318655,0.0218268994178064,0.19568879297289,0.198395823619385,15.368524937867,2.1761689134105,2.0645134604181,0.0284468275172651,0.0563293902276533,0.141952049971738,0.408983908134014,0.0193924000759756,0.00598406169783888,NaN,NaN,NaN,NaN,2.98812679975473,-100.15154225882,1.5,stable,stable,1,0.741151425869903,0.0848727446199611,0.0617185136857658,0.952456939018428,0.336910200012561
130,1.63364278827165,2.36319541931152,-0.919210194733307,-1.32459313084826,1.63364278827165,-0.0594445232230528,0.00716857282694413,0.0598752016914454,-0.0489003843142418,-0.0960795564594656,0.111870628468241,0.00721526863600291,0.159973002618199,0.161604935851056,15.4387064306878,0.879249364388317,0.867667189976142,0.176411294210869,0.240209359922156,0.134445245607433,0.42638865343042,0.157328812282839,0.0365514498677291,NaN,NaN,NaN,NaN,1.67291748571223,-123.514973806059,1.64627987715266,stable,stable,1,0.46795906404265,0.175126462294071,0.188291230262131,0.898068579967416,0.340246557507808
131,1.49977278588591,2.11480188369751,-0.749567627463153,-1.28823514157045,1.49977278588591,-0.038002602069487,0.00304467739895547,0.0381243731032457,-0.0309642397292355,-0.0880936819014677,0.0945312891694982,0.00609716019063562,0.0968718690780133,0.0983728383792267,15.456398275405,0.861820910816273,0.854667723169207,0.17686222164076,0.240175584068511,0.1479256587935,0.450398686709292,0.158728019961597,0.036011936469936,NaN,NaN,NaN,NaN,1.54515709711904,-119.107877075441,2.29071430571706,stable,stable,1,0.419613977245422,0.145371015409871,0.170863645520952,0.898082192769734,0.334255262758445
132,2.61123610182897,3,-0.458208085048462,-2.53928211541185,2.61123610182897,0.00883048297619359,0.00388907208357794,0.00964895389480694,-0.0195330361079767,-0.335461678681294,0.336666786492951,0.0217419018883222,0.192646794547126,0.195408904268934,15.3795041059113,1.86888398271484,2.07151672990327,0.0280340355328586,0.0590618786033499,0.141577863712439,0.398333851349749,0.0204834794369555,0.00568828149119898,NaN,NaN,NaN,NaN,3,-98.8062245222683,1.57701236059377,stable,stable,1,0.735411408008178,0.0892408519691973,0.0647167458169649,0.955022690920143,0.337076505016694
133,1.65106070766578,2.34658074378967,-0.864749030791087,-1.38751207340161,1.65106070766578,-0.0537440990151494,0.00390940952273778,0.0538860989659361,-0.0424011224415065,-0.102752674378207,0.113744583320197,0.00733742650857019,0.1400935084198,0.141934285837851,15.4087646802142,1.00249081265744,0.954275819204635,0.176851890295505,0.240193863336392,0.137738912193835,0.43171866894755,0.158189225507038,0.0336949801578939,NaN,NaN,NaN,NaN,1.68330103474598,-120.509023497779,2.31218682807634,stable,stable,1,0.468669712545111,0.166371126271631,0.182381718267967,0.896199459887617,0.338782705691629
134,2.61159495901672,3,-0.589831080914913,-2.51338031235405,2.61159495901672,-0.0102221844229867,0.0114483550635857,0.0153478952315776,-0.0281793093966941,-0.335507112034965,0.337841559013546,0.0218124969526913,0.192159220226003,0.194235613349087,15.3673995300472,1.87780270262132,1.57255540767325,0.0633448985624611,0.240450573292716,0.134472589961642,0.524417567559406,0.0018942374311828,0.00814728171266577,NaN,NaN,NaN,NaN,3,-102.269542710179,2.33266281062537,unstable,unstable,0,0.735272445074277,0.0902049150136929,0.0579274802064785,0.941217594137883,0.340234404461492
135,1.66386530286557,2.30640935897827,-0.852679470259365,-1.41630978949841,1.66386530286557,-0.0454797040630359,-0.01430553085785,0.0476765319081225,-0.040055027779256,-0.106045783153496,0.114942816156428,0.00741528744860669,0.114072405329988,0.115874938723362,15.4021265754165,1.0737389684498,1.01037139481117,0.176522882863032,0.240189584153276,0.175105073709344,0.451201489482208,0.157828695160912,0.0406458461118337,NaN,NaN,NaN,NaN,1.71044333906111,-120.370167332204,2.04172405093996,stable,stable,1,0.466872401842158,0.153313110141847,0.176914260500322,0.895363405714291,0.322175522795847
136,1.64027643004389,2.47751331329346,-0.760252508922082,-1.44172672387482,1.64027643004389,0.00320654576821294,0.00358805874603742,0.00481207869102947,-0.0322005024832791,-0.109930076867252,0.115768491202863,0.00747710707004819,0.124467642820949,0.125358758891141,15.3895404941159,2.23007554062032,1.99309664195331,0.0218552852369722,0.0534214381834928,0.136231084502092,0.439356142393771,0.00154406452207454,0.00955622968827262,NaN,NaN,NaN,NaN,1.66149639163359,-116.91481150861,2.15991912520746,stable,stable,1,0.462478799789931,0.189260513157842,0.117717551407322,0.955890290232721,0.339452851332403
137,1.46498687283413,2.03620648384094,-0.699176085650574,-1.2759082691666,1.46498687283413,-0.0429760036844916,-0.00630768322955179,0.0434364335600173,-0.0273026037831419,-0.0867238684240775,0.0920398573172676,0.00593760744780587,0.113372929273878,0.11485746376343,15.4209931518042,0.898575805456989,1.01214451162539,0.176715506961175,0.240155637829981,0.160498540982417,0.470691619327348,0.159910654871817,0.0343748328220094,NaN,NaN,NaN,NaN,1.50463962214456,-118.009747287404,1.93629816696878,stable,stable,1,0.413634658841787,0.136487758629203,0.165463996550777,0.896629444028051,0.328667315118926
138,1.59454100003979,2.24542832374573,-0.723745968958594,-1.40403818711569,1.59454100003979,-0.0540290355029062,0.00779553017409754,0.0545885241426214,-0.0303077743772673,-0.104939589356251,0.110827809443679,0.00714818401019111,0.126865970961134,0.128638383017411,15.4077413411103,0.840733854164748,0.881590138890345,0.175774924941082,0.240181495515226,0.142805950842145,0.475983408425375,0.156302262574232,0.0407174540988181,NaN,NaN,NaN,NaN,1.62198882751374,-116.427624599585,1.82705816959903,stable,stable,1,0.450938609947425,0.156457543926651,0.178148545556229,0.89857999186974,0.336530688514602
139,2.60960269771691,3,-0.522245495133104,-2.52327234302666,2.60960269771691,0.00508518653572952,0.00577807926037933,0.00769709828717228,-0.0234719311482392,-0.33244634856967,0.334124715050957,0.021575700474091,0.201589770004921,0.204205897830748,15.408081047753,2.04246068656437,2.03808020155143,0.0273746242748569,0.0601067937735095,0.128827627212043,0.415511284393291,0.0156378014859952,0.00618858270389622,NaN,NaN,NaN,NaN,3,-100.33835635475,1.86269867465221,stable,stable,1,0.736735232290658,0.0892505276996774,0.0627508443240898,0.954251295170233,0.342743276794648
140,1.58168310637506,2.51542234420776,-0.766479121305913,-1.35801141533189,1.58168310637506,-0.0868601568727062,-0.0105154535122865,0.087494351900681,-0.0361694044686783,-0.101396128814402,0.110475691195455,0.00712616738165726,0.169837534826891,0.171529844660737,15.4101545346257,0.983003534231989,0.821272872678601,0.178998249421132,0.240180898101171,0.150508577196223,0.346368259732398,0.145155320469144,0.0202801610406835,NaN,NaN,NaN,NaN,1.62484937329115,-117.662804067615,2.1424498663432,stable,stable,1,0.456088130632162,0.226131959694151,0.207567255595348,0.896324417806565,0.333107299023901
141,1.37593185473711,2.43656134605408,-0.687543614109832,-1.16644487766709,1.37593185473711,-0.0324649967976051,0.00640075985191227,0.0330899643963296,-0.0330080640666432,-0.0844618854130685,0.093801196711271,0.0060493335486702,0.156299386423509,0.156949638121077,15.4743773466871,0.494109929776095,0.847547392246713,0.16310390193063,0.246159516788339,0.262306912648901,0.470841778210302,0.267115942460774,0.00551937464897626,NaN,NaN,NaN,NaN,1.58700801541868,-119.377240163094,2.1174498448209,unstable,unstable,0,0.398305088887445,0.244708129018978,0.26755011938752,0.90790645579022,0.283419149933822
142,2.62227942512984,3,-0.60392356658308,-2.51782838354574,2.62227942512984,0.00449396024789711,0.00414943683405438,0.00611665797224977,-0.0282700964417594,-0.330261208969756,0.332629711225306,0.0214839480039655,0.197765744309982,0.200528153491569,15.3895259897992,2.08713741194814,2.0785806124541,0.0282314712539921,0.0542217189153451,0.136447533262237,0.387007918898664,0.0184610836768634,0.00695077596226825,NaN,NaN,NaN,NaN,3,-102.460692774955,1.70330284077865,stable,stable,1,0.739380144066272,0.0861085166406979,0.0623975909583949,0.953153622752701,0.33935665188345
143,1.4764313202452,1.99617278575897,-0.647510605809939,-1.31444733017563,1.4764313202452,-0.0505434990521993,-0.00497627044760859,0.0507878781207427,-0.0240546651686656,-0.0915194139997468,0.0956844981711696,0.00617303692669599,0.101748487670789,0.103198124753202,15.3393063130448,1.02942290556922,1.02151619200813,0.177003843246853,0.240153941564499,0.174246405871003,0.451713758443466,0.156416170871703,0.0351106474807716,NaN,NaN,NaN,NaN,1.50542716708844,-115.316950545559,2.29669886768932,stable,stable,1,0.414354643682694,0.126252940729401,0.158037570777668,0.895383556895609,0.322557152946221
144,2.67067357926415,3,-0.57891085583954,-2.57331123706483,2.67067357926415,-0.0259146810679181,-0.00805190422187697,0.0271367620848581,-0.0257372258393654,-0.341452607716936,0.343424786017241,0.0221722885696545,0.20396352869621,0.20601647908042,15.3701887160543,1.93273401872259,1.54332223080433,0.0628885302312728,0.240319831234227,0.143970417537934,0.482074966602734,0.00184636515850211,0.0100907198622109,NaN,NaN,NaN,NaN,3,-100.955060334027,2.00685222811383,unstable,unstable,0,0.75338291695319,0.0790735177144578,0.0519340700429543,0.941243864352366,0.336013147760918
145,1.64782433261807,2.21653151512146,-0.74799873350915,-1.45717152997202,1.64782433261807,-0.0395356885356935,0.00257771609027594,0.0396196326110356,-0.0311562605246499,-0.112486246679583,0.117801477148702,0.00759699910223473,0.116145278411183,0.117919679739764,15.4669051677226,0.7926206389192,0.743134976738933,0.175324490170643,0.240196455492418,0.160398402548642,0.423248289037858,0.156462350091134,0.0391814869397199,NaN,NaN,NaN,NaN,1.68254359450145,-116.590495520199,1.75314835295595,stable,stable,1,0.463003757979439,0.135222715375285,0.164920264920523,0.900271103648793,0.328711821089492
146,1.74203243722086,2.78064680099487,-0.835500549236743,-1.50170339726205,1.74203243722086,0.00788323315810316,0.00453939432493196,0.0090967832700489,-0.0419940182676832,-0.122434782790082,0.132781487732696,0.00857582347545432,0.179484387724936,0.180420134554349,15.3620825787627,2.09412307030261,2.38402823509815,0.0211889465595807,0.0668357453530777,0.153184697006834,0.480532090366387,0.000487303165815072,0.00921847722730887,NaN,NaN,NaN,NaN,1.779143412243,-117.297381887505,2.19246185306753,stable,stable,1,0.500626010169767,0.235355975448661,0.144782337991207,0.954220052177775,0.331917912441407
147,1.44799246644014,1.97743403911591,-0.712701877819647,-1.24893203116548,1.44799246644014,-0.0415870684759104,0.00356040297912219,0.0417391990075732,-0.028095444236979,-0.0824492335540809,0.0882662944560929,0.00569358456904058,0.101735220929163,0.103139371761737,15.4271074893731,0.855565559723311,0.875405216955684,0.176009112118625,0.240155850295803,0.148030319210306,0.443888263462457,0.155026331585021,0.0404442539617036,NaN,NaN,NaN,NaN,1.48754464037965,-118.732441752547,1.84384860630171,stable,stable,1,0.406759198736384,0.12677654033677,0.159673517458246,0.898394959266781,0.334208747017642
148,1.67370732118619,2.46713352203369,-0.748623558439668,-1.47959141499789,1.67370732118619,-0.0624816127326861,-0.0124459057019529,0.0637091241379071,-0.0326618939928742,-0.116753644636931,0.122938633570517,0.00792890519106943,0.133407733218154,0.135334478942686,15.463820259929,0.83323708167587,0.764338876741379,0.176606414425969,0.240214004127556,0.136153187871248,0.430197661910212,0.156119267957461,0.0417237306467678,NaN,NaN,NaN,NaN,1.75445964810256,-115.915142708198,2.28465554308888,stable,stable,1,0.473388848104856,0.190200901282637,0.198679147773743,0.899144410256594,0.339487472057223
149,2.58136822029101,3,-0.601721848585121,-2.47696235503129,2.58136822029101,0.00666798775572269,0.00802391049000853,0.0104328903119958,-0.0281041329263743,-0.320239300296401,0.322608372634216,0.0208313447720295,0.205194689408031,0.207702192322572,15.4110283705974,1.96053409522586,1.95918604299682,0.0209774293161422,0.0522910787222247,0.130957741504689,0.417106352812366,0.000307590664672145,0.00719461308503571,NaN,NaN,NaN,NaN,2.89228411426449,-102.374592577792,2.1970716077871,stable,stable,1,0.729905297208784,0.0961048469917219,0.0604158380971227,0.958713484255894,0.341796559331249
150,1.51976351729975,2.20434093475342,-0.647506021544807,-1.3585478443615,1.51976351729975,-0.0535280876323547,0.00139983995001265,0.0535463884633006,-0.0245302042598042,-0.0982488832476624,0.102576302708198,0.00661599146063156,0.115798409147618,0.117358585436476,15.4127894888423,0.85698965511066,0.782903069442747,0.175670866495195,0.240166562054522,0.131844908028968,0.377322137312693,0.157016779257312,0.0393592179828857,NaN,NaN,NaN,NaN,1.57055207434036,-114.528428258895,2.00475011127347,stable,stable,1,0.42874198836723,0.163846756812013,0.182405732215547,0.899279695345197,0.341402263098236
151,1.46748005175913,2.3140754699707,-0.65318442853568,-1.29412716661774,1.46748005175913,-0.0568231150084537,-0.00807707818984246,0.0573942992931248,-0.0262680742628724,-0.0916487956210079,0.0971217769632999,0.0062640490886803,0.139495623256626,0.140984166447873,15.4251782688891,0.792867724346591,0.852344628113067,0.176945653246987,0.240175875874714,0.120681807756233,0.457655694450264,0.158547158442753,0.037219599302952,NaN,NaN,NaN,NaN,1.53043490962982,-115.371127707452,2.19109487745362,stable,stable,1,0.419524847092008,0.201006257301344,0.204603557879669,0.898600504892895,0.34636364099723
152,2.62608656795527,3,-0.65443207451216,-2.51109421981123,2.62608656795527,0.00731348979550176,0.00331374781165224,0.00802920030564305,-0.0311904305760107,-0.328123831761238,0.330915153334205,0.021374044539868,0.195914445439636,0.198476170427939,15.3782803191228,2.12444949138904,2.14040924855494,0.0217614552521303,0.0744167336146311,0.140723375211432,0.484698119754439,0.000530907565421345,0.0069571305188261,NaN,NaN,NaN,NaN,3,-103.235441300153,2.17915754768101,stable,stable,1,0.739984985540327,0.0856025422660983,0.0541273499208335,0.955609667988661,0.337456277683808
153,1.47500217283094,2.0449001789093,-0.698072745301687,-1.28869731187258,1.47500217283094,-0.0371191353199021,-0.00335106017483412,0.0372700927177887,-0.0269892163665736,-0.0876218484429885,0.0926833830695706,0.0059789864748903,0.0928895788914058,0.0943683643237218,15.4128420800284,0.912804887442657,0.984242983777839,0.176643071548542,0.240149359966432,0.153735652011586,0.456666724539323,0.158976214866929,0.0348484434959059,NaN,NaN,NaN,NaN,1.53053947457772,-117.277382087191,2.47704709775615,stable,stable,1,0.412207585619662,0.135059901699225,0.164364197787187,0.896773088094711,0.331673043550406
154,2.67429615250511,3,-0.644414435364862,-2.56304205391687,2.67429615250511,-0.022143143667743,-0.0101723541307074,0.0243679215373578,-0.0298536832484258,-0.336948089581194,0.339542312125614,0.0219195884324701,0.202241396621159,0.20419722556642,15.3893979020894,1.82991440267442,1.47234306332515,0.0626800745224063,0.240482245932941,0.135382293837519,0.432475086664641,0.00184122974449286,0.00758917402982052,NaN,NaN,NaN,NaN,3,-102.931426400997,1.81143829298015,unstable,unstable,0,0.753985085781314,0.0777508179681986,0.0502285147590123,0.942713654077372,0.339830091627769
155,1.65853786025498,2.48991799354553,-0.78648820474277,-1.43150584811286,1.65853786025498,-0.0713994836670484,-0.00034173287731732,0.0714003014649136,-0.0376441330536154,-0.111990491270224,0.121415319769791,0.00783282592395194,0.163124434258132,0.164905421420986,15.3518017417373,1.09014469636287,1.042120938749,0.177284092396673,0.240221235299071,0.163739561796245,0.489742857392144,0.159238528512292,0.0363718592121776,NaN,NaN,NaN,NaN,1.68981233095603,-117.495671617653,2.1430449533397,stable,stable,1,0.475257847018859,0.200150585258941,0.204089161116771,0.894604438097213,0.327226861423891
156,1.63584908793204,2.30614233016968,-0.72119078946491,-1.45628450187864,1.63584908793204,0.00309277185654231,0.00282975633051315,0.00419198743398634,-0.0290668549531487,-0.111032228569354,0.115873080042915,0.00748350554922432,0.11251925868008,0.113438105242522,15.3989808918336,2.13498296095138,2.12148389686576,0.0170757799780349,0.0465162414467712,0.140231477007888,0.411156146823752,0.00027147905795915,0.00793618813714229,NaN,NaN,NaN,NaN,1.64682358488304,-115.230680905002,2.36661321444206,stable,stable,1,0.458914044497048,0.151584510533033,0.0939572502742373,0.958018441842419,0.337674899107606
157,1.65955081482062,2.57537317276001,-0.744166699114526,-1.45780436107861,1.65955081482062,-0.0708758414306944,-0.000759732020707599,0.0708799131718728,-0.0343038446897165,-0.116475692408609,0.124025645784134,0.00799900882080814,0.164898282428425,0.166864410532984,15.4374483465536,0.833946293512343,0.843169929793078,0.176061394958015,0.240225862102106,0.137786425087323,0.40096130206947,0.156142249186683,0.0419946242452554,NaN,NaN,NaN,NaN,1.69535374865113,-115.407012304463,1.5,stable,stable,1,0.475919766058761,0.21905468128454,0.216100136417626,0.89879196076645,0.338761588850079
158,1.63137931195465,2.17168354988098,-0.76184931998071,-1.42860891572752,1.63137931195465,-0.0465439575519334,-0.00578588139886823,0.0469022004617901,-0.0325613045207364,-0.10776291462838,0.114042843592211,0.00735530357048454,0.116196491431987,0.118033685001919,15.4250531809486,0.807832677644773,0.809961720440933,0.176172923299084,0.240166973937495,0.130491149684878,0.49650287558287,0.157898779610927,0.0361096839330487,NaN,NaN,NaN,NaN,1.65925020896733,-117.23842078182,2.30621181663791,stable,stable,1,0.458641220188291,0.130167190284752,0.161408343710958,0.899202296651213,0.342003933473388
159,2.58266195605032,3,-0.736085989437573,-2.44133054410887,2.58266195605032,0.0101703201666209,0.00638756957830746,0.0120098483508034,-0.0374426492909754,-0.311197283454993,0.315254408457032,0.0203547129917917,0.20244961162535,0.204910857956849,15.4166398547043,1.89256039023274,1.92257290445218,0.0270954403015366,0.0549916522919669,0.134815356152045,0.464736895943004,0.0184682109512709,0.00677089280843239,NaN,NaN,NaN,NaN,2.88835322200788,-105.56852442763,1.84205564742003,stable,stable,1,0.729692026538123,0.0961028654196577,0.068331955847345,0.95647623253385,0.340082063932425
160,1.51947173033212,2.18434715270996,-0.674921385996761,-1.34317649286206,1.51947173033212,-0.0454728096157582,0.00815959922688688,0.0461990852062506,-0.0266791091207231,-0.0961161744995273,0.101359071132202,0.00653844111713378,0.120694854723125,0.122228883609512,15.4105213213513,0.976322091885934,0.952448756671294,0.176194131642982,0.240169198896338,0.149460519129324,0.435322943035422,0.158851515399727,0.0356008490590897,NaN,NaN,NaN,NaN,1.56544004446909,-115.546181583882,1.60772426018237,stable,stable,1,0.4296382381438,0.158066802322828,0.178386518198901,0.896748306082702,0.33357310260919
161,1.62625003465124,2.3240602016449,-0.743297569703505,-1.43433829361651,1.62625003465124,-0.0398675959479819,0.0171904732692791,0.0434158678122797,-0.0309394915699447,-0.110016966094827,0.115505390085739,0.00745134981292854,0.117332369569759,0.11903551713836,15.4101752204272,0.996742659037654,0.974914891402715,0.176818760432075,0.240192947354354,0.147456156238574,0.459208687107475,0.159558359212475,0.0363645216075403,NaN,NaN,NaN,NaN,1.70136515468512,-117.053321105748,1.53351870533027,stable,stable,1,0.457473779334669,0.164966863339157,0.183118406722892,0.896099024744788,0.334463930560634
162,2.56948982632678,3,-0.706379365489123,-2.43800166699787,2.56948982632678,0.00692683177178677,0.00201551981140689,0.00721410552354263,-0.0348194665949225,-0.311243842969704,0.314832440653143,0.020326967457483,0.204997889216993,0.207387074949335,15.3959548645578,1.81660682005601,1.87353046930612,0.0266671438131279,0.0471862008129971,0.127992422337581,0.426818244947773,0.0137680948193264,0.00635061193920034,NaN,NaN,NaN,NaN,2.85921158454158,-105.062668776886,1.89098245142011,stable,stable,1,0.726674702010343,0.0981873750891229,0.0673408917389442,0.957672492248448,0.343114478961075
163,1.67274659698786,2.53513503074646,-0.784267173744823,-1.45058783245128,1.67274659698786,-0.0832946027599537,0.030913548557781,0.0888461497948716,-0.0375022712468334,-0.115480299188315,0.12440691523498,0.00802365145841508,0.17170767207315,0.173249745704164,15.4512136404207,0.880870224305433,0.789836084107508,0.187493821091743,0.24025785338018,0.157235668884448,0.385873646013928,0.110456465385382,0.00472559970779511,NaN,NaN,NaN,NaN,1.71874998102098,-116.787170824054,1.80317033717638,stable,stable,1,0.480715708337595,0.210325858391412,0.177005677322094,0.893126111316598,0.330117480495801
164,2.36981814421407,3,-0.737490852556597,-2.21780567789615,2.36981814421407,-0.0259097843928566,-0.00496828112059164,0.0263818260281116,-0.0375808244791485,-0.272311568404815,0.277017281166316,0.0178710141035292,0.225295317992941,0.226236576304625,15.4516986360312,1.223782116649,0.912020666446899,0.062403018164833,0.240440964730347,0.129423630933977,0.413143961020713,0.00188215495512321,0.00956764844053192,NaN,NaN,NaN,NaN,2.64390369362176,-106.697557678757,1.57805984252626,unstable,unstable,0,0.677198820384676,0.146627585656989,0.0922922095950475,0.952017183336116,0.342478386251566
165,1.62689020289671,2.45547080039978,-0.702243757111953,-1.4510587148258,1.62689020289671,-0.0554947388653296,0.00470822258431755,0.0556941056273875,-0.028985002159332,-0.112347287899646,0.117486843151402,0.00757709929077957,0.129172710291178,0.131047433884164,15.4431193860278,0.833771379595581,0.711639684896061,0.175516920624603,0.240186364701982,0.123122892737528,0.417403028630643,0.155666585471854,0.0407434712769187,NaN,NaN,NaN,NaN,1.65443912380199,-114.70021335318,2.33525559257457,stable,stable,1,0.460046874215955,0.196641220469879,0.201985689117591,0.900099024180979,0.345278714338877
166,1.66060442290577,2.38900351524353,-0.731506469362611,-1.47880926450383,1.66060442290577,0.00473145079938376,0.00271497349869187,0.00545506258127149,-0.0299641692269787,-0.115203483917877,0.120139281513172,0.00775644037074055,0.118322708482286,0.119284182603077,15.4308474174431,1.85052692346766,1.86417269229715,0.0238292256294842,0.0502882296001334,0.125318899278186,0.429867857190067,0.00841280933407617,0.00848403756159031,NaN,NaN,NaN,NaN,1.6985678915868,-115.061450151433,2.05501399266698,stable,stable,1,0.466684682628821,0.164889890582562,0.105758065288089,0.95889846163282,0.344302711431917
167,1.4823071012561,2.32178926467896,-0.708727282308801,-1.27890997551318,1.4823071012561,-0.0699929635550619,-0.00781235622239812,0.070427607207443,-0.0303639933064917,-0.0902854181846134,0.0977336036564316,0.00630228186184191,0.148116365518046,0.149564034843863,15.4753201613498,0.674353895454219,0.618506332163503,0.176310112867485,0.240184100436376,0.11077328258487,0.389899913169728,0.155965430610179,0.0393808830298227,NaN,NaN,NaN,NaN,1.53242316823457,-117.234742424214,2.10712464067952,stable,stable,1,0.425194700637065,0.201795214758175,0.204715419116738,0.901686756063547,0.35076742996228
168,1.7230612901417,2.47241854667664,-0.84294993630108,-1.49074520958035,1.7230612901417,-0.0443972212331102,-0.00170961995963429,0.0444301255189326,-0.0391081268992859,-0.118481226908939,0.126238696880247,0.0081443617003068,0.125785699826061,0.127789844221319,15.4102137635303,1.08965424668213,1.01816211933315,0.175620225590971,0.243978485184764,0.155914747849061,0.496274911710111,0.157481489616456,0.0416590889888633,NaN,NaN,NaN,NaN,1.76822611766951,-118.998443980142,1.5682040609268,stable,stable,1,0.485040979548717,0.176750905732165,0.191191076234482,0.895628472900109,0.330704556511529
169,2.47408198672393,3,-0.774409588689608,-2.31830760998421,2.47408198672393,0.00706446005569033,0.00837246632684374,0.010954669701665,-0.0400510982012001,-0.283584150646852,0.288440531576332,0.0186229982639237,0.213580445759864,0.215795232222616,15.4209869489255,1.78981378383512,2.00414837227954,0.0189869458083688,0.0474834214594891,0.128598110395528,0.406081002176363,0.000152407425626787,0.012403558978903,NaN,NaN,NaN,NaN,2.66549340284327,-107.193726307889,2.26838595198128,stable,stable,1,0.702914242904239,0.120339909099087,0.0767820671763013,0.960696824440629,0.342845284268654
170,1.73820844977289,2.59500479698181,-0.77645322453294,-1.53647660265631,1.73820844977289,-0.0495415374303507,0.000821517462686427,0.0495483483267035,-0.0350349758302775,-0.125865548258896,0.132545357487263,0.00854831993398476,0.138904663814559,0.140949842380019,15.4629711573499,0.850815953108575,0.759575211397352,0.175840685899565,0.240211566709473,0.124518827637249,0.408978185882822,0.159147018683199,0.0345161851945658,NaN,NaN,NaN,NaN,1.77840570795084,-115.675983280215,2.28095403664496,stable,stable,1,0.491712221748773,0.201863041981904,0.204401173563537,0.899426583614814,0.344658298827889
171,1.63855241359891,2.24580359458923,-0.79538899871323,-1.41431944527691,1.63855241359891,-0.0517315138579493,0.0010706800564503,0.0517425925308974,-0.0363086220664788,-0.106793968176355,0.114911333703665,0.00741223041365146,0.137012098037385,0.138809430576905,15.4608359992536,0.922263837266392,0.908450032490497,0.17661104738681,0.240208803338441,0.166091521689275,0.412750051344374,0.15909954771061,0.0367474144842156,NaN,NaN,NaN,NaN,1.68221562017466,-118.331726157389,1.69271230756051,stable,stable,1,0.464709196408424,0.14611765768682,0.171744200881775,0.897310295901362,0.326181545915878
172,2.41924469526795,3,-0.847966691070095,-2.2299281499794,2.41924469526795,0.00822491953964872,0.00580190207503159,0.0100653548929956,-0.0471172552306688,-0.26412948199531,0.271226491154923,0.0175133511157875,0.227100047384674,0.229116704062309,15.403066213506,1.90965396930057,1.93198831012927,0.0241701008264388,0.0508282380200407,0.132953817832422,0.412095773630029,0.00969918518573278,0.0099161782288238,NaN,NaN,NaN,NaN,2.5789773418386,-109.450212225276,2.03666625138728,stable,stable,1,0.690955259550581,0.132515258628427,0.0874257871407928,0.95773061739126,0.340909414296701
173,1.55468575575867,2.39127802848816,-0.733357541630506,-1.34770979040554,1.55468575575867,-0.0661058884322644,-0.000900972383481382,0.0661120279272598,-0.0326713634440855,-0.100051511576317,0.107798321191064,0.00695304251685157,0.164156915819838,0.16585963286703,15.448554292664,0.917554305278983,0.836052482919867,0.175695691759512,0.240199232579537,0.146428678572188,0.427117038529685,0.157704591049993,0.0358538916398956,NaN,NaN,NaN,NaN,1.60572032516396,-117.151648626796,1.86279939239747,stable,stable,1,0.447754794775719,0.200353799817466,0.203340988024175,0.89837381507011,0.33492058730125
174,2.32625400875729,3,-0.772521894385959,-2.16195049589354,2.32625400875729,-0.0274320813928787,-0.00561827471821958,0.0280015017517794,-0.0378245412551381,-0.250140578991016,0.25515568754054,0.0164758753768799,0.230988397377208,0.232432272795146,15.3551979134419,1.87245987964791,1.61107392585337,0.0633377676158727,0.240317308267712,0.144474244793039,0.429133118948985,0.00192948972218402,0.00900098749310767,NaN,NaN,NaN,NaN,2.36078838964489,-107.709824257803,1.53176640379345,unstable,unstable,0,0.666820856894306,0.156726456684103,0.0981665113592291,0.940960493434554,0.335789224536427
175,1.61600933767654,2.40116453170776,-0.790642069164258,-1.39668852254444,1.61600933767654,-0.0452249019864638,0.00164920522458054,0.0452549625738222,-0.0353151853469071,-0.10483740990001,0.112054287957639,0.00722809872750327,0.117743270257698,0.119562750234409,15.4533460192043,1.01583805710853,0.832713874017275,0.176175626436095,0.240179162384685,0.165774760988125,0.404733959281386,0.159257106106687,0.0371778906018761,NaN,NaN,NaN,NaN,1.70036876942666,-118.357386427334,1.89761685990191,stable,stable,1,0.454848373427292,0.18495666179556,0.195274166070889,0.897387850180249,0.326322328449722
176,1.76501119615242,2.57314252853394,-0.895355420996043,-1.50250523603043,1.76501119615242,0.00576375285898039,0.00297269141703818,0.00648519400483418,-0.0453820738689151,-0.119157754566246,0.129968291443756,0.00839240676349762,0.141606022692681,0.142639620259136,15.4130343561958,1.97058723941945,2.05642943947365,0.0277790295229277,0.0676255385107983,0.134139211924487,0.496005525139471,0.0193329110801502,0.00603042339148102,NaN,NaN,NaN,NaN,1.79740384781532,-119.424856454763,1.69016159677656,stable,stable,1,0.49919757635914,0.18301850202006,0.120596387369813,0.954469639904376,0.340382572478006
177,1.95383079390268,2.72160053253174,-0.994217194347908,-1.66776454836828,1.95383079390268,-0.0502575297974938,0.0076686634619371,0.050839233871474,-0.0546027074943875,-0.14682785257714,0.158825262534655,0.0102449621068371,0.121839089026422,0.124399533893655,15.4334828062215,0.903263276475651,1.03097760094537,0.176527179745376,0.240254440411327,0.156820223312611,0.441448624958584,0.159558344911871,0.0365055188991633,NaN,NaN,NaN,NaN,2.00389774569212,-119.82849383685,2.31569714840105,stable,stable,1,0.545901451819446,0.182068717401308,0.193430784546767,0.89653880323329,0.330302122972173
178,1.85065221424038,2.81692624092102,-0.997773068074482,-1.52574829933508,1.85065221424038,-0.0783650603445117,0.00797243514467798,0.0787695525246593,-0.0591990766233349,-0.128076287202981,0.146444859700076,0.0094470396613846,0.195049998411692,0.197302296215957,15.3908749154905,1.05343988390372,1.05923268843366,0.176019632491554,0.240245006393825,0.180830566975223,0.476784412438936,0.158555485086303,0.0343610366534592,NaN,NaN,NaN,NaN,1.88108853169074,-121.75609313085,1.5,stable,stable,1,0.53296771637396,0.231852740632664,0.22207567128184,0.895390613543001,0.319630859122123
179,2.50334300730852,3,-0.660283395293487,-2.37748787108205,2.50334300730852,0.00528988054114181,0.00226740364906628,0.00575534147095981,-0.0330348886730152,-0.298224785935783,0.301650058412294,0.0194756914553105,0.220586749253143,0.222866549008382,15.4032512777882,1.7054224019985,1.81997723802604,0.0276119357708783,0.0490676627966333,0.126120603452049,0.429317264513,0.0165979032352209,0.00559853934998742,NaN,NaN,NaN,NaN,2.73243854491602,-104.018907315581,1.5,stable,stable,1,0.71213144508395,0.112802969291925,0.0770944599483797,0.958494463514368,0.343946398465756
180,1.79654519589955,2.78600287437439,-0.908798903254944,-1.51951982275875,1.79654519589955,-0.0791216716899158,0.00167020851115158,0.0791392982498426,-0.0494219836806062,-0.126641816939197,0.140197521755072,0.00904241988079643,0.184055189300498,0.186177682490233,15.4619257203215,0.848157636123036,0.886817417473813,0.175669759465428,0.240256524995664,0.167489294263998,0.396843944589573,0.157053669706809,0.0426960991452397,NaN,NaN,NaN,NaN,1.85620598441334,-119.444845846151,1.5,stable,stable,1,0.516314255404594,0.237136849002643,0.227609594617022,0.898533173417596,0.325560313660445
181,1.80072265103359,2.93784070014954,-0.887443695956805,-1.5378847130456,1.80072265103359,-0.080381553838745,0.00193313815236804,0.0804047960052583,-0.047408283431566,-0.129035576544937,0.14138019308357,0.00912014142898501,0.179193380115516,0.181373701005234,15.445442436475,1.0268627888513,0.954079083047482,0.176050589925969,0.240257414915663,0.180246524400833,0.41820436188866,0.155768565852501,0.0399864606269479,NaN,NaN,NaN,NaN,1.8944468966032,-118.434379956689,1.5,stable,stable,1,0.516467447143338,0.270592440318718,0.246126469040525,0.896410161757811,0.31989043359963
182,2.43628829737571,3,-0.449398750589824,-2.36363841261134,2.43628829737571,0.00501779624456261,0.00788741279543787,0.00934823832374762,-0.0189843919804735,-0.296405113536469,0.297688909587371,0.0192297808923888,0.218341999585992,0.220597808954667,15.4021538171403,2.17682320553678,2.22539128426729,0.0155897725022066,0.0446634116463322,0.157236521338303,0.429457920386447,4.83780533838089e-07,0.0054021267288517,NaN,NaN,NaN,NaN,2.61222307005049,-99.3162222201901,2.44335880713355,stable,stable,1,0.693796441091122,0.128548976783153,0.0790940108030447,0.957616285614722,0.330117101627421
183,1.80261065589415,2.58814311027527,-0.949049924773696,-1.51895427640082,1.80261065589415,-0.0457392662541475,0.000615156159168649,0.0457434027436521,-0.049337125198415,-0.12198477668559,0.133573883433061,0.00861645563746776,0.117389146196283,0.119476659680528,15.4061882067553,0.973513266271866,1.02385435443772,0.17664162653171,0.240238833427837,0.169955623187394,0.468778406196973,0.158341861516023,0.0351305420209041,NaN,NaN,NaN,NaN,1.87171872539055,-121.350351106356,1.94368810760837,stable,stable,1,0.504591506841212,0.185131092738754,0.194227558870097,0.895985583999998,0.324464167472269
184,2.54689508835282,3,-0.296079925409509,-2.4960888819638,2.54689508835282,-0.0258107426906765,-0.0106675804689276,0.0279283316957056,-0.0107576004407461,-0.323975509026487,0.324521319073718,0.0209471382553933,0.217491932591886,0.219399965621938,15.399861079993,1.7094962859859,1.30951083010504,0.0626949378621131,0.240297258882461,0.132475426237973,0.440304481586467,0.00185725242830113,0.00964791588377365,NaN,NaN,NaN,NaN,2.70378156394852,-95.0700514349474,1.72503900432266,unstable,unstable,0,0.72305201668514,0.107068799264828,0.068575058131231,0.944931760871086,0.341122032783123
185,2.10110961350819,2.9684898853302,-1.22245135157032,-1.69189405639901,2.10110961350819,-0.0694035026575462,-0.00138184752220434,0.0694172578233298,-0.0811519979228989,-0.151486772659359,0.175261621746448,0.0113037969425086,0.140836237274135,0.143696532934229,15.4632421419095,0.916679374132555,0.920818735184731,0.176315622111015,0.240309710847076,0.16485941151562,0.403311034715236,0.153952380838944,0.0385029506504036,NaN,NaN,NaN,NaN,2.15708888634091,-124.745911655981,1.8178435938363,stable,stable,1,0.589035203522362,0.207887058427564,0.207156588393185,0.897404703799857,0.326729150437502
186,1.95053164569699,3,-1.07182141578487,-1.60866254021077,1.95053164569699,-0.0109372744275727,0.0290018914572878,0.0309957042185581,-0.0680226371104071,-0.144752116649077,0.163778692816326,0.0105634472028343,0.163623009681919,0.164401825000368,15.4520553691622,0.908041750782487,0.914146572461648,0.0260315561809079,0.0735889127924243,0.270636671989844,0.694643892190969,0.0207975775166605,0.00912750975717862,NaN,NaN,NaN,NaN,2.10837557196529,-122.363616262261,2.01190356366951,stable,stable,1,0.553022137185938,0.24181292549158,0.157650217537286,0.972667027941199,0.279717034671181
187,2.02535940908097,2.99972081184387,-1.11524438722028,-1.6569395212379,2.02535940908097,-0.0874153713750248,0.0106107326120374,0.0880569974459592,-0.0734545368943412,-0.151873926065872,0.175035441857888,0.011290521984014,0.199589827940529,0.202288989687638,15.4100751961738,1.04300193428107,0.979274537119632,0.176763283080979,0.240354085841904,0.154574817439934,0.465752451164588,0.157705496912423,0.0355273820280171,NaN,NaN,NaN,NaN,2.09849345512064,-122.244984043751,2.39353098263735,stable,stable,1,0.580553640359119,0.235375098486746,0.224235439063312,0.895729043327076,0.331300081137807
188,2.02685057069804,2.83406639099121,-1.14581749765844,-1.64821360611541,2.02685057069804,-0.0688200625983788,0.0026027003419525,0.0688692606691459,-0.0729514772828018,-0.145567701693906,0.167268727744069,0.0107881878595433,0.164084245023103,0.166702990238778,15.4565936425664,0.868816701403926,0.889002858009559,0.176725194450435,0.240309790451248,0.152251690910128,0.478081498498449,0.158217326016555,0.0363077345055511,NaN,NaN,NaN,NaN,2.08252249604559,-123.526280590972,1.95523847904467,stable,stable,1,0.573834083567234,0.19424959068864,0.20007137852357,0.897825963379391,0.332332581817721
189,2.49650761913695,3,-0.770168924760089,-2.34323896001285,2.49650761913695,0.00693581685630817,0.00403280239987568,0.00802303251026017,-0.0396293201886876,-0.288595775771384,0.29328644973826,0.0189401183404706,0.211034360565251,0.213298096461643,15.3899728975548,2.04489123206471,1.99530338875853,0.0269188402210158,0.0694809662574569,0.143844987463191,0.510419090817545,0.0192251571569704,0.00760152998262453,NaN,NaN,NaN,NaN,2.71977714743149,-106.924123588306,1.83633530183844,stable,stable,1,0.708394984395515,0.114756674987734,0.0801627120055815,0.954796193583024,0.336068894460804
190,2.00510283924589,2.76294255256653,-1.09585732720218,-1.65647878701787,2.00510283924589,-0.0671224756884311,0.0113431644063274,0.0680741810181584,-0.0672683657340816,-0.146776260653933,0.165480227256192,0.0106739328528677,0.166625483414212,0.169173050617372,15.4307180678083,0.941511324022157,1.01411898504777,0.176021567700532,0.240284870341175,0.171781847441568,0.441187559425935,0.157236279300095,0.0397538494605288,NaN,NaN,NaN,NaN,2.06580628279313,-122.281189709167,1.56493202997341,stable,stable,1,0.568528700589046,0.182994202017139,0.1941352572687,0.896623549435613,0.323652512248192
191,2.01355922947059,3,-0.99903190644622,-1.71624886689615,2.01355922947059,-0.0741411123488875,0.00879266090101459,0.0746606685347151,-0.0594479512874169,-0.160464586151916,0.176167845221747,0.0113680458227703,0.196086028137332,0.198804941198526,15.3542159874374,1.29530150764809,1.20390437166558,0.177340468395063,0.24031089096934,0.156190357281964,0.504202826762207,0.158195790576003,0.0348947248528552,NaN,NaN,NaN,NaN,2.07634549688122,-118.754548572983,2.21054209793803,stable,stable,1,0.576710116098529,0.235636962600482,0.224380408671874,0.89169314817929,0.330582063430238
192,2.48124892615953,3,-0.96565194070121,-2.2478571020141,2.48124892615953,0.00724372246349575,0.00617765152775611,0.00952023600161994,-0.0582979727809495,-0.266741751360932,0.27706099776518,0.0178888880049036,0.22075173474504,0.222863970678011,15.4026062539942,1.98569926685329,1.83574572081259,0.0193639024608827,0.0510805761299437,0.131786588321121,0.455362821550931,0.000270660838996987,0.0127757819634897,NaN,NaN,NaN,NaN,2.68099720733185,-111.612146549017,2.27000115522465,stable,stable,1,0.70623917444481,0.118464368214403,0.0758446535306769,0.960292409580755,0.341428182968391
193,2.05268335584048,3,-1.07755667440233,-1.71172735906473,2.05268335584048,-0.0792151437473957,0.0026252834513404,0.0792586343064303,-0.0696610605615686,-0.159744986997917,0.180549370234934,0.0116470711318399,0.210543588250275,0.213394220617608,15.3919864845002,1.07983172258224,1.00652769197188,0.176601743909091,0.241203612060385,0.140896190782708,0.490619386491733,0.156060462623808,0.0415587530007612,NaN,NaN,NaN,NaN,2.11900443077325,-120.570247299149,2.2729708216566,stable,stable,1,0.590061072347649,0.227676994558738,0.221078676164283,0.895306304073958,0.337379470763241
194,2.47583551452932,3,-0.998177298280726,-2.23070175445017,2.47583551452932,-0.0269434207797054,0.00141309120303053,0.0269804512575372,-0.0579740417382579,-0.266826122782066,0.27677528429921,0.0178637719835679,0.22262255888539,0.224180587962292,15.3905767759347,1.59885590863057,1.4705538687345,0.062946713023128,0.240205864035298,0.139766479486924,0.528850520255181,0.00188280530257619,0.00971808785715566,NaN,NaN,NaN,NaN,2.61715863552686,-112.220792726245,1.87468418265851,unstable,unstable,0,0.705058921466942,0.122883425294786,0.0781007076634468,0.944409852380568,0.337881564672478
195,2.04454360217661,2.84333968162537,-1.04229645969407,-1.74358213186692,2.04454360217661,-0.0567527831642454,0.00632893823809464,0.057104586997101,-0.0595532809801198,-0.160400034693613,0.173521031338821,0.0111921407092223,0.130242578514968,0.132963787427383,15.440091894369,0.996453520256563,0.908994459296057,0.177144405720288,0.240274125147817,0.153606215944996,0.447712192503768,0.159003628855818,0.0367215037053819,NaN,NaN,NaN,NaN,2.08957514186263,-119.371133784789,2.38238894478006,stable,stable,1,0.571804384732574,0.190198292158771,0.198140528861421,0.896456420157657,0.331730570691113
196,1.94010524526488,2.7633740901947,-0.900713490555604,-1.70402146238523,1.94010524526488,0.00683589813683524,0.00366264707578738,0.00775528767609309,-0.0447525795334072,-0.152414924945836,0.160546455240309,0.010366101485899,0.136939469002867,0.138268311566841,15.4109840592913,1.79142498536903,1.94152072163119,0.0258365484785185,0.0553632112738952,0.129282166426295,0.431586184011526,0.0111611761288666,0.00798031710389495,NaN,NaN,NaN,NaN,1.98818975952798,-117.123132335998,1.96497976035593,stable,stable,1,0.545015061050669,0.186657292849828,0.119856831926163,0.957751438062882,0.342541259366091
197,1.88108167052269,2.7822437286377,-0.842915248884956,-1.65418224780077,1.88108167052269,-0.0756939064965677,0.00019277845370171,0.0756941519817968,-0.0443226893785272,-0.151603359006441,0.161200354945026,0.0104003203169307,0.19904260859448,0.201460723545259,15.3872700991198,1.16397912633389,1.03249049449156,0.176702685532957,0.240306619569413,0.15566789503181,0.456278293649195,0.158895093653061,0.035929705614967,NaN,NaN,NaN,NaN,1.96491164649544,-115.571452830696,1.94913755690708,stable,stable,1,0.541913923515102,0.216638724272539,0.213668623683458,0.894390681641322,0.330814268874751
198,1.83091973936236,2.56085014343262,-0.820216372465268,-1.61699007174067,1.83091973936236,-0.0600994885614788,-0.00270852776589098,0.0601604907560595,-0.0391818135570915,-0.139349743810978,0.146786843770551,0.0094707164784605,0.146230221485072,0.148426743909808,15.39836082751,1.21617984736875,1.04236912744664,0.177116339691684,0.240237661621455,0.186966740982459,0.465382646935487,0.158814818662838,0.0375950991019956,NaN,NaN,NaN,NaN,1.88489007794024,-115.359098105949,1.95494770481168,stable,stable,1,0.517930612611923,0.175263764221086,0.1894135675108,0.89369608820918,0.316903670674463
199,2.49557567599625,3,-1.13940985719358,-2.18600626459569,2.49557567599625,0.00941709120852202,0.00180072774609078,0.00958771230508946,-0.0759170740673667,-0.252206153008782,0.268645543474959,0.0173509482141078,0.212625454752175,0.214658959861415,15.3563721823244,2.13659115491019,2.08983290743286,0.0238602546215135,0.0566122818053477,0.144688665948811,0.43799495667995,0.00848664010211905,0.0107176579753779,NaN,NaN,NaN,NaN,2.68563096804021,-116.007396076949,2.05623971043816,stable,stable,1,0.708418638904617,0.115253220156777,0.0768211023123169,0.954862255056548,0.335693926244973
200,1.92041698178729,2.73622179031372,-0.827160906489187,-1.71326344464511,1.92041698178729,-0.0638506715386972,-0.00908314518849285,0.0644935018622639,-0.0398821392783492,-0.155732370606227,0.162870804138997,0.0105065173777886,0.143303135249142,0.145741736998511,15.4193115677814,1.0981197046433,0.993031474421454,0.176782583006658,0.240277380555533,0.17700357687822,0.453780361123587,0.160614860455165,0.0346213763832497,NaN,NaN,NaN,NaN,1.97177383483815,-114.893051128023,2.49377805205338,stable,stable,1,0.541259542542981,0.195379890593194,0.201201908192525,0.895178234946877,0.32133174360968
201,1.81981836789406,2.56912779808044,-0.771196577927477,-1.6344107009229,1.81981836789406,-0.0520914765528961,-0.0121175869572289,0.0534823133673827,-0.0337331261521557,-0.141050561694569,0.146319952198102,0.00943635588991673,0.120947157722673,0.123232011064315,15.4633092546702,0.842920453343537,0.66058526670916,0.176583708340868,0.240235485026461,0.106235275883935,0.439671155136926,0.158001774638432,0.0367273197446878,NaN,NaN,NaN,NaN,1.87135485490829,-114.338554000358,2.292842598348,stable,stable,1,0.509931300317947,0.178399712575956,0.190618227494056,0.899894886600581,0.352784321829362
202,2.33559559779024,3,-0.943864137569226,-2.10401349753089,2.33559559779024,0.00926677977531286,0.00816740436921674,0.0123523156345055,-0.0551369951860894,-0.237053600508919,0.246908260518654,0.0159446736650588,0.225525160347469,0.227460131562466,15.401376153529,2.05517942859968,2.0395015223814,0.0189733081234111,0.067341935642767,0.134901145737899,0.491613711882504,0.000217082909229791,0.00855154600992947,NaN,NaN,NaN,NaN,2.45321237213052,-112.912057666969,2.30451642835555,stable,stable,1,0.668317519056556,0.151755581696856,0.0942594834056245,0.958340852752015,0.3400439352276
