scenario_id,mean_wind_speed,max_wind_speed,wind_velocity_x,wind_velocity_y,wind_velocity,wind_acceleration_x,wind_acceleration_y,wind_acceleration,wind_body_force_x,wind_body_force_y,wind_body_force,mean_wind_body_risk,mean_wind_gust_risk,mean_wind_risk_raw,min_thrust_margin_n,mean_abs_roll_deg,mean_abs_pitch_deg,mean_abs_vz,max_abs_vz,mean_tag_error,max_tag_error,stability_std_z,stability_std_vz,mean_imu_ang_vel,max_imu_ang_vel,mean_imu_lin_acc,max_imu_lin_acc,wind_speed_cmd,wind_dir_cmd,hover_height_cmd,gt_safe_to_land,label,success,onto_wind_condition,onto_gust,onto_temporal_pattern,onto_drone_state,onto_tag_observation
1,2.03620860348009,2.68040466308594,-1.2564018107415,-1.58449451909144,2.03620860348009,-0.0566766562174715,0.0113429235442513,0.0578005646557555,-0.0853974957479117,-0.131974132852746,0.160964995833336,0.0103845955124901,0.124956576669669,0.12765032309943,15.4391610083059,1.12068141694849,0.996865201216122,0.177531523562996,0.242343145288756,0.162874823360309,0.391899269692465,0.158625945376883,0.0369691720184884,NaN,NaN,NaN,NaN,2.0716688985117,-127.374480982322,2.31472368639318,stable,stable,1,0.56851902554791,0.155540883598204,0.177268285605876,0.894596371932923,0.32761118961764
2,2.29834938727095,3,-1.38849008617041,-1.79327061525713,2.29834938727095,0.0104201457084009,0.00658022480178498,0.0123239115148694,-0.109262646162399,-0.17432380406034,0.214898736809112,0.0138736791415971,0.230154253360036,0.23182597627982,15.386903358174,1.76247142977875,1.77987535791532,0.0317165808186316,0.0922322663119827,0.120891519187081,0.475881260552121,0.0233523230918577,0.00636389780279628,NaN,NaN,NaN,NaN,2.42882567996652,-126.095851442396,1.59133896787116,stable,stable,1,0.659258365194884,0.160130771641762,0.108771417903668,0.956308984830231,0.346270435916853
3,1.78787257824395,2.65218162536621,-1.09991145599784,-1.37769949313969,1.78787257824395,-0.0762746320840848,0.013852175806698,0.0775222695368381,-0.0698504457141547,-0.105075217337977,0.132413790155585,0.00854140158421582,0.190660750834206,0.192784769516535,15.4354892916934,0.902735769474447,1.0406327206622,0.17656301148741,0.240265781670701,0.167430170496274,0.464955853337344,0.158556189443674,0.0358131095436474,NaN,NaN,NaN,NaN,1.87319628751653,-127.297520073929,1.88291995843224,stable,stable,1,0.515322974768361,0.208681951684262,0.208701537466042,0.896449170405221,0.325586590890545
4,2.44522147382178,3,-0.715890600264593,-2.30454683459887,2.44522147382178,-0.03002144113717,-0.0183712790830206,0.0351964603774128,-0.033013510610698,-0.274056227859115,0.277766789746645,0.0179272759408269,0.232264668420149,0.233843263679826,15.4001126611204,1.57296804295308,1.45266238943034,0.0636684735888239,0.240198425718947,0.126371273558521,0.47045311520901,0.00183653433305403,0.00864431551370012,NaN,NaN,NaN,NaN,2.46779887999601,-105.553838771394,1.58043934590142,unstable,unstable,0,0.698827712421773,0.131277852792625,0.0827263366164598,0.944392952665433,0.343834989529546
5,1.8249293427889,2.56952095031738,-1.06181426345824,-1.46942202055833,1.8249293427889,-0.0520057615484972,0.0167458117725818,0.0546353497852983,-0.0612372319301541,-0.114473381223956,0.132487822066772,0.00854577677435693,0.125707268060425,0.127861543017533,15.4463741891,0.931435757020124,0.964018984910235,0.180197943915386,0.240216460493002,0.155171308164226,0.425389986775535,0.156227960702558,0.0412842457418668,NaN,NaN,NaN,NaN,1.88084050141636,-125.058018224367,2.14107065953326,stable,stable,1,0.512220133347214,0.177549592487879,0.190976857690907,0.895008169355711,0.331034974149233
6,1.87681110886028,2.65269660949707,-1.03172070211822,-1.55369383325404,1.87681110886028,0.00330304940632641,0.00263773255102525,0.0042270283168405,-0.0578870321948119,-0.126929416722668,0.141845769296884,0.00915954754729771,0.131581973221257,0.132725481259649,15.3922375193904,1.84936781069819,1.98396268416287,0.0222891492739465,0.0722025203115425,0.12959763031295,0.499134007955781,0.00146748489559878,0.00592087772522539,NaN,NaN,NaN,NaN,1.9161886291726,-122.783489357006,2.17017754730381,stable,stable,1,0.527028058614672,0.175349192834698,0.10801477765551,0.958736400046261,0.342401053194244
7,1.91222978363166,2.88607239723206,-1.0759597664131,-1.54890042367232,1.91222978363166,-0.0770784104720895,0.0131438084461911,0.0781910548680224,-0.0669271336301943,-0.131392380919935,0.153268229867081,0.00988624934810164,0.184299561568391,0.186685158867088,15.4441907596004,0.9386253112099,0.933455138182372,0.176377766035601,0.240293683144678,0.142421090667169,0.428388268271131,0.159134624194013,0.0342149012065295,NaN,NaN,NaN,NaN,1.96867067391655,-123.586570068552,1.6782322625655,stable,stable,1,0.547264974075194,0.233449614785893,0.223238050770239,0.89710191345126,0.336701737481258
8,1.90508170063431,3,-1.11335036481566,-1.51224365033502,1.90508170063431,-0.0838495417021453,0.0138708927754321,0.0849891011250698,-0.0716746029358939,-0.125211664207822,0.150746245249235,0.00972204767210531,0.190534631488314,0.192854346289144,15.4488125735794,0.825586505061481,0.919150650892179,0.177036714676701,0.240321996327589,0.167167328160041,0.457665291377588,0.159062426351013,0.0375357143244907,NaN,NaN,NaN,NaN,1.96461919299708,-125.030810267647,2.37589736284322,stable,stable,1,0.546592656093645,0.261937952563543,0.241506533913138,0.897772993579156,0.325703409706648
9,2.61218990809144,3,-0.806521944331682,-2.44946636754023,2.61218990809144,0.00454696717978973,0.00522525269251523,0.00692662805661764,-0.0431998305669591,-0.312510634030417,0.317734283067538,0.0205123344763998,0.199083132336243,0.201512340878834,15.4141264994302,1.81284213346142,1.71169641649106,0.0244687053303784,0.0482039179975698,0.119014893502786,0.486826700408846,0.00571848645986436,0.00705599680031649,NaN,NaN,NaN,NaN,2.98365709536118,-106.900241715489,2.04975610219883,stable,stable,1,0.736886443666817,0.088527152489806,0.058223658049898,0.960072844442327,0.34710449177654
10,1.90444841900387,2.66972160339355,-1.14031773828533,-1.51113018399505,1.90444841900387,-0.0555359540985495,-0.000222059932693411,0.0555363980489363,-0.0704182439762432,-0.121149959577697,0.142857777422269,0.00921543906105577,0.117227898297822,0.119497326323,15.3780455076039,1.03939154049291,1.08309898457288,0.17720282270626,0.240265626939234,0.146946899850206,0.473949840274235,0.159077388906786,0.0382685543572177,NaN,NaN,NaN,NaN,1.92399487038037,-126.353098118705,2.22689847043831,stable,stable,1,0.531752376998966,0.182368139463317,0.194037783362419,0.894721877378496,0.334690266733242
11,1.84161525044665,2.70133876800537,-1.14187979841748,-1.40757283992262,1.84161525044665,-0.0863651353630662,0.0153981243947392,0.0877270701731034,-0.0758151964110676,-0.109571057026534,0.140739776712312,0.00907746015989909,0.186008789982182,0.188111282226069,15.4486335688503,0.824236117051814,0.924404919388238,0.176738913601007,0.240255644841105,0.155618055536458,0.489212108102177,0.156498571296793,0.0404624241606157,NaN,NaN,NaN,NaN,1.90759543141243,-127.844704273722,2.18049950284375,stable,stable,1,0.528719656564321,0.209521087649114,0.2099811819515,0.897891220770325,0.330836419761574
12,2.62827081168258,3,-0.792211034631191,-2.47223330794596,2.62827081168258,0.00475186641446404,0.00200133487406338,0.00515612021766886,-0.0416827874715965,-0.318204938022787,0.32300636753323,0.0208514297537637,0.194321762731702,0.196881228034712,15.3994547713613,1.83133961082491,1.64037538621213,0.0303386308379944,0.0538724288876971,0.130686743901979,0.473920306022268,0.0212924112359013,0.00633896744938718,NaN,NaN,NaN,NaN,3,-106.299635778902,1.69503483229951,stable,stable,1,0.74024846205563,0.0845843560779922,0.0625189866019226,0.957552923889997,0.341917002710232
13,1.95846858942831,2.69723892211914,-1.03250296237118,-1.65091552036963,1.95846858942831,-0.0475711313431956,0.00250302842299613,0.0476369361793755,-0.0584447554108289,-0.144134710837352,0.15770447629784,0.0101731418437837,0.131435267674542,0.133975702485531,15.4016036469714,1.07121607530136,1.00701348283006,0.177055618659355,0.240274216996696,0.165781850199947,0.476228200541359,0.158799813648967,0.0351365582169587,NaN,NaN,NaN,NaN,2.02726066309477,-121.319262228342,2.39248404647439,stable,stable,1,0.549053431011322,0.174956763154989,0.188328683108802,0.895143244142147,0.326319177688913
14,2.6666843257114,3,-0.748737919357753,-2.52087766149839,2.6666843257114,-0.0310415299565483,-0.0063751088248283,0.0316894082395315,-0.0356557556206088,-0.327187543302358,0.330945284413258,0.021364345038061,0.204400096079528,0.206395062308639,15.3739363685386,1.86375125313426,1.48123463136022,0.0636657797054348,0.240213571698254,0.1309271444772,0.514069051744727,0.00186178338755125,0.0107702651362646,NaN,NaN,NaN,NaN,2.96211416560549,-104.652706865072,1.63332379557232,unstable,unstable,0,0.752394832651434,0.0808057515588492,0.0532273702682164,0.941885078197683,0.341810158010133
15,1.7420976294859,2.44889640808105,-0.930323508656229,-1.45261495180734,1.7420976294859,-0.0577954706825624,0.00570227819115902,0.0580760915350568,-0.0486272470630331,-0.113078509197261,0.126094303382021,0.00813245043154186,0.141199713133819,0.143133546358931,15.4356901456357,0.852646655635013,0.855654471856336,0.17631568681379,0.240244024471959,0.168210362706896,0.435727930453177,0.15911164271985,0.035982249182842,NaN,NaN,NaN,NaN,1.78867162897179,-121.8764556945,2.03433250806104,stable,stable,1,0.493186077134694,0.169677008632003,0.185606945080774,0.898419790591387,0.325239838796935
16,1.75355199407973,2.72026181221008,-1.00279289895881,-1.40766353833806,1.75355199407973,0.00609018953878203,0.00202826816293052,0.00641905603333135,-0.0588563655577125,-0.107862040370105,0.128228196389977,0.0082782771157052,0.186786649668075,0.187785586188218,15.4014688304379,1.71650397686437,1.84428254349228,0.0269613748157072,0.0489318187112634,0.126737798718416,0.432660926132731,0.0104812981712595,0.00712657569665974,NaN,NaN,NaN,NaN,1.79698325918466,-123.928221238646,1.94766245858436,stable,stable,1,0.505170982325572,0.218686536018773,0.138461758425559,0.958541704217916,0.343672089458482
17,1.84866562244054,2.53779268264771,-1.00824798042369,-1.53292845710814,1.84866562244054,-0.0502971212140019,0.0138259374033767,0.0521627927501787,-0.0558251562002863,-0.125704406473061,0.140241772744007,0.00904535727238457,0.134613044662785,0.136773228109138,15.467421145192,0.901645524553642,0.883627731390371,0.176977265688612,0.240259616245121,0.171868700053481,0.407306341666694,0.159173067355352,0.033979418900855,NaN,NaN,NaN,NaN,1.90606506718967,-122.683382350962,1.50756741233479,stable,stable,1,0.520332144939306,0.164616767217477,0.181869798149338,0.897484220144706,0.323613911087342
18,1.82702166042072,2.58032441139221,-1.04576662980057,-1.48277546706264,1.82702166042072,-0.0526798563270673,0.0127108099607776,0.0541916225306039,-0.0595799988973679,-0.11658460068279,0.133592971746217,0.00861797517537706,0.128125435935832,0.130282486625672,15.3999116402797,1.0334147567454,0.937523093901332,0.176038513592058,0.240251071330381,0.155202820376634,0.408607233886163,0.156381776140145,0.0416719399955086,NaN,NaN,NaN,NaN,1.87952489310621,-124.36494621675,2.34077605396524,stable,stable,1,0.513262273437326,0.179428249765863,0.192313394203,0.896494802948889,0.331020968721496
19,2.61291995415321,3,-0.77890669558344,-2.46085003546407,2.61291995415321,0.00848526001666757,0.00283074029105751,0.0089449834066852,-0.0404704786878544,-0.315655329531018,0.320250081008382,0.0206844689708841,0.195927697811709,0.19839206173884,15.346485670186,2.1919781878418,2.01379056725575,0.0303054720779644,0.0744491898690401,0.132624741112347,0.528607641481821,0.0227467372584841,0.00643366359912829,NaN,NaN,NaN,NaN,3,-106.031594526481,1.56615513344516,stable,stable,1,0.736457066788623,0.0887329239400872,0.0656889294038697,0.951801938028108,0.341055670616735
20,1.8916618042701,2.65641927719116,-1.00702911521155,-1.58733558570119,1.8916618042701,-0.0432343016382104,-0.00245436174241737,0.0433039112518304,-0.0551400245118736,-0.133315131194142,0.146461486655392,0.00944800482739428,0.127224610715337,0.12954089669533,15.4309549297568,1.02985153542521,0.987316288596902,0.176773384185557,0.240264373303085,0.165423432475055,0.448395398410409,0.158014818947583,0.033993893947973,NaN,NaN,NaN,NaN,1.95533603544456,-121.682915799118,2.05340098204112,stable,stable,1,0.530351327144426,0.180009481803408,0.190595913484274,0.895764132147048,0.326478474455531
21,1.92323469189373,3,-1.06275708076829,-1.57106224518602,1.92323469189373,-0.0764596708513759,-0.00842343419422639,0.0769222692744124,-0.0667050934168161,-0.136004247071292,0.157216875829301,0.0101412918792882,0.194792388892571,0.197146876204071,15.414251728921,1.06266250740738,1.01769981825524,0.176849181815625,0.242934501811783,0.14900573358808,0.516943130313253,0.155783413826323,0.0403451403296045,NaN,NaN,NaN,NaN,2.01006102178809,-122.843348050567,2.08499245906328,stable,stable,1,0.552291959745809,0.256374610357553,0.237732799146087,0.895229705104838,0.333775229516409
22,2.62980692243098,3,-0.740376228549562,-2.49063969038044,2.62980692243098,0.00615810468840969,0.00581987593288802,0.00847308734922653,-0.0374975558227078,-0.323180898135238,0.327074485574033,0.0211212201823316,0.198306691921005,0.200889868542159,15.4060527476548,2.03946490084757,2.01027426422387,0.0224341003653699,0.0538979045068131,0.141995590300487,0.462431484162875,5.75670239592362e-05,0.0091891426184235,NaN,NaN,NaN,NaN,3,-105.373889448931,2.16218948951059,stable,stable,1,0.741459819690026,0.0848468418003885,0.0542751968309144,0.956963570663182,0.336890848755339
23,1.7093866894374,2.53183245658875,-0.84753779608299,-1.46486399188951,1.7093866894374,-0.061441078225993,-0.00889290785801081,0.0620813168654118,-0.0412563827568162,-0.11510265412127,0.12471155546284,0.00804295055689108,0.146238385673314,0.148228116234055,15.4557661481281,0.92220308464034,0.644364063463435,0.176176820140264,0.240179185721853,0.11798720915284,0.406382763648607,0.157839985356379,0.0369047821505615,NaN,NaN,NaN,NaN,1.75191981509009,-118.497538474994,1.63794118500386,stable,stable,1,0.485482073763452,0.196431872367711,0.201430148805484,0.89960284805191,0.347561240376515
24,2.663393483873,3,-0.556479528480317,-2.56965112751389,2.663393483873,-0.00228293469609683,0.00170895841742999,0.00285172398719573,-0.0271838668207281,-0.335632872141129,0.337833354737158,0.0218082332829239,0.197712487259568,0.19961673912763,15.3852429359488,1.73657443003425,1.45423271769052,0.079603617487751,0.240544280562499,0.144889455723403,0.488319591717974,0.0815236844237122,0.121880953062096,NaN,NaN,NaN,NaN,3,-102.185830974197,2.47021216648072,unstable,unstable,0,0.750161610191659,0.0762592821928944,0.126308664516533,0.935127563666858,0.335604686345154
25,1.54885905512965,2.5134699344635,-0.855443548600982,-1.28086231584939,1.54885905512965,-0.0346842083707216,-0.0157111824980285,0.0380767063411476,-0.0449985168434503,-0.0973790105677914,0.108852430718568,0.00701973084565361,0.136953909627633,0.137874284837244,15.4665869556101,0.585661596660462,0.785546753673299,0.163874465751098,0.248069496070419,0.246136243210513,0.501042551579198,0.125004858052655,0.00547693096077903,NaN,NaN,NaN,NaN,1.79680657025774,-122.144595008979,1.73992120207247,stable,stable,1,0.440603938335354,0.224018177345995,0.191960232356131,0.907288987228972,0.290606114128661
26,1.85164954431081,2.75652265548706,-1.03492063788924,-1.51581663134461,1.85164954431081,0.00628585531751801,0.00407143678537251,0.00748923057263253,-0.0595545394462597,-0.122344417726659,0.13940204429468,0.00900157345991959,0.149311432328637,0.150397234800407,15.3888121549337,1.94646299230273,1.94656711542039,0.0315596555951138,0.0716320314893561,0.131011938619437,0.46671439451626,0.023722601827651,0.00767738283932968,NaN,NaN,NaN,NaN,1.89015622586425,-123.159855511628,1.57557930144323,stable,stable,1,0.523852658776297,0.204969475619639,0.136316839539789,0.953632078498904,0.341772471724695
27,1.71543612673476,2.61548471450806,-0.818365584860362,-1.47865022320175,1.71543612673476,-0.0701376498129352,-0.00669313288374654,0.0704562839573691,-0.040974439917986,-0.12042569908753,0.130651816241069,0.0084277758709647,0.176361995071933,0.178365050313506,15.4486125904228,0.979434682055153,0.901666377479138,0.176700024514805,0.240247927847943,0.16986121107559,0.419401801487738,0.159260489059141,0.0363418337945069,NaN,NaN,NaN,NaN,1.77620387229689,-117.832865156267,1.72676411435469,stable,stable,1,0.493122643858637,0.215427917641176,0.213254402455458,0.896869907989114,0.324506128410849
28,1.73661740728327,2.50131797790527,-0.976430531146538,-1.42214987302579,1.73661740728327,-0.0503265034522882,0.00226275572657082,0.0503773462303376,-0.0522654581427394,-0.107319411464633,0.121636439335147,0.00784587378138238,0.113522129225694,0.115401670225722,15.4341783261848,0.820255098350123,1.01999525698437,0.177081640814412,0.240194179820683,0.143727600569373,0.481112269486604,0.159282590649713,0.0362500008984937,NaN,NaN,NaN,NaN,1.77693740749085,-123.63065316624,1.67335715700925,stable,stable,1,0.486178309320682,0.181293475198847,0.192750166138835,0.897000069658023,0.336121066413612
29,2.62146905473243,3,-0.515318203816852,-2.53422015750366,2.62146905473243,0.00688220701729863,0.00376519740173675,0.00784483810559527,-0.0234703477058397,-0.334124843496781,0.335815847391174,0.0216803250029304,0.19978510504247,0.202448593675858,15.3942342192691,1.91280052606819,1.67532998079583,0.0293355108412774,0.0522385501374274,0.119884995602395,0.478482219556378,0.0219910179556439,0.00524730543625039,NaN,NaN,NaN,NaN,3,-100.208461528465,1.56503377842369,stable,stable,1,0.739548133330487,0.0866076830045614,0.0636465066285282,0.957139790596858,0.346717779732269
30,1.81958142889513,2.80268859863281,-0.930329457645641,-1.53685277152154,1.81958142889513,-0.0709499896017899,0.000985230807015848,0.0709568298632146,-0.0513030354567207,-0.129435617308146,0.143163454633409,0.0092345220507643,0.177762336448446,0.179946330580415,15.4564567536673,0.926271364589139,0.89616919474405,0.17643674355221,0.240282708137135,0.173909959164028,0.393123446660509,0.159252772482921,0.0362660960796594,NaN,NaN,NaN,NaN,1.90894849737311,-119.745808657761,2.26561871743824,stable,stable,1,0.521210980488117,0.234207865332569,0.224491400493645,0.897462452400563,0.322706684815988
31,1.9111300690754,2.64553022384644,-0.954350295523286,-1.63528795545654,1.9111300690754,-0.0649051899399047,0.00335498755427644,0.0649918427391042,-0.0515491701577179,-0.142954753218998,0.154911799399461,0.00999509086851574,0.148324992358632,0.150735353616711,15.3428407416396,1.13915291117715,1.16909263176345,0.177352514036423,0.240308934342665,0.175461071199144,0.501718244546808,0.159785916431667,0.0368597934258526,NaN,NaN,NaN,NaN,1.95935225919259,-119.13516242978,1.87674676061075,stable,stable,1,0.539781755810117,0.177155205992318,0.190712647699674,0.893187528001541,0.322017301689269
32,2.61639131590674,3,-0.642906042992484,-2.5030366506434,2.61639131590674,0.00438159057291423,0.00476923028810319,0.00647641054053954,-0.0306036837676767,-0.326960126613233,0.329619252919099,0.021299375882504,0.197470051092901,0.199965294144914,15.3470148279252,2.35396595506389,2.34826526769533,0.0145366771930464,0.0670502139896949,0.152760449888214,0.495998377458793,0.000337286662486447,0.00577643810570494,NaN,NaN,NaN,NaN,3,-103.01941117063,2.49624442455686,stable,stable,1,0.737697409737447,0.0874992958534155,0.0547500056429056,0.95578555893894,0.332106466716349
33,1.86221700584566,2.65690994262695,-0.81492383489684,-1.65392736375077,1.86221700584566,-0.059605614566685,-0.00110165981694045,0.0596157944023601,-0.0387731989736416,-0.146015763802581,0.153249054636342,0.00988573754922159,0.155884417779623,0.15833708532506,15.4321903999161,1.01142909554004,0.988239121727611,0.176138504178989,0.240234409486586,0.159641005635222,0.399678677232613,0.156060565454305,0.0415316134128619,NaN,NaN,NaN,NaN,1.93692079365451,-115.089103932968,1.9347407602979,stable,stable,1,0.528258618623855,0.18973547308289,0.198303940040163,0.896219069060546,0.329048441939902
34,2.62240411586045,3,-0.558647859670399,-2.52782184875793,2.62240411586045,-0.016331982853875,0.00947571461875092,0.0188818121872684,-0.0267980224532098,-0.33955520388333,0.341705432207951,0.0220599536307278,0.204302719556405,0.206335586755423,15.3397314362018,1.80493689152729,1.4671605666213,0.0628369448936654,0.240516280522548,0.128240994759168,0.491547804731534,0.00193898431330162,0.0109110714236424,NaN,NaN,NaN,NaN,3,-101.157933097739,2.2756524511647,unstable,unstable,0,0.740574881580538,0.0884207394990644,0.0578818768412205,0.942872190382,0.343004002329259
35,1.80378243587161,2.33324456214905,-0.799287729230896,-1.60352556903747,1.80378243587161,-0.0485664197781734,-0.00481242884761222,0.0488042682711572,-0.0355600930930057,-0.13480550303765,0.14071936847579,0.00907679268966721,0.116718550329282,0.118987476936633,15.4173875332428,1.02592879158623,0.825665084222402,0.177022822744931,0.24020838634722,0.158911682245203,0.407543333268812,0.156330722007281,0.041387012853643,NaN,NaN,NaN,NaN,1.86137587595629,-115.841095627455,1.72733386066484,stable,stable,1,0.504806144953089,0.128076427595469,0.161376000305276,0.896940351031895,0.329372585668799
36,1.96257395967592,2.81099915504456,-0.877756382739303,-1.73420208679457,1.96257395967592,0.00546194033432544,0.00267038242378641,0.00607978079415685,-0.0443038342761644,-0.15913249224186,0.167599568694032,0.0108201909149242,0.162779690067821,0.164054518581114,15.4109492484418,1.61224451976812,2.01523100964746,0.0291207191471342,0.0599318112885895,0.12514976833264,0.451046472122234,0.0195858571279508,0.00917061255327591,NaN,NaN,NaN,NaN,2.00134863438598,-116.022448666907,1.7970825362487,stable,stable,1,0.556163959629801,0.192010295436872,0.127245770853515,0.956938046981025,0.344377880741049
37,1.81710349546896,2.66281962394714,-0.818203332076054,-1.60366589568829,1.81710349546896,-0.0651780531124494,0.00299383693331521,0.0652467751472252,-0.0386427787588418,-0.13765590004863,0.144906008572073,0.00934757483905057,0.142221320486867,0.144446492070307,15.4244264498738,1.01189855946032,0.950643687686511,0.176526975213651,0.240268061728441,0.15917107680504,0.418353780210593,0.158772746658843,0.0360510156826845,NaN,NaN,NaN,NaN,1.84847057739295,-116.145839673518,2.22500742476126,stable,stable,1,0.513450230539119,0.202248037684582,0.205023948040706,0.896316537594164,0.32925729919776
38,1.94119874770577,2.67267346382141,-0.780134463100739,-1.75729236475589,1.94119874770577,-0.0718778387194361,-0.0035886400829727,0.0719673678594846,-0.0363949483922526,-0.165672993822336,0.171447061695532,0.011057084323626,0.158133774943029,0.160654617005507,15.4541400683637,0.894151024140199,0.737150451760152,0.176149929556071,0.24029390205239,0.139573068302799,0.42342622336998,0.15594911579392,0.0404142532586641,NaN,NaN,NaN,NaN,1.9993932608471,-112.620106358339,2.08251931069655,stable,stable,1,0.549783922789306,0.177775828566925,0.190672307364846,0.899107666482748,0.337967525198756
39,2.61563445891824,3,-0.628674837966474,-2.50726085889062,2.61563445891824,0.00573167921991569,0.00341066371545642,0.00666969067198355,-0.0293813804361164,-0.327496581200941,0.329995961822917,0.0213036302421373,0.196631611863173,0.199213157336922,15.4128209171414,1.64421261202575,1.85089745474358,0.0291703537280707,0.0531481731627401,0.128798522307768,0.45438360994183,0.0194838531914929,0.00671713474275599,NaN,NaN,NaN,NaN,2.9987372183553,-102.731971335258,1.77859206060935,stable,stable,1,0.737345153845581,0.0877050233665937,0.0637250987791977,0.95795324403992,0.342756212307659
40,1.8886209589404,2.91280198097229,-0.297470116427633,-1.83728526192985,1.8886209589404,-0.0752865978264155,-0.0227301562123482,0.0786430658972181,-0.010447575379274,-0.1828810286874,0.18355998061272,0.0118408656118272,0.18054051324798,0.183561344421428,15.3499806730645,1.06645338784099,0.844512049795,0.177098170427199,0.240244978712906,0.14057482277243,0.469850694412342,0.158742072648693,0.0357254395680403,NaN,NaN,NaN,NaN,1.96262077332345,-97.9255988407311,1.69261380954468,stable,stable,1,0.540344524601726,0.244858625371665,0.23045827644514,0.896436186347832,0.337522300990031
41,1.87490968567294,2.83981204032898,-0.288354439726579,-1.82424663650642,1.87490968567294,-0.0762262613308068,-0.0344800675563623,0.0836619266761396,-0.0102500242479523,-0.181476550486247,0.182143137257022,0.0117501528829581,0.190893189659044,0.19382296827187,15.3425178300592,1.15772226801459,0.866263273271518,0.177159380176058,0.240261077521837,0.166533204768276,0.481141709777421,0.15550847561085,0.0406306629558993,NaN,NaN,NaN,NaN,1.94919332297993,-97.076725643542,2.09756699516694,stable,stable,1,0.538740509833825,0.232441049688234,0.223354294391625,0.895517566373294,0.325985242325211
42,2.61588139916742,3,-0.62627846286818,-2.50703765452248,2.61588139916742,0.00343261631707399,0.00647664354030861,0.00733005909447283,-0.0295371915487551,-0.327677852058898,0.330209672748765,0.0213299273406251,0.19961830899448,0.202233586773796,15.386499620419,2.18805061653828,2.07630743251076,0.0177377968005731,0.0526967091149368,0.136821643311035,0.416822320665193,0.000329608069247642,0.00434499936862354,NaN,NaN,NaN,NaN,2.97766096785849,-102.83550377438,2.36754043575123,stable,stable,1,0.738015090466071,0.0877705293546502,0.0543888098584199,0.957625431214328,0.339190380750651
43,1.80721306438382,2.94557642936707,-0.25320936735623,-1.76311160056647,1.80721306438382,-0.0727111069665906,-0.0143436553504922,0.0741123844247416,-0.00852851966682533,-0.169553598943853,0.170062370901888,0.0109725170493923,0.188062438668906,0.190744890294158,15.393227990942,1.21268138848422,0.890742482135707,0.177065732136564,0.240273155319279,0.165867580952215,0.397034904738735,0.158219520895272,0.035987026017285,NaN,NaN,NaN,NaN,1.87761184680711,-96.9149867627548,1.77439861454857,stable,stable,1,0.520072461894516,0.2697190275991,0.245237394903038,0.894940232091133,0.326281075132349
44,2.50067489922765,3,-0.598998387303622,-2.39741484009222,2.50067489922765,-0.0180843920342755,0.00109166864309558,0.0181173114913799,-0.0270961067795671,-0.307174283174427,0.309505701829084,0.0199800559581028,0.219792095646739,0.221627161795082,15.4237846736305,1.73843406405202,1.43276999557737,0.062649265720118,0.240251140240122,0.131265736327001,0.399119343861844,0.00191665812271013,0.00996973165330767,NaN,NaN,NaN,NaN,2.70268226585959,-102.84402520654,1.98448040422797,unstable,unstable,0,0.711172072153056,0.115669654780532,0.0738789978876963,0.943758763814281,0.341659672743555
45,1.68349244970603,2.46094870567322,-0.245728918703889,-1.6541824318007,1.68349244970603,-0.0408150636128518,-0.00362664033244233,0.0409758701899306,-0.00528699971513329,-0.145129268631335,0.145320894055589,0.0093727181479198,0.12527150981975,0.127692599283163,15.4595842906832,0.89135342284024,0.688104017207719,0.176325780923685,0.240206866389717,0.145596837972568,0.401589240498409,0.15613867127546,0.0411146299035498,NaN,NaN,NaN,NaN,1.74484723470437,-96.8322370152764,2.33085744260336,stable,stable,1,0.474469839778241,0.182439900460771,0.19380967979816,0.899427086794924,0.335290294234414
46,1.6757117386247,2.4318733215332,-0.225192894349631,-1.6445513753722,1.6757117386247,0.00184832223601392,0.00201841935240614,0.00273684339528426,-0.00542606956391989,-0.142319674918807,0.142557809411506,0.009203488447192,0.129268053111084,0.130470542062831,15.4279304552059,1.96523961601502,1.54389243990713,0.0204323639797414,0.0441112180266386,0.12562099831727,0.394380484899564,0.00019809826104928,0.00626744808506096,NaN,NaN,NaN,NaN,1.71876069037497,-96.5690723186371,2.222519852602,stable,stable,1,0.47295057204582,0.170638110776882,0.104749982168638,0.96221206614217,0.344168445192324
47,1.79171878939507,2.4855535030365,-0.139751516848065,-1.77270942666688,1.79171878939507,-0.0483429526844264,-0.0113696184079898,0.0496619501932012,-0.0029737688541796,-0.165076542143991,0.16516439667269,0.0106522290211599,0.122903418834698,0.125691457176434,15.4587297400805,0.982126652796029,0.585439841539138,0.175082935929739,0.24021358435384,0.127276874250629,0.404443219182404,0.155649449111118,0.040930885020886,NaN,NaN,NaN,NaN,1.8330973949862,-93.5355183886098,2.29107691853517,stable,stable,1,0.502929968607305,0.165217501438075,0.183191991990533,0.900141938151069,0.343432500333054
48,1.63404627088557,2.53135514259338,-0.221293588337544,-1.59426017983902,1.63404627088557,-0.0668608470608248,-0.0478729764565331,0.0822325649879582,-0.00722881898675985,-0.14642048160696,0.146878259391614,0.00947350777925303,0.180457059037101,0.181753563488535,15.4321197780593,0.756661745736387,0.673663078989305,0.171785641734402,0.241902994777187,0.233482875155628,0.531121330973827,0.139303945509371,0.00495450135007693,NaN,NaN,NaN,NaN,1.76093856199151,-95.8152911333806,2.23193935718008,stable,stable,1,0.472096384933859,0.216970466382051,0.193896781354636,0.902868912652811,0.296229833264165
49,2.465412046861,3,-0.621808368466033,-2.35533657524912,2.465412046861,-0.0205174493575451,0.017192139959654,0.0267681789543435,-0.0296903161390511,-0.305785047680557,0.308512236120959,0.0199085049887469,0.196460870457022,0.198167579091267,15.4307719261414,1.45998729568674,1.15538022826413,0.0239849950470525,0.0715928547222484,0.182899278365039,0.665248192250148,0.00880488160076146,0.00453177973136148,NaN,NaN,NaN,NaN,3,-103.690253195533,2.0916454123561,stable,stable,1,0.697076728314521,0.125189788931237,0.080675073972505,0.96745818621686,0.31871143183776
50,1.69523525558062,2.39775013923645,-0.172655456546793,-1.67436714834052,1.69523525558062,-0.0571738979734338,-0.0145062603537923,0.0589854744740484,-0.00355062597075332,-0.148285913861787,0.148397568268044,0.00957116244011983,0.115306645462038,0.117692934764729,15.4573013689551,0.997089063952295,0.614801675786709,0.175848764983065,0.240222264903455,0.157104284538264,0.389400419851219,0.155952931362285,0.0391126581749903,NaN,NaN,NaN,NaN,1.72627812567413,-94.411640590645,2.45524121610319,stable,stable,1,0.475601321774444,0.168879852476137,0.184863110215381,0.899410761696232,0.33017587353855
51,1.59568927819664,2.23470401763916,-0.127471838775945,-1.58000844030719,1.59568927819664,-0.0408478524679444,-0.0159198680433589,0.0438404978274758,-0.00232134611972129,-0.131332149607991,0.131390046724076,0.00847494459870973,0.100584753781122,0.102828430042235,15.4330526042478,0.9145513176271,0.752740120160807,0.176164200803222,0.240165816473802,0.143505551055534,0.439785291122258,0.15831484360648,0.0341599421531114,NaN,NaN,NaN,NaN,1.64198518080473,-93.7945426045898,1.69498338806231,stable,stable,1,0.446082826860886,0.15181574097627,0.173873394446339,0.898817752587198,0.336219755086429
52,2.62655893217361,3,-0.632761999799921,-2.51638513088266,2.62655893217361,0.00831714947620473,0.00630313003613041,0.0104357282286337,-0.0299278438870769,-0.329194571906345,0.331793562396794,0.0214301722489731,0.193725825626627,0.19633694801794,15.3877689912405,2.14949690911941,2.13467483653105,0.0147318540547464,0.0734608638603436,0.13749286000712,0.444525597870939,0.000279751522775183,0.0077473265279212,NaN,NaN,NaN,NaN,3,-102.899260755177,2.48154929491733,stable,stable,1,0.739683104849884,0.0859374571028537,0.0545040179183513,0.958972723542516,0.338892062219058
53,1.72611693327859,2.36665511131287,-0.144770780548272,-1.708156681373,1.72611693327859,-0.0484294588836768,-0.0208516025026704,0.0527276190880559,-0.00297445484024539,-0.154870241312124,0.154951580340648,0.00999285268209162,0.123658625122483,0.126136753896164,15.4578539099228,0.955460571207038,0.479724090002754,0.176544512766291,0.240224091825297,0.120774791962104,0.360439311831693,0.157639704967076,0.0355194012025016,NaN,NaN,NaN,NaN,1.76767167051157,-93.7767495596924,2.21687229250898,stable,stable,1,0.485525199653523,0.153787820223856,0.175250929122611,0.900451292707349,0.34632231468351
54,2.63874824992835,3,-0.544201525560166,-2.54986177861172,2.63874824992835,-0.0140332751153466,0.00533468659525835,0.015013050707056,-0.0253752837156856,-0.343552684534436,0.345472660450602,0.0223004011650691,0.197305052658262,0.199432516494835,15.4008114862302,1.70673384982574,1.43325042086453,0.0630472815860809,0.240386073760969,0.117951987738072,0.454051780864095,0.00188619690843388,0.0108642559100763,NaN,NaN,NaN,NaN,3,-101.106544404973,2.13631015269419,unstable,unstable,0,0.743552703279859,0.0840340363957493,0.0552093700872863,0.943805054222965,0.347576894338635
55,1.61196548552127,2.5897114276886,-0.157526861925144,-1.58383605034103,1.61196548552127,-0.0595704765796271,-0.0220818873061597,0.0635314994858915,-0.0041590654941435,-0.137437713857771,0.137623155110805,0.00887979441985391,0.168579318138649,0.170918985464931,15.3706975994429,1.09047671007096,0.931338790984969,0.176148274038355,0.240234823412004,0.134127479667747,0.441407243651759,0.155704995423773,0.0398261344367789,NaN,NaN,NaN,NaN,1.6954412846166,-94.4207914550518,2.04205510009777,stable,stable,1,0.464041259898657,0.231640278560064,0.222668618028665,0.89604016975824,0.340387786814335
56,1.6949834253477,2.37844157218933,-0.0952794790618206,-1.67565552610062,1.6949834253477,0.00399143431977183,0.00828376267088461,0.00919523093329329,-0.00210521368564851,-0.148219776948818,0.14831058663465,0.00957795582125022,0.140944439860387,0.142185853361099,15.3926133429497,2.09239336283218,1.91464753901445,0.0225151525256411,0.0542206390800877,0.134565132162362,0.403643695610182,0.000317382295896908,0.00531710332344728,NaN,NaN,NaN,NaN,1.73280982852964,-92.1431804697514,2.12435344906848,stable,stable,1,0.48043275076494,0.155463875377137,0.0953528761420759,0.957258530936956,0.340193274594506
57,1.61087366616404,2.46458125114441,-0.201418301631907,-1.58708488804318,1.61087366616404,-0.0416870108738006,-0.01430319648235,0.0440725345902079,-0.00406884196669733,-0.132431030718899,0.132572708179538,0.00855261887968998,0.104513611114305,0.106815991105385,15.3526884459168,1.08947648316005,0.736006899366276,0.17627462542603,0.240155666650549,0.119500635390587,0.39382377158259,0.159753885750027,0.0361903699659951,NaN,NaN,NaN,NaN,1.65239533729994,-95.8334835366937,2.12856893938642,stable,stable,1,0.450929509198154,0.200164171295455,0.204260364310374,0.897519603567135,0.346888606493073
58,1.62192008986666,2.28761982917786,-0.103130344451203,-1.60321133328231,1.62192008986666,-0.0484342803461419,-0.0180200623229498,0.0516778691392327,-0.0020869375947776,-0.137367035768338,0.137443422090497,0.0088660113432432,0.131995127084113,0.134214044591907,15.4195449143988,1.11048109021561,0.598309396248568,0.176941288851598,0.240250662439432,0.131180910106406,0.381101332857722,0.159179844580767,0.0345035298047164,NaN,NaN,NaN,NaN,1.68060545220575,-92.4282145747537,2.41293332071614,stable,stable,1,0.459354832882825,0.159256717353878,0.178847366114585,0.898103144609125,0.341697373286042
59,2.53393665085668,3,-0.515697570380685,-2.44387494533913,2.53393665085668,0.00764970515113183,0.00512713786088232,0.00920899188531219,-0.0239392573885102,-0.313243752344937,0.315154701528375,0.0203516040891835,0.218380853663299,0.220914029860186,15.3880356611146,2.0705476026465,1.97528042284318,0.0280704023817155,0.0508358063312925,0.144334641626081,0.408094408167982,0.0103911450380261,0.00536765619115506,NaN,NaN,NaN,NaN,2.78982386220964,-100.41262924442,1.89705651590872,stable,stable,1,0.719899246200486,0.106552568736221,0.0705017029039013,0.954176150037438,0.335851270388408
60,1.69642605974868,2.39435791969299,-0.0932570091338824,-1.68323149784157,1.69642605974868,-0.0340065049083791,-0.022554633776655,0.0408062970738909,-0.00166551534180857,-0.149665474395999,0.149704076622966,0.00965938455583292,0.120477725824382,0.122938241942999,15.3359041079348,1.16595870484381,0.922382343679963,0.177725479868367,0.240237337638838,0.144222225054629,0.432515504513623,0.15886239713498,0.0356477185747713,NaN,NaN,NaN,NaN,1.72864210057146,-91.9462754292346,1.96977688734502,stable,stable,1,0.476967930988247,0.164515822951018,0.182277810362842,0.89472886611313,0.335901233309054
61,1.59364350703922,2.36713647842407,-0.19952037909361,-1.55895264321951,1.59364350703922,-0.0604890380579962,-0.0353430307143557,0.0700575017057959,-0.00552534955821483,-0.132309647349167,0.132602614431974,0.00855359236860823,0.153455118036561,0.155563137073484,15.4298972471519,1.01014449587686,0.77161484906603,0.176507787446555,0.240201383439879,0.142093945547016,0.381727531416984,0.158621301156409,0.0358481855219486,NaN,NaN,NaN,NaN,1.6541677253945,-95.777639022521,1.5,stable,stable,1,0.456084229291823,0.18687979387432,0.19566193622027,0.897746568566457,0.336847135312437
62,2.60354855865938,3,-0.533865973846086,-2.51654726075972,2.60354855865938,0.00562099859359519,0.00403755227728088,0.00692079862306187,-0.0237003859408389,-0.33019498650829,0.331914047749893,0.0214324398854104,0.199104091058991,0.2017210895369,15.3513491096136,1.90108288344395,1.92671699687916,0.0215051430711809,0.0717538015454028,0.130833898915594,0.466648900400234,0.000190675172108397,0.00560789206769658,NaN,NaN,NaN,NaN,2.96888331606625,-100.576107342626,2.19071394092388,stable,stable,1,0.734623833549881,0.0904703873825346,0.0564062104296202,0.959171857976157,0.341851600481958
63,1.55810319491335,2.38634419441223,-0.0861347051973971,-1.54032771120244,1.55810319491335,-0.048286985857743,-0.0269231041270333,0.0552855002605651,-0.00161498292217631,-0.126713213406282,0.126778946613061,0.00817679136014981,0.123210924506623,0.125225290010319,15.4407683782666,0.909266815979799,0.700125833132845,0.175348232525587,0.240177268225168,0.151050951629058,0.448258727755888,0.155851032699302,0.0403356667638443,NaN,NaN,NaN,NaN,1.60300708299886,-92.1234906695166,1.53672746923264,stable,stable,1,0.44053924331229,0.196489899935019,0.201828580791998,0.899680655779893,0.332866243720419
64,2.63213962061065,3,-0.621945670326494,-2.52328178871379,2.63213962061065,-0.0206916221336432,0.00638386713853365,0.0216540293286012,-0.0289291552421576,-0.338288596516396,0.340747938188739,0.0219943570044871,0.20269569664594,0.204669298646542,15.406502767064,1.69969612618952,1.42894140814805,0.0623383165217468,0.240292726026429,0.125827409840235,0.415606435279442,0.00189717683880307,0.00928869431364747,NaN,NaN,NaN,NaN,3,-102.201792877698,2.11973591430402,unstable,unstable,0,0.742837758558814,0.0867384907395149,0.0562639911729882,0.944248689683617,0.344076706737673
65,1.49319497757667,2.32609915733337,-0.13652747010251,-1.46588829977115,1.49319497757667,-0.0530942789200469,-0.0248913558334861,0.0586394240189052,-0.00352164065367986,-0.117883975850438,0.118057058525623,0.00761539836156135,0.153123346513691,0.155089929006381,15.4421660113592,0.89154254421748,0.810711805872074,0.176613862678509,0.240187902365771,0.157105853378287,0.459840748676939,0.158226898515154,0.0374457645074557,NaN,NaN,NaN,NaN,1.55228808798252,-94.2268777224065,2.26685867983966,stable,stable,1,0.429203313155054,0.198154001515391,0.202832108555045,0.898318213052899,0.330175176276317
66,1.58918027415323,2.39119935035706,-0.138350526802477,-1.56120469429,1.58918027415323,0.00360518970987727,0.00780288640087012,0.00859548887667763,-0.00369555901082157,-0.131276313405804,0.13146263694996,0.0084877163773253,0.162890390278252,0.163951956465109,15.392041374113,1.84899212034104,1.80897205118319,0.022198914108935,0.0642791802335096,0.122859479121611,0.431393568679017,0.000492231237760411,0.00700200679545986,NaN,NaN,NaN,NaN,1.60696450398557,-93.5145725727472,2.14125986951725,stable,stable,1,0.456571797733884,0.182030131773251,0.111983032792213,0.960159395883556,0.345395787057062
67,1.64569621754659,2.68576693534851,-0.115992221359251,-1.61847377124972,1.64569621754659,-0.0611895318011783,-0.0333778930340868,0.0697010942915701,-0.00302491328059075,-0.143609750561774,0.143782883359302,0.00927517099645569,0.173870446302247,0.176180407311129,15.4163718659741,1.08885847777547,0.760778777310476,0.177400738716265,0.240236917639871,0.144390172856985,0.364569669024858,0.1555091851459,0.039987161623673,NaN,NaN,NaN,NaN,1.70472744872138,-93.0615211949791,1.80728956332608,stable,stable,1,0.474088406141317,0.246794445458886,0.231732646718482,0.896766766494764,0.33582658984134
68,1.60104638579729,2.13072228431702,-0.139141041578062,-1.58430272100616,1.60104638579729,-0.0400619965002042,-0.0227041491313446,0.0460482567678811,-0.00253346305825736,-0.133165077828552,0.133229928529801,0.0085956658075532,0.104160555637995,0.106366430983347,15.390099617217,1.15619996469778,0.752959972522398,0.176450158552811,0.240196872299248,0.149772307231304,0.378119953215734,0.15732103704147,0.0412561496799017,NaN,NaN,NaN,NaN,1.6346567991892,-94.1375227104005,1.94887243880589,stable,stable,1,0.448218989075948,0.127619257574382,0.161494251699187,0.896774378359722,0.33343453011942
69,2.61694773503371,3,-0.401189037317836,-2.55548836615408,2.61694773503371,0.00321706565065812,0.00135002693521489,0.00348885140504007,-0.0163991981212757,-0.339734254745806,0.340644838771272,0.0219958015140842,0.192917221492877,0.195662432629293,15.4080316820169,1.98440805764044,1.79538462213113,0.022151043582864,0.0531154031363628,0.141927651312178,0.425627944836842,0.000607515947814024,0.00572410531186957,NaN,NaN,NaN,NaN,2.97762147861884,-97.4745863886534,2.1539327386186,stable,stable,1,0.73698521586818,0.086826382375007,0.0544473293536014,0.95922610715322,0.336921043861254
70,1.70079677733215,2.47894191741943,-0.0817775655836056,-1.68170318360547,1.70079677733215,-0.0504947930046174,-0.0266683370224051,0.0571045035012103,-0.00177495891751588,-0.150026439055235,0.150108279514922,0.00968286401309839,0.1372575128791,0.139873180497144,15.4347902982072,0.926921517038027,0.824089699498282,0.177216515814784,0.240230138900601,0.158818127452136,0.39014000512295,0.158353565037176,0.0367973903298094,NaN,NaN,NaN,NaN,1.74106956136438,-91.9626622500687,2.48556884301812,stable,stable,1,0.481520443388002,0.18555181549486,0.195091320746501,0.897633796819823,0.329414165576829
71,1.6223421052501,2.51853728294373,-0.207347503037057,-1.58719484515657,1.6223421052501,-0.0634589210487686,-0.0304004138670949,0.0703649047747846,-0.00591183772320904,-0.138120626397692,0.138438772697476,0.00892852128588202,0.168359004902248,0.17048129774271,15.44451454636,0.837612744469447,0.613831821981344,0.175997859179721,0.24023348614248,0.115444022821982,0.398008622813502,0.158578418341074,0.0352864267632244,NaN,NaN,NaN,NaN,1.67774962146967,-95.9395937551425,2.36734584604885,stable,stable,1,0.466720820948569,0.214544147523109,0.212037213468243,0.900596863102312,0.348691545412452
72,2.50279222291484,3,-0.529819665852012,-2.41660806529557,2.50279222291484,0.00183608428980613,0.0136501871583531,0.013773119290028,-0.0231746974404891,-0.319765803986042,0.321557361888414,0.0207470746408558,0.191830530940963,0.194036861421945,15.4508930655677,1.08931790267304,1.12635134614918,0.0272376367777737,0.0764032084445904,0.323567366313179,0.673573101115202,0.0124599298335189,0.0162448631012395,NaN,NaN,NaN,NaN,3,-102.28205700878,2.23036727128341,stable,stable,1,0.706218631728347,0.114396821713999,0.0800830625669798,0.968972351798939,0.256192281638587
73,1.64247065258993,2.48508095741272,-0.174893145653836,-1.60886880083497,1.64247065258993,-0.0595745268321053,-0.0249885124696491,0.0646030185263432,-0.00519378735627975,-0.141476618708462,0.141765544523995,0.00914268671659712,0.169649472603887,0.171947042308829,15.4532525415925,0.88691629623838,0.540451999803288,0.176196798037481,0.240222257510664,0.101238861280765,0.366441006491077,0.159358977823145,0.0379497886773102,NaN,NaN,NaN,NaN,1.730743683828,-94.7490683234343,1.61379107227297,stable,stable,1,0.472381582485746,0.201431205314958,0.205484858710203,0.900686564369504,0.355004950541882
74,2.60840157943743,3,-0.540997950278865,-2.51867243938605,2.60840157943743,-0.00785727977971053,0.0103263253252042,0.0129757404512652,-0.0262407924502119,-0.335903746078925,0.337971333373058,0.0218238183752061,0.198826515629073,0.200838987641811,15.3752183766066,1.90890714179247,1.58533484506338,0.0631072254960597,0.240481834995104,0.147772378597364,0.406686699238205,0.00192824142201875,0.00860431511531523,NaN,NaN,NaN,NaN,3,-101.440236798872,2.39848772510824,unstable,unstable,0,0.735741552045011,0.0904885303759763,0.0582789562732643,0.940991628783817,0.33432338729006
75,1.70093753611719,2.39093852043152,-0.185119875851497,-1.6805397789149,1.70093753611719,-0.0382095510940588,-0.0238015550221752,0.0450164838285169,-0.0036083377112506,-0.148467987841409,0.148578577303036,0.00958398201314525,0.107701249291633,0.110130337157209,15.4169717840185,0.984258859714344,0.755238828706028,0.176358122903038,0.240181464082222,0.117881804911501,0.413644387946942,0.158471577917752,0.0365837463480449,NaN,NaN,NaN,NaN,1.72844746755899,-95.0560971705178,1.7581569796655,stable,stable,1,0.475609410396026,0.163503243505951,0.181836939001659,0.898153456710892,0.347608086706
76,1.76756775698136,2.39834451675415,-0.224858946716742,-1.74236726869499,1.76756775698136,0.00353936641357092,0.00169129287769617,0.00392270139159989,-0.00469670917839259,-0.15863532366236,0.15878671279012,0.0102538908471217,0.118763163477495,0.120037958185436,15.3570442231514,2.05476790190426,1.91502517676365,0.0297074556842221,0.0638147422255126,0.126417319610906,0.466115342826019,0.0243220277902417,0.00759548978371124,NaN,NaN,NaN,NaN,1.80133462105751,-96.2777836497926,1.58518763272885,stable,stable,1,0.495358993498782,0.142643932870672,0.0991581461363855,0.953955040825498,0.343814524617375
77,1.69785954488204,2.54585886001587,-0.144140482047062,-1.68100316424855,1.69785954488204,-0.0424735631024193,-0.0112411729630636,0.0439359480630691,-0.00264576336908933,-0.15013642016304,0.150202574992911,0.00968845317304813,0.127735685975288,0.130120102855532,15.4184746456595,1.00385340308323,0.651626259287427,0.175948697070354,0.240186416175154,0.132802088523253,0.369059593563509,0.155518715714019,0.0403653900694009,NaN,NaN,NaN,NaN,1.75923009576763,-93.8331549635916,2.36143728011176,stable,stable,1,0.478786565872983,0.198854769716675,0.203110614697836,0.899018311260482,0.340976849545221
78,1.78184258137773,2.37428283691406,-0.19231837676084,-1.7614012308675,1.78184258137773,-0.0419074353790113,-0.0186132735221273,0.0458550661460163,-0.00382198868910724,-0.163976781670071,0.164077088107727,0.0105818637537629,0.125779168992185,0.128501285243652,15.4663696039608,0.810170240386963,0.639297738846685,0.176031073178902,0.240209645168765,0.12977265209166,0.406456581814917,0.156102523613941,0.0409419106530326,NaN,NaN,NaN,NaN,1.84421771642335,-95.6415120879709,1.57416611576827,stable,stable,1,0.500858278749459,0.141705819622444,0.169290358667634,0.900595786430856,0.34232326573704
79,2.63210784192867,3,-0.417259497249203,-2.56189189793279,2.63210784192867,0.00752967401036053,0.00269890227203245,0.0079987539139719,-0.0184966021996103,-0.341205506329903,0.342361476652736,0.0221046282314969,0.200188324144045,0.202872997005855,15.4032632672053,1.7568645924293,1.87674049937349,0.0287121532944965,0.0573328434837058,0.125442950253569,0.442843900956812,0.0230980994673893,0.00637165047463234,NaN,NaN,NaN,NaN,3,-97.5958361626102,1.5,stable,stable,1,0.742470023915482,0.0842421737836114,0.0631280900646304,0.957094169060016,0.34424757766508
80,1.79724307841546,2.81145715713501,-0.232056224018917,-1.75751733912223,1.79724307841546,-0.0655321996048868,-0.0190292313330268,0.0682391444127238,-0.00728826529596735,-0.168723251962049,0.169149680568386,0.0109125380919278,0.180567694186474,0.183244861375779,15.3851330893736,1.16846674764877,0.879492545597917,0.177809470540139,0.240285769131187,0.166045433853411,0.396263929178997,0.158662422073324,0.0366687473097938,NaN,NaN,NaN,NaN,1.84269174465958,-96.4089816842801,1.74045359419707,stable,stable,1,0.515913793185945,0.240708677520898,0.228275928475962,0.895004155997278,0.326202029398484
81,1.85781220781723,2.66299915313721,-0.205849861158122,-1.83364941566971,1.85781220781723,-0.0516211171084532,-0.0291836743568318,0.0592994652631054,-0.00459311160489368,-0.177347763864795,0.177489679453658,0.0114490560589767,0.122147324273417,0.125052527514699,15.4421710888135,1.04103574215921,0.731815001621814,0.17489817891073,0.240225133318074,0.150848116532564,0.422165108995283,0.156192431872995,0.0399064521446469,NaN,NaN,NaN,NaN,1.90149022471625,-95.3637271300002,2.03514752282404,stable,stable,1,0.520427094254202,0.192038631328564,0.199153474550866,0.898621368986356,0.332956392652194
82,2.58146967218074,3,-0.402214658433256,-2.51634697253072,2.58146967218074,0.00243387004494326,0.00725715728710793,0.00765441410465202,-0.0171833981905487,-0.330361843243484,0.33136120086459,0.0213917144094671,0.200868799612772,0.203556715799301,15.3970139850346,1.86164622862833,1.70673892192839,0.0288652853568823,0.0546776339741704,0.122455736696002,0.441068634393287,0.0220656262645558,0.00721122853744012,NaN,NaN,NaN,NaN,2.91783086718893,-97.7855854258006,1.58353839452944,stable,stable,1,0.72910325574139,0.0955726330118537,0.0697727897362869,0.957530045424328,0.34557522813511
83,1.67449036884952,2.35669136047363,-0.297500711525689,-1.63440172842135,1.67449036884952,-0.0486014541782511,-0.0149431091061194,0.0508468077463869,-0.00714096927704913,-0.141063482271781,0.141417004144683,0.00912208018823809,0.119632339232964,0.121919821517657,15.4204010248339,0.998819381068593,0.825535362929374,0.17649678668059,0.240189854985997,0.154374761411859,0.453761756104752,0.1579450906149,0.0348151072545042,NaN,NaN,NaN,NaN,1.75027764965131,-99.5200046041142,2.33990263113007,stable,stable,1,0.470914729330071,0.162817137868929,0.180548139774062,0.897417390814006,0.331388994928063
84,2.66771781762827,3,-0.453729010372271,-2.59321274213114,2.66771781762827,-0.0305690786300887,-0.0118182925192386,0.0327740843710825,-0.0180017831920856,-0.344144508424783,0.345214273500715,0.0222865202219177,0.20658684314745,0.208729630612924,15.3894478972238,1.88350646051427,1.47405483259579,0.0636448544802576,0.240406697357453,0.132426818050828,0.42923787459654,0.00184390295643977,0.0086837641764886,NaN,NaN,NaN,NaN,2.95681470906161,-98.270421652992,1.70298813989841,unstable,unstable,0,0.753137344156789,0.0807720731683382,0.0524404887539013,0.941796734028292,0.341143636421854
85,2.01487359424565,2.75280857086182,-0.427433790237527,-1.95554118574532,2.01487359424565,-0.0547328050122933,-0.0188536797269382,0.0578890420007076,-0.0126482065985839,-0.201458831877693,0.202121114700076,0.0130354300333054,0.132821664194483,0.136170094726077,15.4596838281741,0.974469922990804,0.598508467259844,0.176307551746361,0.240290888643279,0.153983565074167,0.422772763858102,0.155493054521178,0.0400044758570128,NaN,NaN,NaN,NaN,2.10680641889481,-101.731697741666,1.71687186524366,stable,stable,1,0.56453364407739,0.176648360772099,0.189644122824717,0.899487108203421,0.331562859967037
86,1.98492018713999,2.89329695701599,-0.550665410447364,-1.89290573071574,1.98492018713999,0.00560390754045083,0.00353006926663617,0.00662307849486709,-0.0189273567375883,-0.187717741105762,0.189206774695942,0.0122179260640379,0.144388827814631,0.145900689704064,15.3910108228075,1.88263860315077,2.08739466311753,0.024372831707444,0.0527526648781924,0.140163545927291,0.433960928961163,0.00198408050039476,0.00649174819914847,NaN,NaN,NaN,NaN,2.01104491577433,-105.279667622794,2.09263182104555,stable,stable,1,0.55849218784481,0.205599004279493,0.126601851832208,0.956620465625598,0.337705090698982
87,2.01517766955737,2.7931489944458,-1.15549939004653,-1.63502766049478,2.01517766955737,-0.056242278654628,0.00486676354951064,0.0564524516359712,-0.072437948460886,-0.141122375989533,0.161757347037604,0.0104346298526661,0.138164617433453,0.140803757996635,15.4020338263175,1.01964186204661,1.06374133057654,0.176937659540269,0.24026651131524,0.161364653658074,0.464705730745827,0.15915076067004,0.0344903078992971,NaN,NaN,NaN,NaN,2.06469467336038,-124.238920485483,1.52116226634945,stable,stable,1,0.565541463481291,0.185393164233159,0.194511500094001,0.895161730859255,0.328282376151967
88,1.9403812655726,2.95643973350525,-1.09319964776294,-1.56611009197853,1.9403812655726,-0.0853057467524757,0.0174885790876552,0.0870799680035695,-0.0707551575198504,-0.135758594543313,0.159822382267589,0.0103088135785933,0.206302452099486,0.208836751337299,15.3996505601808,0.896019299516531,0.963584607287242,0.176658967260096,0.240290152665267,0.140468017560642,0.53505548221893,0.156675999340693,0.041929803762347,NaN,NaN,NaN,NaN,2.00959748573364,-123.70580417537,1.5,stable,stable,1,0.559202354420153,0.244577816085501,0.231627668504179,0.897059342816494,0.337569769973048
89,2.6219623308118,3,-0.250654374434701,-2.57784234795753,2.6219623308118,0.00746736250623261,0.00512217010015431,0.00905528184732001,-0.00975787812797994,-0.345754623257802,0.346189072410828,0.022355151857604,0.19926202604988,0.202025323212516,15.3760732512886,2.13116766308111,1.7870517016571,0.0294236997811391,0.0585987660987122,0.137239511361001,0.444415692140957,0.0239450714056335,0.00992214385463108,NaN,NaN,NaN,NaN,3,-94.0907171926139,1.53223703720007,stable,stable,1,0.739595019525649,0.0867186105726877,0.0662814726124469,0.954502140815059,0.339004661617333
90,1.94600615066451,2.91343593597412,-1.07175826623158,-1.59235568379171,1.94600615066451,-0.0830918809259988,0.00496406845818819,0.0832400303428461,-0.0676273775057771,-0.13903235588389,0.160321815845104,0.0103393313127229,0.199537354237865,0.202080707377069,15.4429749424699,0.947717828257927,0.743499773758969,0.176514184312019,0.240257650915556,0.157458849085537,0.373265875024059,0.157167604877725,0.0353809985315228,NaN,NaN,NaN,NaN,1.99637079272466,-122.311062912018,2.31017753605351,stable,stable,1,0.55935111498595,0.232932373924184,0.222477510836881,0.898454769542429,0.330018289295317
91,1.88595140060863,2.63436913490295,-1.13053519681353,-1.48470839802338,1.88595140060863,-0.0630667089232278,0.0143793981369057,0.0646852136518601,-0.0714183384302061,-0.118540961040678,0.143350319642841,0.00924744012243237,0.152500674740125,0.154839588463389,15.4076006158082,1.023922006729,1.0265113903739,0.176555073178689,0.240262889217353,0.14733401882999,0.507017698333008,0.157205270037472,0.0413333824971611,NaN,NaN,NaN,NaN,1.94546366280019,-126.251978914843,1.57448114915101,stable,stable,1,0.533888291188312,0.180252946052397,0.19305109744504,0.895611915290561,0.334518213853338
92,2.61932512150959,3,-0.470821903889934,-2.54394658666102,2.61932512150959,0.00549287877711544,0.00435543313637143,0.00701010093119118,-0.0204097165635306,-0.336301459828829,0.337615497114836,0.0218117452676796,0.196125615579158,0.198901602470434,15.363174770227,2.30161989613533,2.14928058948545,0.0177684812829463,0.0705041162345247,0.148712969729273,0.507335949231296,0.000376389827159414,0.00806514144383209,NaN,NaN,NaN,NaN,3,-99.2513675644137,2.34293080920317,stable,stable,1,0.738267019563311,0.0869370328310606,0.0552622827731108,0.956144398400078,0.33390534678699
93,1.69281769118853,2.37337064743042,-1.03199908712539,-1.32758996536035,1.69281769118853,-0.0594010810870239,-0.00192139683165525,0.0594321478670583,-0.0582929428609737,-0.0938025642344293,0.112912150348056,0.0072815925325171,0.119674230694025,0.121389257569738,15.4733005295691,0.717585865882876,0.807142326544021,0.17563980812389,0.240185221269476,0.133990999585104,0.367744534034157,0.156974860492818,0.0385900590757237,NaN,NaN,NaN,NaN,1.74681180591764,-126.657123786368,2.39957496421656,stable,stable,1,0.475695902497556,0.164020308930052,0.182211538776315,0.900200088711844,0.340448444628843
94,2.62493900681885,3,-0.252986197323325,-2.58206959261421,2.62493900681885,-0.0187060492740939,0.00658851830219097,0.0198324192387902,-0.00986935899641271,-0.353608484786919,0.354049033936907,0.0228508955028744,0.198863936100335,0.201017604870678,15.3985830334482,1.67289486046789,1.20963588637066,0.0790694626044667,0.240458634848138,0.118573495171761,0.463652744845018,0.0651859686253768,0.0865470584965414,NaN,NaN,NaN,NaN,3,-94.2734617915732,1.7793025280732,unstable,unstable,0,0.740187256125829,0.0880246669928698,0.113257999442106,0.937816812829749,0.347300668812551
95,1.660122317738,2.78214168548584,-1.05807847351752,-1.24684928567169,1.660122317738,-0.0542869925869669,0.0072713433739996,0.0547717993003699,-0.0706043604026579,-0.0950622320294173,0.124926427394789,0.00805705458968766,0.194670893146102,0.195792529119346,15.4264560647496,0.571154798302303,0.953838460550246,0.171936768946908,0.242746305751303,0.250210459003387,0.521790954736766,0.152998256377427,0.00486776486264959,NaN,NaN,NaN,NaN,1.86493072097439,-128.583435678336,1.70788812848535,stable,stable,1,0.481857790554003,0.262495854281664,0.227266833939324,0.902049525635562,0.28879535155405
96,1.72030496457747,2.54163789749146,-1.0594582897431,-1.32383148198632,1.72030496457747,0.0061755326912118,0.000594708900598052,0.00620410208625521,-0.0645640922783493,-0.0960646927062533,0.121566698175771,0.00784886249925131,0.183018052788938,0.18394452356692,15.3687756705331,1.94946234577924,1.91389076225736,0.0301632783953795,0.0736146395398889,0.124964278091351,0.482152518523444,0.0219121357829848,0.00540966482948464,NaN,NaN,NaN,NaN,1.76269102467469,-127.19753908103,1.60952393158884,stable,stable,1,0.495536895267377,0.185937328621459,0.123268275034621,0.95456344352488,0.344460320848289
97,1.7453926676834,2.71067667007446,-1.077397319146,-1.34157077004482,1.7453926676834,-0.0736530308583265,0.0131891286556531,0.0748246087147334,-0.0666969532853158,-0.0994710742639119,0.125767449383729,0.00811291583324799,0.174049863580045,0.175944237028407,15.400631868335,0.98208739477259,1.05621313882148,0.177297593566882,0.240245640726312,0.168439013004307,0.429581381495421,0.157456247156608,0.0367947234645988,NaN,NaN,NaN,NaN,1.81622668042125,-127.513201967813,1.70487576571504,stable,stable,1,0.500626892121253,0.230906745469025,0.221904501014913,0.89533598473832,0.32513821644253
98,1.85130881538262,2.5475435256958,-1.17283364379206,-1.41801102539726,1.85130881538262,-0.0474763757325405,0.00842657853244284,0.0482183935698898,-0.0744658970127186,-0.107006030649783,0.133237955081984,0.00859305892338499,0.118747775225443,0.120857532699605,15.4627140929653,0.810288205025794,0.881078811939378,0.176173882171926,0.240231593406143,0.173954480372317,0.443982630961637,0.15894481910211,0.0374978408734226,NaN,NaN,NaN,NaN,1.91962505408224,-128.853168090004,1.5959821074104,stable,stable,1,0.51785385730862,0.165492848641612,0.183573429507553,0.898623746637882,0.322686897612304
99,2.6079091184514,3,-0.154283660820691,-2.5708849478284,2.6079091184514,0.00500454597595036,0.0075563793614572,0.00906335200020706,-0.00553910856447882,-0.344036358822745,0.344304279657135,0.0222342384259051,0.199590846983853,0.202400435608473,15.3632677625503,2.06683331486147,1.91291116903807,0.0160357809065499,0.0690730053009803,0.132244686794477,0.483472485424972,9.8373196257407e-05,0.00617370019879073,NaN,NaN,NaN,NaN,3,-92.2002194325483,2.40910516238499,stable,stable,1,0.735922518708735,0.0898820628818058,0.0562179410401117,0.9607126886018,0.341224583646899
100,1.63734266041098,2.47649002075195,-1.03806242594894,-1.23402536298823,1.63734266041098,-0.0657320765995234,0.0106139509414011,0.0665834953173238,-0.0621228885579585,-0.0844564564683466,0.110712578390934,0.00714140456460715,0.166356878929191,0.168159373937881,15.4333104225767,0.965881077096407,0.883815867641934,0.175768108702177,0.240194092476828,0.161924397408697,0.335674250503127,0.158093681706606,0.0378050766836758,NaN,NaN,NaN,NaN,1.68546986904653,-128.540481584722,1.57398023615447,stable,stable,1,0.470256584230505,0.201015130218227,0.204620237279452,0.897582612511681,0.32803360115169
101,1.65796585904585,2.31208467483521,-1.06879234519098,-1.25204480994068,1.65796585904585,-0.0394087827818308,0.0164151133579366,0.0426908433613045,-0.0614840126780887,-0.0834909791344467,0.106443879197073,0.00686640057832834,0.114567546585123,0.11632553763803,15.4314602046231,0.78019178406867,1.05300578539272,0.175959462329206,0.240189317920782,0.17441441235333,0.442239306714653,0.158642046116149,0.0361165741733223,NaN,NaN,NaN,NaN,1.69807149429304,-129.55767099295,2.19372716741057,stable,stable,1,0.4653893366065,0.155003388168843,0.176642908652317,0.897616573646772,0.32248248339852
102,2.63569706817933,3,-0.139274854532496,-2.59895053517614,2.63569706817933,0.00579843838008958,0.00672937522578957,0.00888292623954327,-0.00498809732886088,-0.350871008195721,0.351150516146807,0.0226722601491139,0.19464946854688,0.197616993156011,15.4049780688231,1.97687537202458,1.81009630560036,0.0293195195050453,0.0634250599053205,0.133646575722258,0.500231772922958,0.0225906782209134,0.00573675266301809,NaN,NaN,NaN,NaN,3,-91.8482151525671,1.61343431204854,stable,stable,1,0.742375950145691,0.0835966961369,0.0622844109911182,0.955585462780424,0.340601521901219
103,1.67074786489074,2.50508332252502,-1.06653437130345,-1.26519136396887,1.67074786489074,-0.0623871889844609,0.00246536333081398,0.0624358820369807,-0.0627849111774893,-0.0863736062306118,0.110596484112035,0.00713437745894518,0.132186697836439,0.133968486112627,15.3806389525929,0.913761379082746,1.07447995591256,0.176758808601109,0.240171404734038,0.15435814059509,0.461436558397689,0.159425676753316,0.0337654364937953,NaN,NaN,NaN,NaN,1.75398132014352,-128.600052606655,1.94515530026386,stable,stable,1,0.47232646119339,0.19917205634116,0.202637430682701,0.895998699495911,0.331396381957738
104,2.66868779804648,3,-0.343424124779645,-2.61244392702415,2.66868779804648,-0.0229537933079952,-0.0146937661921815,0.0272540527653533,-0.0135298156060668,-0.348220693364641,0.348926193388147,0.0225250067544065,0.203540688798377,0.205599539404425,15.3934106962855,1.83996883226048,1.38330343928095,0.0631907057027806,0.240400377568239,0.136363573799956,0.445290528631642,0.00191283539304461,0.0087374128534377,NaN,NaN,NaN,NaN,3,-96.2939600424606,1.5,unstable,unstable,0,0.752769987359947,0.0795418217798558,0.0517524831691026,0.943078936443641,0.33939396720002
105,1.73793034456872,2.44882917404175,-1.10627964466761,-1.32465472074987,1.73793034456872,-0.0492336142888014,0.0040639195030825,0.0494010548234144,-0.0667792719681649,-0.0942780288488307,0.118482239971691,0.00764217417283591,0.127408384166622,0.129253759603127,15.4289579892787,0.895016340922051,0.991776727005494,0.176655359294553,0.240214455325723,0.147808694032301,0.470669460925145,0.156722475330261,0.0405467030948062,NaN,NaN,NaN,NaN,1.78074250763471,-129.221424924807,2.15750598323088,stable,stable,1,0.489298843805617,0.169009096682391,0.18580414716039,0.89684751767615,0.334307247096755
106,1.8481810332142,2.76465606689453,-1.07132744936629,-1.48941594867282,1.8481810332142,0.00603297934517426,0.00556494921489516,0.00820764884383229,-0.0624145996708956,-0.11691212341238,0.135399935715595,0.0087447881662481,0.134521632536896,0.135624465103963,15.3486195174823,2.06426360924556,2.08236233842724,0.0285687466020364,0.0581545831862853,0.137632792585228,0.452082548960209,0.0169418790307431,0.0085404158461786,NaN,NaN,NaN,NaN,1.88415857146299,-124.959215831678,1.80381143915354,stable,stable,1,0.519973168544579,0.207711618199444,0.135262300695577,0.953134994252981,0.338829869962121
107,1.67658021946081,2.47882437705994,-1.01493024449272,-1.32166504703231,1.67658021946081,-0.0440106335111008,0.00357495923360044,0.0441555907623297,-0.0561062623595219,-0.0927293385187009,0.110540225424898,0.00712938750889719,0.119803970692763,0.121699038087718,15.4545441546332,0.871753813939437,0.627593363671462,0.175692419729547,0.240179858991026,0.143025689299069,0.374445400587577,0.155682586831221,0.0408504289664339,NaN,NaN,NaN,NaN,1.72726488943798,-126.550224489005,2.43233973223762,stable,stable,1,0.471427866140427,0.188600127099563,0.197207038515953,0.900373205168284,0.336433026978192
108,1.65524606776718,2.47187948226929,-1.00640402074913,-1.29392793465255,1.65524606776718,-0.0605086620576461,0.00740124628357413,0.0609596311550237,-0.0569155596478077,-0.0910273392229431,0.110856170122271,0.00715011129143852,0.140867613307408,0.142515310666036,15.4301624255641,0.854156068798889,0.917434463638335,0.174786119495291,0.240208451735339,0.125603584202692,0.451191146539179,0.156310431754409,0.0408286261085968,NaN,NaN,NaN,NaN,1.72684939224008,-126.925173742408,2.4053237197625,stable,stable,1,0.469902013537787,0.194918450641396,0.201269146517196,0.898687300354633,0.344176184798804
109,2.61837010399554,3,-0.301343254427894,-2.56751848783011,2.61837010399554,0.00930030371095918,0.00947993508319611,0.013280241650576,-0.0125151458684942,-0.342844403773025,0.343445901669926,0.0221766815714275,0.199558137804843,0.202359633527178,15.4057953725183,2.042182177991,1.80172741150672,0.0280837721494761,0.0523398168965812,0.135783877020763,0.496206530794201,0.0209679685519085,0.00505363489302005,NaN,NaN,NaN,NaN,3,-95.4171668207032,1.59205521337745,stable,stable,1,0.738703954437579,0.0883014375702765,0.0641376450919911,0.955755967150637,0.339651610212994
110,1.59914605809538,2.18352389335632,-0.933754587525244,-1.28478947648774,1.59914605809538,-0.0492849397830411,0.0066493986241967,0.0497314768680908,-0.0473518608480493,-0.0875242015533872,0.101687600213224,0.00655850263839389,0.113340622738258,0.114992122291515,15.458392781921,0.883248866527551,0.803029596516714,0.175229587245015,0.240191049745768,0.140431176189627,0.402041866631853,0.156640360692733,0.0406455185807115,NaN,NaN,NaN,NaN,1.65985778043302,-125.136897277648,2.15419690813306,stable,stable,1,0.449437373283738,0.140602450359529,0.168759596876181,0.89913587559643,0.337586143915722
111,1.55339263269565,2.03296375274658,-0.93503862318606,-1.22771083860806,1.55339263269565,-0.0431475346908767,0.0135548033632475,0.0452265679011431,-0.0473420554760495,-0.0800156929015577,0.0949918589064693,0.0061264138612869,0.10533741266603,0.106854894797834,15.4650123810191,0.791135721355823,0.782182827817064,0.175795856958809,0.240177158480185,0.151031829359535,0.439094047908285,0.156336187634085,0.0405458461791054,NaN,NaN,NaN,NaN,1.59306398738573,-126.486183134521,2.01663984893342,stable,stable,1,0.435609014345074,0.116195039460002,0.153943717800724,0.899740282919951,0.332874742506873
112,2.62798439818481,3,-0.229606691476633,-2.58602730772722,2.62798439818481,0.00475766219158715,0.00687060193965719,0.00835706411022908,-0.008610237678042,-0.347708282898549,0.348092643478219,0.0224764491160413,0.195922554632407,0.1987544322671,15.4092490856069,1.86418366451504,1.98492950727307,0.0144917788568609,0.0446025029123654,0.132694050469628,0.429041477398208,0.000542236504712214,0.00794619409922331,NaN,NaN,NaN,NaN,3,-94.1056534981467,2.46875359140982,stable,stable,1,0.74054672596937,0.0852356388286261,0.0542719024262603,0.96251107850752,0.341024866457943
113,1.7354314883013,2.50821280479431,-1.0169395435342,-1.3858671510166,1.7354314883013,-0.0551264614041216,0.010246363313303,0.0560706225049117,-0.0574311592161715,-0.103405408551875,0.121873675402945,0.00786172333925274,0.138440481317976,0.140389216813531,15.4085270211481,1.00638546448107,0.985955586479518,0.17567197096504,0.240244328155091,0.145382886451381,0.415478170234013,0.159714056846573,0.0355940201390273,NaN,NaN,NaN,NaN,1.77528590773906,-124.910768203071,1.87914271570172,stable,stable,1,0.490859573576387,0.184155410336827,0.194420551517795,0.896509906259933,0.335385383799386
114,2.67679263147414,3,-0.421467908616825,-2.61053861619447,2.67679263147414,-0.0246880149108943,-0.0127292868847225,0.027776479705573,-0.0161760513498777,-0.349031101586847,0.349930652800545,0.0225903485343435,0.201319842560879,0.20340003037617,15.4047537472707,1.74407646079134,1.56657332658494,0.0635217545321852,0.240256781341483,0.130461547110051,0.437868483044232,0.00191185543616452,0.00965214786213768,NaN,NaN,NaN,NaN,2.9979851142919,-97.9705526263991,1.8186835625084,unstable,unstable,0,0.754491374468339,0.0778140125310059,0.051047992995656,0.942226874404522,0.342017090173311
115,1.85007608656915,2.65493178367615,-1.05832829022873,-1.49422112169693,1.85007608656915,-0.0688110255845716,0.019435173143491,0.071503029286304,-0.0626036777718674,-0.120090651439077,0.139519874044147,0.0089991229183691,0.148392737231669,0.150634581403388,15.4208935870399,0.960373841542832,0.93974885245791,0.176095184540392,0.240307803781803,0.171771382802552,0.427650093914265,0.154902954720914,0.0402264699920305,NaN,NaN,NaN,NaN,1.89315516909655,-124.179562229341,1.98245023010932,stable,stable,1,0.523480539365785,0.194201420551563,0.199994417254507,0.897022872276941,0.323657163198866
116,1.65536703772369,2.3594663143158,-1.00663600575723,-1.3001110562651,1.65536703772369,0.00433457438988934,-0.00108508831168141,0.00446832762738277,-0.0546123418055994,-0.0890016260444721,0.106789002353889,0.00689665345061812,0.115065642256134,0.115923383711878,15.3400624794015,2.02284162645214,2.0997416824964,0.0283755386055758,0.0610773783378373,0.148064814371169,0.500642164629246,0.0223304565815473,0.00633882480804427,NaN,NaN,NaN,NaN,1.69700248239393,-126.66944677606,1.54973004717885,stable,stable,1,0.464615886802027,0.159241530631576,0.107774592951448,0.953420504698331,0.334193415835036
117,1.64713455485059,2.47624158859253,-0.97454745585214,-1.30702713377518,1.64713455485059,-0.0593236360448167,0.0257716819622367,0.0646797757010687,-0.0528960299682436,-0.0912642554789598,0.108936158900123,0.00702636236353798,0.132091552089039,0.133822918320786,15.428295596714,0.828044171553693,0.943560387175526,0.182194769582661,0.240204442388937,0.150429527121567,0.474829865985249,0.123435388011023,0.00498287009419254,NaN,NaN,NaN,NaN,1.6721231422542,-125.43586516234,1.57086113342533,stable,stable,1,0.466000464957648,0.198407041470465,0.175716350093147,0.894982865104368,0.333142432390415
118,1.61240701457506,2.52228426933289,-0.991515800016233,-1.24975849310324,1.61240701457506,-0.0542531700256462,0.0110912569965643,0.0553752872642257,-0.059733701525808,-0.0920808534056809,0.113745850578041,0.00733512094891228,0.155624794628679,0.156562948790578,15.4683045358293,0.564703491800607,0.796688126129122,0.167736865248608,0.242415167631896,0.241689661454302,0.457830143043389,0.130197135375816,0.00494130736329969,NaN,NaN,NaN,NaN,1.78141492798702,-127.597402747289,2.31163361957844,stable,stable,1,0.461287793644797,0.214874518318953,0.188586943532935,0.905434918949105,0.292582372686977
119,2.55863158160627,3,-0.364261447477636,-2.50149458328154,2.55863158160627,0.00503335884367307,0.00529436669083622,0.00730513654261287,-0.0150083411490522,-0.327414249585325,0.328222850947614,0.0212016111034387,0.208090296919905,0.210675681515553,15.3652064993254,2.21064694333334,2.06725562007841,0.0290726491417421,0.0708940157894853,0.144000465206334,0.467270689093226,0.0225526278023501,0.00724921072999506,NaN,NaN,NaN,NaN,2.88139783872518,-96.8469577847742,1.70560598661798,stable,stable,1,0.724436891398117,0.100647169171401,0.0730477682663072,0.951851583859465,0.335999793241629
120,1.73027132821563,2.35274457931519,-1.02939789727065,-1.3771045288817,1.73027132821563,-0.0468009728414566,0.0134647611181378,0.0486993927156722,-0.0572779609722849,-0.100504179961778,0.118035578334729,0.00761418589697074,0.109849990662668,0.111739389969733,15.4297268389942,1.03972158657482,0.918455573347384,0.176300382849408,0.240214543802376,0.163413175100599,0.388236085836023,0.158407791182843,0.0382356535181981,NaN,NaN,NaN,NaN,1.76744363452008,-125.864521808831,1.87937210096856,stable,stable,1,0.483753565518115,0.148984703495273,0.173698158851711,0.896464130890193,0.327371922177511
121,1.70697098084398,2.35979843139648,-0.99819388365326,-1.37092089161634,1.70697098084398,-0.0492967086018006,-0.000259248175720647,0.0492973902817123,-0.0542905630041861,-0.0994414365511259,0.115634754963292,0.00745943090537763,0.117137937387516,0.118989911815465,15.4088286779445,0.968690314827529,1.00330412317922,0.176336751028788,0.240205380557241,0.182142963214475,0.470734803499075,0.159284952919817,0.0344970760181702,NaN,NaN,NaN,NaN,1.76448514358837,-124.664357217421,2.39808748763113,stable,stable,1,0.478990243921488,0.155924031259294,0.176892122443718,0.896337382472696,0.319047571904678
122,2.62338055176878,3,-0.379618940285131,-2.56374898265529,2.62338055176878,0.00661204360213766,0.00717691031826343,0.00975844056768117,-0.0157403099461617,-0.342765721560744,0.343605659984195,0.0221898161932893,0.198488363197457,0.201244376091633,15.3987100360329,2.11157870108257,1.86148821788195,0.0249912067086227,0.0519509692308376,0.134921559104406,0.437128934749655,0.00864780393765781,0.0069016564578069,NaN,NaN,NaN,NaN,3,-97.1526305433791,2.00688370089001,stable,stable,1,0.739817022356669,0.0865284232894317,0.0582702156477802,0.956287442282396,0.340034862620264
123,1.60040680298934,2.37366962432861,-0.908452730034613,-1.29891808987884,1.60040680298934,-0.0456411001425522,0.00572667411058182,0.045998965407836,-0.0457855555767057,-0.091311285177259,0.104948189765303,0.0067678227519515,0.131225591541944,0.13292737348144,15.4855773076582,0.781615328111012,0.659813248204321,0.175817429350952,0.240183979590142,0.144310656065488,0.320391736663668,0.158232877008681,0.0348882228950894,NaN,NaN,NaN,NaN,1.66518818535526,-124.488998271363,1.72880287613056,stable,stable,1,0.453360622160112,0.18241727845944,0.192462716697938,0.900765775082046,0.335861930637561
124,2.68785151961929,3,-0.56139380402199,-2.59252542252787,2.68785151961929,-0.0272614980072916,-0.0101844386623446,0.029101753632189,-0.0248648411772658,-0.343056766635421,0.344959517035072,0.0222692270021229,0.205456515781931,0.207588694839448,15.4080599099144,1.80646061278878,1.49806712170833,0.0632288026437725,0.240249997649457,0.129104948226199,0.449445381037879,0.00189943157089129,0.0088178032045881,NaN,NaN,NaN,NaN,3,-100.530616564359,1.92182860085309,unstable,unstable,0,0.758278144199701,0.0755687295848938,0.0493919034527988,0.942421452192779,0.342620023010578
125,1.57926015435038,2.22509908676147,-0.824053247773689,-1.33668745918205,1.57926015435038,-0.0409391932579344,0.00648609860348971,0.041449813265016,-0.0370518567057937,-0.0941901492193292,0.10255839307675,0.00661618262622119,0.102238193244285,0.103841525500928,15.3809480788106,0.993155778066466,1.04760404344564,0.177674005697241,0.240191715528988,0.171590949807455,0.482219898249135,0.158377367987531,0.0364524615243329,NaN,NaN,NaN,NaN,1.59718321662841,-120.692341177793,1.82676567241447,stable,stable,1,0.441904346260288,0.152912892224415,0.175393117216743,0.895128455696641,0.323737355641131
126,1.55005401970949,2.34335970878601,-0.864784066030858,-1.26772758164517,1.55005401970949,0.00441748195611196,-0.000163911152578887,0.00442052188078676,-0.0418565707655537,-0.0856414574333143,0.0979877383380658,0.00632795055926664,0.134147778940455,0.134907323239691,15.3760224774103,1.98902923926682,1.95569583069302,0.0284410756304103,0.0514968692717593,0.140051303077775,0.433408136065608,0.0231410782199775,0.00558873369286848,NaN,NaN,NaN,NaN,1.57811714801433,-123.111297136965,1.64488053211081,stable,stable,1,0.440329203237137,0.179304209053694,0.119899715882946,0.954785193777968,0.337754976409878
127,1.48350828805485,2.20571708679199,-0.745989015101372,-1.27152192057752,1.48350828805485,-0.0338338208932247,0.00980428061310396,0.0352257200717785,-0.0305548289516194,-0.0858421112479951,0.0923318499391198,0.00595644193278575,0.105242464171009,0.10670424621872,15.3624660388921,0.946573378130356,1.03668365501483,0.176729837175482,0.2401772561782,0.147184532627906,0.451559579852057,0.159271653218188,0.0366384900860918,NaN,NaN,NaN,NaN,1.53181850141805,-119.504479623187,1.9105805460876,stable,stable,1,0.416943059391705,0.168955028395682,0.185483505771749,0.896052347580404,0.334584652165375
128,1.63767769127279,2.47585153579712,-0.873990220129538,-1.36524120104088,1.63767769127279,-0.0575376216304461,0.00723896474562361,0.0579912106571053,-0.0428144305588016,-0.0996240804758088,0.111170235400918,0.00717107822783336,0.1270192577789,0.12873305277054,15.3779284583412,0.886845089036951,1.00613135816443,0.176693747350392,0.240198857668394,0.165661951984342,0.473771060801447,0.158492208553279,0.0365138796853229,NaN,NaN,NaN,NaN,1.67347133841587,-121.814224359451,1.72452162613046,stable,stable,1,0.462460661560185,0.199220836971777,0.203251258193328,0.896779739953936,0.326372465784737
129,2.61405354598693,3,-0.517060013139562,-2.53141458654871,2.61405354598693,0.00835566930630769,0.00943038692734422,0.0125995796420276,-0.0224935853282647,-0.333602684084765,0.335104380030849,0.0216425937681177,0.195131156265175,0.197793834052489,15.4027824234601,2.00743427245421,2.1186476791822,0.0174443241679587,0.0445753711545093,0.144817766657561,0.423926445363916,0.00028072472636698,0.00674342842348925,NaN,NaN,NaN,NaN,2.98812679975473,-100.15154225882,2.33704999122347,stable,stable,1,0.736639712407012,0.0891478750873129,0.0560656473877994,0.958858622581734,0.335636548152195
130,1.63485270376141,2.22308945655823,-0.911500802685201,-1.34309638092483,1.63485270376141,-0.0433142045160062,0.00719628844733741,0.0439079364155468,-0.0453498933712137,-0.0958933493873172,0.108174344980581,0.00697771652358074,0.123581878248254,0.125306355863917,15.4511282480698,0.921211242096513,0.93245549077779,0.176531304715783,0.240183554936521,0.149312285462071,0.373834538883572,0.159121852261118,0.0354513445130491,NaN,NaN,NaN,NaN,1.67291748571223,-123.514973806059,2.24080270734826,stable,stable,1,0.461021992175826,0.140403057722134,0.167854055865189,0.897169823312382,0.333638984239079
131,1.49337098968996,2.13677954673767,-0.742046804747122,-1.28506989512253,1.49337098968996,-0.0458745349108182,-0.0126912216786184,0.0475976896601055,-0.0306708205899057,-0.0878183008865443,0.0941793990131218,0.00607571635574355,0.107319731782355,0.108768685124274,15.4315011029538,0.960737521545068,0.990411486624699,0.176411105304263,0.240175050563891,0.158737547891418,0.454516822928662,0.158811277033055,0.0341023605913084,NaN,NaN,NaN,NaN,1.54515709711904,-119.107877075441,1.75661898858444,stable,stable,1,0.419986000942176,0.153493168440089,0.175079549253361,0.896463990855106,0.329449978714925
132,2.61928333287255,3,-0.457471546750891,-2.54697509758922,2.61928333287255,0.00928485422727189,0.00521537544019888,0.010649350168152,-0.0195807150323646,-0.337178333172111,0.338382694412915,0.0218574365218603,0.195878351977081,0.198576529534487,15.3457848350785,2.03195047216809,2.13381956224486,0.0195180988155577,0.0560753921416673,0.137286687590621,0.432823973836179,0.000824599578908097,0.00529957585981482,NaN,NaN,NaN,NaN,3,-98.8062245222683,2.25073939404355,stable,stable,1,0.738190861339577,0.0876136309678374,0.0548617857769175,0.957509900321834,0.338983694404168
133,1.63369062623462,2.30382966995239,-0.842719201780212,-1.38687847212607,1.63369062623462,-0.0564550138550414,-0.0117174369377087,0.057658190378836,-0.0395655271240149,-0.101615533386858,0.110696423368207,0.0071397260519387,0.111140779916602,0.112878263174906,15.4457861950382,0.933244296744416,0.841278030764046,0.176181850528288,0.240166765781449,0.139332912709692,0.393457077929474,0.158618109165462,0.037340460187761,NaN,NaN,NaN,NaN,1.68330103474598,-120.509023497779,1.82899296129426,stable,stable,1,0.458226486297547,0.161351953072618,0.180886458409629,0.897966399305432,0.338074261017915
134,2.6001073874778,3,-0.596973010271116,-2.49697292985039,2.6001073874778,-0.0130737006289437,0.0148055445843269,0.0197516024305304,-0.0292769537514918,-0.335080963604799,0.337617662673073,0.0217955921346856,0.200976011707599,0.202883186129138,15.3740687575958,1.76676116255874,1.50496609263329,0.0627203755374343,0.240313003914686,0.12650923304009,0.434694671747064,0.00195645013976384,0.00865715796854515,NaN,NaN,NaN,NaN,3,-102.269542710179,2.27122052988169,unstable,unstable,0,0.733938607219908,0.0935969649297582,0.0601757697964128,0.942933383797631,0.343773674204404
135,1.6812470136462,2.57846641540527,-0.868736740429785,-1.41966051413495,1.6812470136462,-0.0573952112561508,-0.0122315648588736,0.0586840817772163,-0.0430536176020832,-0.107729933955266,0.118643550984312,0.00765283199955118,0.140453273011094,0.142303302165165,15.3833161593026,0.940035509415549,0.992111135865225,0.176962761004587,0.240203602333211,0.152943837375683,0.444945167938387,0.159004085053235,0.0352614718075095,NaN,NaN,NaN,NaN,1.71044333906111,-120.370167332204,1.96592641831951,stable,stable,1,0.476793197405354,0.212633113721614,0.211070703863399,0.896337467284786,0.332024961166363
136,1.64358284760478,2.29721140861511,-0.7653975574168,-1.43768290995961,1.64358284760478,0.0050044397613466,0.00659262384111283,0.00827690198294966,-0.0333427018330869,-0.109372154376894,0.116110006939066,0.00749500642688337,0.132734236982933,0.133638505021825,15.432551914755,1.73652280525625,1.71357038428256,0.0269390190995933,0.0571623163565954,0.114338716348376,0.444005377048167,0.0175685777238043,0.00631614670192131,NaN,NaN,NaN,NaN,1.66149639163359,-116.91481150861,1.84209087259398,stable,stable,1,0.465016460365641,0.148583858257531,0.0992553523395345,0.959422615389541,0.349182792734055
137,1.4620157528568,2.35157299041748,-0.706623981750899,-1.25669202140645,1.4620157528568,-0.0625178012752537,-0.00366837108293878,0.0626253337132367,-0.0303428300482446,-0.0870565036602438,0.0945893160078926,0.00610029667599632,0.149866558090254,0.151306277579967,15.443326064484,0.801850185412056,0.806336925351198,0.175658211148151,0.24018181292119,0.131150435316441,0.436588165447327,0.159002123815305,0.0374396049963505,NaN,NaN,NaN,NaN,1.50463962214456,-118.009747287404,2.36867941926639,stable,stable,1,0.420132122944472,0.211631689631914,0.211261026180583,0.899535138555642,0.341710917637138
138,1.58017434289791,2.24383664131165,-0.71491017299834,-1.39787712208841,1.58017434289791,-0.044581308770878,0.00438574632395891,0.0447965161875617,-0.0287771898873669,-0.10391031301642,0.108844339245896,0.0070208362447101,0.112003545673491,0.113743177736898,15.4369628317666,0.933335580923201,0.819858750612811,0.175484134665948,0.240176794055085,0.133037386229999,0.446361411002687,0.154761734070713,0.0388708907427364,NaN,NaN,NaN,NaN,1.62198882751374,-116.427624599585,2.32150926287946,stable,stable,1,0.444128460320157,0.157536711777476,0.177439889347797,0.898482834347815,0.340872272786667
139,2.61484766524771,3,-0.526688872077913,-2.52903390754904,2.61484766524771,0.00550885566317323,0.00712498649067885,0.00900627132669408,-0.0234138431433583,-0.333895864759243,0.335531365352884,0.0216678177812232,0.197574988718204,0.200193087763187,15.3806647636218,2.05150228936025,1.90056578400969,0.0275690384628796,0.0692640546094848,0.134128063296853,0.47000822887614,0.0169429435557756,0.0030334856228793,NaN,NaN,NaN,NaN,3,-100.33835635475,1.86269867465221,stable,stable,1,0.73733132828536,0.0883104250624925,0.0616195378544428,0.955163517334939,0.340387527423621
140,1.60916792160898,2.46203470230103,-0.784733319401624,-1.37920975042883,1.60916792160898,-0.0873174527477533,-0.0119849312650009,0.0881361227408089,-0.0378248676201691,-0.104524555472554,0.113955971142064,0.00734847529467722,0.181345966946429,0.182577972127098,15.4825943837566,0.640295341260895,0.552672028207785,0.182508176953711,0.240220561115127,0.1548531152714,0.383071720389922,0.143621589454246,0.00483282908922725,NaN,NaN,NaN,NaN,1.62484937329115,-117.662804067615,2.21754680560377,stable,stable,1,0.465627040187815,0.208053314824858,0.190421198826218,0.899372596477319,0.331176393212711
141,1.50107102960513,2.2127697467804,-0.767853671990333,-1.27915617692176,1.50107102960513,-0.038226785784925,-0.00926574153226387,0.0393337147697654,-0.0338501486617173,-0.0895975247420139,0.0970239771396426,0.00625745450586512,0.111834968348858,0.11279159239077,15.4569466524631,0.743519349255263,0.813486887202235,0.170901271599446,0.241125050758873,0.236668239721143,0.463571698911111,0.146989609669288,0.0049765990737327,NaN,NaN,NaN,NaN,1.58700801541868,-119.377240163094,1.63030179394309,stable,stable,1,0.422843926372855,0.167343392405559,0.167544423242356,0.902315743770968,0.294814115679492
142,2.62112204605919,3,-0.608413465994315,-2.51346871570937,2.62112204605919,0.00451940013055222,0.00345505865378398,0.0056887966953586,-0.0291995781900197,-0.328808447472335,0.331329980879222,0.0214034565541665,0.202609312320515,0.205184446452571,15.4182477157494,2.1108673554634,2.21679044580633,0.0199277717199738,0.0472116124120084,0.149417803894139,0.383420726632244,0.000456386981027687,0.00858633678647189,NaN,NaN,NaN,NaN,3,-102.460692774955,2.24454201539295,stable,stable,1,0.740002768239632,0.0862904856974979,0.055099434362723,0.956033088558608,0.33359208715816
143,1.4710494734951,2.09254431724548,-0.642683459888898,-1.31266026053214,1.4710494734951,-0.0428596977443619,-0.00237110945174486,0.0429252355936483,-0.0233886878688188,-0.0910526916132573,0.094883348157373,0.0061191540482166,0.104490270315109,0.106005741393368,15.424906646234,0.775837070613063,0.682740961202832,0.176387086435199,0.240158344722065,0.131451512833158,0.459662043565017,0.158623446435116,0.0374997429575576,NaN,NaN,NaN,NaN,1.50542716708844,-115.316950545559,2.08218846294145,stable,stable,1,0.413481007877366,0.147705966369339,0.172759159514706,0.900346200818133,0.341577105407485
144,2.62562592532397,3,-0.571151471339546,-2.52873804605931,2.62562592532397,-0.0244825185535599,0.00724876835206504,0.0255330835847789,-0.0257640799677621,-0.339881990084545,0.341851201119861,0.0220686717865933,0.205422362038459,0.207465327163815,15.3898898636357,1.74977935599586,1.41214381987471,0.0623782625296837,0.240342977807632,0.129754457207499,0.419904785548603,0.00193224313877082,0.0090232684572485,NaN,NaN,NaN,NaN,3,-100.955060334027,2.17184327927665,unstable,unstable,0,0.74165997885249,0.0889152321259818,0.0574891025338402,0.943967186639032,0.342331352352223
145,1.63571784464089,2.19781446456909,-0.74780151207152,-1.4414967592842,1.63571784464089,-0.0402326914793286,0.00885156503234,0.0411948985578625,-0.0315148140369982,-0.109473818336354,0.115253061748716,0.00743346563958226,0.11016484138838,0.11204884567401,15.441419475259,0.836967496085476,0.819308443652722,0.176344714269577,0.240170253951404,0.126412218178842,0.424123462986658,0.158878465947194,0.0358819162323906,NaN,NaN,NaN,NaN,1.68254359450145,-116.590495520199,1.52928191802282,stable,stable,1,0.458601194372372,0.134024137552788,0.16407510360281,0.89881404619584,0.343816791920515
146,1.73008293690889,2.40728640556335,-0.809271793094134,-1.51654839255791,1.73008293690889,0.00158790473048774,0.000431982014146251,0.00164561535410046,-0.0362278525150542,-0.120764237074129,0.127447775398036,0.00823212141600076,0.12121637530854,0.122260132596182,15.3730467087096,2.19653677431968,2.17850825108206,0.0235612196520575,0.0699517740902968,0.133503352696385,0.475235777072864,0.00388899535319388,0.0101619622192554,NaN,NaN,NaN,NaN,1.779143412243,-117.297381887505,2.11781168423196,stable,stable,1,0.485807476361606,0.152672476595507,0.0970271873253215,0.953844036402958,0.340665176579385
147,1.44740213091309,2.14000749588013,-0.712070124318231,-1.24992973784552,1.44740213091309,-0.036229387499707,0.00183813814364517,0.0362759875184542,-0.0279170929551648,-0.0827083031744401,0.0883469517531277,0.00569881233559041,0.0966852589910159,0.0980734262008331,15.417873245908,0.848963280779844,0.933109537732782,0.176158413682359,0.240148363385129,0.123669951856661,0.43619442382421,0.158436274319868,0.0362392060498005,NaN,NaN,NaN,NaN,1.48754464037965,-118.732441752547,1.55251877866111,stable,stable,1,0.405588586816991,0.1624868048293,0.18108609792654,0.897918792441936,0.345035576952595
148,1.71524836313004,2.45845699310303,-0.778064924440429,-1.50944190660925,1.71524836313004,-0.0512342936582906,0.00439525987402998,0.0514224771478798,-0.0350987281184718,-0.121112121905494,0.128078564972427,0.0082607376522003,0.140675689003842,0.142692541868046,15.4345910450595,0.799522243557469,0.823795268806657,0.174797173592111,0.240191915401373,0.12531625829023,0.420362849389783,0.156596552031678,0.0419950418006715,NaN,NaN,NaN,NaN,1.75445964810256,-115.915142708198,2.40927000330695,stable,stable,1,0.485938071874955,0.176649395887699,0.190859029393407,0.899846775606798,0.344303885204342
149,2.56863083010134,3,-0.604824605599446,-2.46410984641573,2.56863083010134,0.00572341204754993,0.00742167036604075,0.00937222686922415,-0.0280507983857278,-0.318165645417811,0.320509652312336,0.0206990663480691,0.201892067012202,0.204361645342717,15.414794386841,2.02983629100111,1.92417283176741,0.0194076636270132,0.0473170596183836,0.136219961668022,0.443297638958364,0.000428160894311475,0.00467473758986975,NaN,NaN,NaN,NaN,2.89228411426449,-102.374592577792,2.28212568977216,stable,stable,1,0.725840550428902,0.0987763048198885,0.0611559812008727,0.959228953650455,0.339457794814213
150,1.5252678386317,2.19814205169678,-0.661628759958665,-1.36349555065153,1.5252678386317,-0.0402927182997161,0.00869569855240325,0.0412203629447212,-0.0246108849793357,-0.0980663210452106,0.101965841234236,0.00657608486856658,0.0951015852802725,0.0967818277809668,15.4691794161154,0.843777988261199,0.701767726034371,0.176166681719674,0.240161360578829,0.156058764069033,0.380271540560288,0.155398295474803,0.0419400163097723,NaN,NaN,NaN,NaN,1.57055207434036,-114.528428258895,1.58255327597942,stable,stable,1,0.42609445585798,0.158953764479508,0.179689082809353,0.899773085670698,0.330640549302652
151,1.49034016277339,2.20206427574158,-0.654158896109943,-1.32811535868437,1.49034016277339,-0.0422187304851416,-0.00926180355036344,0.0432227047832797,-0.0242242683899099,-0.0938278920799565,0.0978145707255696,0.00631142061265201,0.109986342569044,0.111638480457533,15.3657209955288,1.0475249193033,1.06880138410266,0.176844161866548,0.240978136610258,0.151280592067085,0.465475674582789,0.155408594868784,0.0392690958049167,NaN,NaN,NaN,NaN,1.53043490962982,-115.371127707452,2.01856240723055,stable,stable,1,0.419751739497744,0.168062087961443,0.184187410587002,0.894949640968536,0.332764181303518
152,2.62304906542086,3,-0.651123109544147,-2.50639888448476,2.62304906542086,0.00833230231488577,0.0028651149530528,0.00881113758608146,-0.0316839511888719,-0.326782080247533,0.329712357846442,0.0212884054841677,0.195964480989525,0.198507059276042,15.39432232423,1.92978731194912,1.91034865746771,0.0264612309435553,0.0569123276558288,0.131773110425152,0.459103548199778,0.0118386442907307,0.00678117993946962,NaN,NaN,NaN,NaN,3,-103.235441300153,1.93351996955535,stable,stable,1,0.739181162634104,0.0864293355044217,0.0595851046017748,0.956596887625662,0.341434173144377
153,1.46790244772628,2.12819695472717,-0.695036406218519,-1.28168394904685,1.46790244772628,-0.0390752816242869,-0.00436440347081317,0.039318261045898,-0.0269348648926052,-0.0868182266512793,0.092001550145086,0.00593394501237194,0.101342733500189,0.102788249895784,15.4290376120303,0.86480049330245,0.843687888372247,0.176144953885441,0.240140487131161,0.146651894048441,0.449833730559144,0.158724623435816,0.0365310726426782,NaN,NaN,NaN,NaN,1.53053947457772,-117.277382087191,1.89560096334221,stable,stable,1,0.411998302706164,0.155774611933617,0.177293070658274,0.898503685772693,0.334821380422915
154,2.6855259484298,3,-0.657651922482871,-2.56874579587748,2.6855259484298,-0.0264923850204773,-0.0101557430138665,0.0283722678021498,-0.0307170344990629,-0.337165005112177,0.33992598543352,0.0219438347001148,0.201138964801851,0.203165020271819,15.405257303616,1.76110986692847,1.38170105652857,0.0630882145492959,0.240445576395879,0.131064919384422,0.43524324938884,0.00183653712005835,0.0089175824731682,NaN,NaN,NaN,NaN,3,-102.931426400997,1.77472674877738,unstable,unstable,0,0.756773256968977,0.0759582440336891,0.0496339424032096,0.943762378326761,0.341748924718035
155,1.65492146927238,2.38143014907837,-0.773856389111865,-1.44499613340088,1.65492146927238,-0.0587385889313996,0.002235926761476,0.058781129609209,-0.0346231371997041,-0.111844348809752,0.118943667382354,0.007670471433955,0.134203574268704,0.136031077639328,15.4740933850611,0.790885612241814,0.694555979261552,0.176189022479364,0.240207963471706,0.141055117646243,0.392231122795245,0.156151880088604,0.0395827513286432,NaN,NaN,NaN,NaN,1.68981233095603,-117.495671617653,1.97887471931599,stable,stable,1,0.468518607333834,0.174240993384702,0.188339159381626,0.900234161969935,0.33730883660167
156,1.60886020923538,2.32154631614685,-0.698090587360335,-1.43857792841053,1.60886020923538,0.00491050680269837,0.00184919331465872,0.00524715093877863,-0.0272959134428836,-0.10880669892037,0.113104112704023,0.00730575970176777,0.112717668202116,0.113602576608351,15.4040312515797,2.15934925375203,2.23932709838071,0.0161507413361817,0.0644544673722993,0.142128269290057,0.481060437761464,0.00038325130586769,0.00880155101789409,NaN,NaN,NaN,NaN,1.64682358488304,-115.230680905002,2.40491514508819,stable,stable,1,0.451749904451105,0.16131635172719,0.10016070895654,0.957363600850866,0.33683188031553
157,1.62920507667838,2.57667016983032,-0.717533688752963,-1.43690687939519,1.62920507667838,-0.0744811602999344,-0.0093633224031313,0.0750674033522507,-0.0321523584411296,-0.112704482301509,0.119664145789212,0.00771989524879387,0.165155182226965,0.167012654126258,15.3874925187174,1.06799352748958,0.970830977316877,0.176191684471219,0.240222495082539,0.162739670201301,0.474641677535326,0.159216388972835,0.0361984575974963,NaN,NaN,NaN,NaN,1.69535374865113,-115.407012304463,1.5,stable,stable,1,0.467857217939486,0.226942003240433,0.220091116977741,0.895884822369483,0.327671257688311
158,1.6091158722071,2.45946955680847,-0.755466920218012,-1.39374802334984,1.6091158722071,-0.0799635752862397,-0.00826501130106561,0.0803895750975515,-0.0351910702022785,-0.107192793463617,0.115741416946632,0.00746563973716137,0.165479006531368,0.167123816612086,15.4092867728568,0.924457520355524,0.955818558917058,0.1761842064882,0.240213162824002,0.1634174037374,0.519328744289398,0.155345182801125,0.0427811201802762,NaN,NaN,NaN,NaN,1.65925020896733,-117.23842078182,1.56333829181116,stable,stable,1,0.462522329244312,0.206067667803192,0.208239675123728,0.897134298990187,0.327370042783378
159,2.5637386634597,3,-0.737445473766537,-2.41998745637442,2.5637386634597,0.00995040162600096,0.00383090193021793,0.010662377882896,-0.0380999535368817,-0.306523710808124,0.310806417382101,0.0200710220933878,0.208556828597595,0.210915621921981,15.3918559014325,2.11067081784601,1.87819748324934,0.0211779189406748,0.0470945655123169,0.139096902259326,0.458358231014473,0.000469737628853089,0.00809371557415848,NaN,NaN,NaN,NaN,2.88835322200788,-105.56852442763,2.19544734135301,stable,stable,1,0.72584676797365,0.100113570000098,0.0632200835792431,0.958069932449628,0.338179154551411
160,1.52644215524197,2.14798283576965,-0.689950628128957,-1.34342753748898,1.52644215524197,-0.056520529014509,-0.00298651955438415,0.0565993771973568,-0.0282489615190762,-0.0967777079027909,0.102492385798005,0.00661136052152458,0.124419601183838,0.125953722254511,15.3638460805744,0.954749332245189,0.94735574383193,0.177276413280782,0.240144172999144,0.130963002272829,0.451234985129748,0.15795473515509,0.0366467748118573,NaN,NaN,NaN,NaN,1.56544004446909,-115.546181583882,1.56462873930014,stable,stable,1,0.43224198584876,0.150223205604912,0.173662127807905,0.896416682047574,0.341794221212076
161,1.63510110234254,2.28735399246216,-0.757213032234612,-1.43764573165716,1.63510110234254,-0.0510907740552113,-0.00086386118234434,0.0510980767710784,-0.032558918300214,-0.11023776982119,0.116153240580863,0.00749167081853465,0.117653282913363,0.119414293776682,15.3835959620683,0.92390743821139,0.775747238017805,0.176979027636874,0.240185023318961,0.131198424653981,0.488579125629387,0.156700892506134,0.0412521153871733,NaN,NaN,NaN,NaN,1.70136515468512,-117.053321105748,2.32705311057328,stable,stable,1,0.459909819380014,0.156124881018278,0.178320538956504,0.89815605658262,0.341689589042675
162,2.55081960110361,3,-0.704108839791008,-2.41887358768692,2.55081960110361,0.00763224238873894,0.00610757452905992,0.00977515168723662,-0.0348827103415216,-0.30748593159554,0.311110763281158,0.0200931572768842,0.207967262488193,0.210298732491061,15.3920647489823,1.91598676917918,2.07217429343483,0.0160464560856288,0.063345939957126,0.13372986546648,0.480065140453832,0.000154156325053127,0.00643898818342685,NaN,NaN,NaN,NaN,2.85921158454158,-105.062668776886,2.39626389862135,stable,stable,1,0.722278306792509,0.102857700894347,0.0641245847073729,0.960641220750933,0.34056450423712
163,1.60684668053092,2.58102059364319,-0.751266804996414,-1.40542265976141,1.60684668053092,-0.0587986693646313,-0.0083372096314733,0.0593868047927346,-0.033562818789059,-0.109389804141543,0.115987224596449,0.00748042739537485,0.138819004599362,0.140112855790551,15.4599454354011,0.690460729619358,0.762638897341263,0.177679325749103,0.240804252275859,0.206328476972241,0.371000741497411,0.138199835365413,0.00497499987432464,NaN,NaN,NaN,NaN,1.71874998102098,-116.787170824054,1.54966591443183,stable,stable,1,0.45651501929969,0.230076711328928,0.201277266712042,0.899743125770758,0.308298454679004
164,2.41623183538395,3,-0.792431573384089,-2.25125348620462,2.41623183538395,-0.0340107146908904,-0.00671110011216723,0.0346665195613964,-0.0387197648328358,-0.275095107726303,0.279629114344672,0.0180415747079136,0.217121742073787,0.218340024363907,15.4238417547718,1.30409077390813,1.02131565484446,0.0629302118769092,0.240219861448152,0.141178309218715,0.481162078312816,0.00186246250298852,0.0096352954344006,NaN,NaN,NaN,NaN,2.64390369362176,-106.697557678757,1.5976445602601,unstable,unstable,0,0.687996494308501,0.137703365624867,0.0869535242816873,0.950263843549918,0.337254084791682
165,1.62488291634096,2.20467638969421,-0.6972482901872,-1.45656547235192,1.62488291634096,-0.042948505761327,-0.00854842451542613,0.0437909774819731,-0.0274827404515654,-0.111888872190101,0.116187891143245,0.00749480332641272,0.108801193051785,0.110770229164642,15.4556330124881,0.935076500339235,0.867591600865278,0.176891216565232,0.240191273356181,0.179426457488898,0.467097553338169,0.158196965739651,0.037961174910238,NaN,NaN,NaN,NaN,1.65443912380199,-114.70021335318,2.15614040757493,stable,stable,1,0.455456156857184,0.138481877376178,0.167202952580386,0.897390570922206,0.320254907782712
166,1.64955265366513,2.5951464176178,-0.723248283347561,-1.46404209557206,1.64955265366513,0.00275427195144737,0.00073286767457599,0.00285010684202683,-0.0305341690289419,-0.11366837967655,0.119383537860782,0.00770700476620358,0.136090632161478,0.136999887094095,15.3883786308631,1.79109126714303,1.84051300819081,0.0256400167421708,0.0495766809724199,0.126397308312017,0.409204666537821,0.0201714416366177,0.00538335840766044,NaN,NaN,NaN,NaN,1.6985678915868,-115.061450151433,1.7414708486241,stable,stable,1,0.467280685062853,0.213281116477056,0.138891339933576,0.958645958037006,0.343823418527993
167,1.47261460971188,2.2521858215332,-0.698482899357248,-1.27173324975398,1.47261460971188,-0.0679473638339615,-0.00646617609604832,0.0682543455414368,-0.0299488704190988,-0.0886437717067646,0.0960403571753446,0.0061944293311881,0.154068828570228,0.155562070573696,15.4530407998435,0.877308698522352,0.755072533175913,0.177103798421417,0.240182374078195,0.164162938900434,0.387023266054779,0.158831714100445,0.0364774793822676,NaN,NaN,NaN,NaN,1.53242316823457,-117.234742424214,2.24201399872492,stable,stable,1,0.42380964337124,0.187916819342395,0.196606502496156,0.89862224825452,0.327038693822029
168,1.72152555834603,2.35669493675232,-0.835897774102103,-1.49216761128508,1.72152555834603,-0.0387597555139185,0.00134940441959762,0.0387832378713583,-0.0386494150136109,-0.117582430315635,0.12525347080726,0.00807926352479989,0.11922581514108,0.121184507958069,15.4165721639245,0.760501913099467,0.988094042176897,0.176019179457342,0.240203950918467,0.137963380379432,0.410650281571241,0.158572075691155,0.0369925667605289,NaN,NaN,NaN,NaN,1.76822611766951,-118.998443980142,1.9053727405897,stable,stable,1,0.483310383817221,0.150023370417832,0.173942342794031,0.898251442051301,0.338682942053586
169,2.47557514846126,3,-0.770041514834866,-2.31609025851954,2.47557514846126,0.00453100455177229,0.00755783931928032,0.00881197693053272,-0.0408668904617517,-0.282907519875637,0.2881973314491,0.0186097450172384,0.223025880552172,0.22528134586888,15.3887374593985,2.00132277253451,1.95769955490579,0.0232389816016117,0.0492400518926113,0.135751441964608,0.431711598214301,0.00562163078592329,0.00560705696787955,NaN,NaN,NaN,NaN,2.66549340284327,-107.193726307889,2.09864693176018,stable,stable,1,0.705209642096778,0.119611120700148,0.0763041047981122,0.957273905197878,0.339666025793508
170,1.74974138833381,2.34584021568298,-0.776765932207511,-1.55377841385878,1.74974138833381,-0.0503433665757565,-0.00652288412281351,0.0507641859529004,-0.0342258809921079,-0.127527699662428,0.133447606472881,0.0086069710576312,0.116395458916508,0.118530751359204,15.4653770535438,0.84425735617009,0.895802787619086,0.176641753868437,0.240209312359804,0.136832193735448,0.390363514793092,0.159014984701794,0.034917330865057,NaN,NaN,NaN,NaN,1.77840570795084,-115.675983280215,1.72631185034673,stable,stable,1,0.490303853827524,0.143429003578262,0.169427939904745,0.898007221936009,0.339185691673134
171,1.61555514599653,2.45527076721191,-0.78915829207986,-1.38433564387175,1.61555514599653,-0.0752382177674293,-0.00292587022422915,0.0752950870202574,-0.0376188956552309,-0.104958017437462,0.114390380116516,0.0073773073842773,0.163326338407322,0.165101757402709,15.4617432434134,0.776812582395102,0.783545675901121,0.176032753817924,0.2402262203711,0.160295676274628,0.444598418788041,0.157056391966963,0.0433866767635029,NaN,NaN,NaN,NaN,1.68221562017466,-118.331726157389,2.27098972541833,stable,stable,1,0.463835057079616,0.202740114060509,0.207223882679058,0.899723665347282,0.328757477211276
172,2.41426975432048,3,-0.838012235677452,-2.22972637557144,2.41426975432048,0.00901675460244952,0.00687981968374567,0.011341683404224,-0.0460841973948804,-0.26445967703481,0.271207152127067,0.0175171381938753,0.227805100169616,0.229928138741945,15.3594902753741,2.06621321361616,2.00041380842939,0.0209410594972843,0.0670593131044228,0.130963849494285,0.478354144678985,0.000704291478298388,0.00537219445763788,NaN,NaN,NaN,NaN,2.5789773418386,-109.450212225276,2.19724002137608,stable,stable,1,0.689790895567184,0.133868613901999,0.0825877120333216,0.957577400792429,0.341793844669207
173,1.53215989330471,2.30675339698792,-0.712355883314723,-1.34382145065577,1.53215989330471,-0.0467926674652208,0.000494234520523122,0.0467952774996795,-0.0284585406370685,-0.0956238345386507,0.100984941497509,0.0065143050631586,0.11060750390453,0.112162803868783,15.3842648682257,0.914722403251011,0.959802474390355,0.176332180995634,0.240161225216336,0.140564731507997,0.478934688064486,0.156684923253532,0.0413902013014848,NaN,NaN,NaN,NaN,1.60572032516396,-117.151648626796,1.68427459964914,stable,stable,1,0.431008532321679,0.182862672536996,0.194406329481883,0.897105499749286,0.337526785996446
174,2.28043581287448,3,-0.745697682348836,-2.12203891909333,2.28043581287448,-0.0191663038586706,0.00783936783262354,0.0207075563893489,-0.0378419176754038,-0.248015130602308,0.253227459456632,0.0163490174583024,0.233505086850391,0.234924002103923,15.3841813925017,1.66162635207893,1.47118304349798,0.0631838345624086,0.240468445582944,0.131692688239518,0.478407004456993,0.00191057426621465,0.0108534628536459,NaN,NaN,NaN,NaN,2.36078838964489,-107.709824257803,1.93898451228347,unstable,unstable,0,0.655101017187313,0.165698327441289,0.104214854348053,0.943793151753548,0.341469916337992
175,1.65379988387127,2.50350546836853,-0.804519909492439,-1.42782711300977,1.65379988387127,-0.0632385109896391,-0.00390359096550911,0.0633588769993023,-0.0370286412502567,-0.110321177697203,0.118356458934852,0.0076341732771564,0.135768956227258,0.137510396142599,15.3771753451278,0.861203088267701,0.912528684804743,0.176179098448065,0.240193682123536,0.125496553793507,0.484026953851725,0.1570481754884,0.0418328499352949,NaN,NaN,NaN,NaN,1.70036876942666,-118.357386427334,2.48956440737526,stable,stable,1,0.468515381594192,0.202799550628422,0.206690864914025,0.897973986844684,0.344223753869553
176,1.76579420104075,2.4744930267334,-0.885698408659925,-1.51296300543856,1.76579420104075,0.00459024499550688,0.000861457809316353,0.00467038099902011,-0.043152857598227,-0.120561373206809,0.129945065392133,0.00839277317080456,0.120579118439926,0.121563884263634,15.3843921617129,2.01933119925633,2.35459529482664,0.0173481185310287,0.0497335113141815,0.149413763609484,0.455094388989275,0.000284125574680385,0.00527542972958263,NaN,NaN,NaN,NaN,1.79740384781532,-119.424856454763,2.34064110617169,stable,stable,1,0.495191230463593,0.160313472297334,0.0982326994950761,0.956959375423834,0.333593882840229
177,1.95068001587119,2.76774334907532,-0.982611535185288,-1.66912931107094,1.95068001587119,-0.0519443283428159,0.000201808074657871,0.0519447203619893,-0.0535801721101045,-0.147081976476061,0.158959910223201,0.0102531585755192,0.135253131534724,0.137726722154613,15.4656051250469,0.929430151674052,0.930899751763893,0.175942650116408,0.240261562073145,0.160142799009921,0.392321446120817,0.155743856455007,0.0420621986090814,NaN,NaN,NaN,NaN,2.00389774569212,-119.82849383685,1.77999213052013,stable,stable,1,0.547726681996573,0.19336244870396,0.200532305928914,0.897411797129069,0.328825422662257
178,1.85828506706545,2.63543343544006,-0.999106942564367,-1.55280895554842,1.85828506706545,-0.0528939035219034,-0.00385587685013378,0.0530342607761042,-0.0546043667026833,-0.127734568062631,0.141124645809848,0.00910144414687467,0.123963921636852,0.126230543847461,15.4632253525926,0.837926012707526,0.809618212708041,0.175951106392893,0.240223764508843,0.128172460429664,0.420531387173847,0.155389205838479,0.0400887371763206,NaN,NaN,NaN,NaN,1.88108853169074,-121.75609313085,1.83425577401849,stable,stable,1,0.520788793320279,0.18458133069324,0.194388390287062,0.899079456461002,0.34303446203126
179,2.50000436130575,3,-0.653359627827739,-2.38073778877373,2.50000436130575,0.00768270107349456,0.00994486900299394,0.012566794152503,-0.0312727594702117,-0.298343746145482,0.30135362516302,0.0194608787949758,0.214115373770305,0.216413517936909,15.3317391714766,1.84534599307588,2.02606175301791,0.0273581364784959,0.0707058826680801,0.131846404981702,0.515175142254733,0.0186779128753376,0.00859139619389859,NaN,NaN,NaN,NaN,2.73243854491602,-104.018907315581,1.83302826062163,stable,stable,1,0.709950533268914,0.114802930967499,0.0803071972622692,0.955902728041444,0.34140159778591
180,1.80154454068049,2.41920948028564,-0.90507804483772,-1.54444318117723,1.80154454068049,-0.0482624613936699,0.00976103153573007,0.049239647809636,-0.0451952731176988,-0.126456382933807,0.136075198555636,0.00877649050900208,0.123430354222831,0.125644380200764,15.4385868388285,0.930936959929836,0.780905217787579,0.175387659551426,0.240261010540236,0.105338542198012,0.38327744965135,0.155844537467705,0.0413521591908332,NaN,NaN,NaN,NaN,1.85620598441334,-119.444845846151,1.67692703513692,stable,stable,1,0.505540753554952,0.148001880176259,0.173102515776957,0.898855981685079,0.353182870134217
181,1.84010919308502,2.7375602722168,-0.912663813236929,-1.5835187537281,1.84010919308502,-0.043429747070631,0.00449489834788072,0.0436617342964839,-0.0464877018696303,-0.132703230326816,0.142534589208524,0.00919540416118989,0.125215513923772,0.127479710235592,15.4300366664036,1.05341417186876,1.02524687781345,0.176281971346695,0.24021758280236,0.185945943316203,0.452594195938565,0.155802800984787,0.0410330727376935,NaN,NaN,NaN,NaN,1.8944468966032,-118.434379956689,1.64791188911516,stable,stable,1,0.516191726869791,0.209931144092338,0.210125493141136,0.895526677507721,0.317357358526132
182,2.43961115943947,3,-0.447762605943327,-2.36529357712185,2.43961115943947,0.00584141500345411,0.0111218823361932,0.0125625791914999,-0.0193571477067867,-0.295961308965274,0.297296312128211,0.0191976960125544,0.218498538089321,0.220883990093633,15.3732808680565,1.92316219805164,1.96462799726713,0.0257101805364874,0.0537647519017862,0.134252865143175,0.434907399259278,0.0102361363228094,0.00641360852785414,NaN,NaN,NaN,NaN,2.61222307005049,-99.3162222201901,1.95269765728065,stable,stable,1,0.694739773869252,0.128390628644561,0.0839159923908413,0.956597986768537,0.340332059936367
183,1.84214352192105,2.5516459941864,-0.974128288128613,-1.54921064396181,1.84214352192105,-0.0464205526067573,0.00724023090177679,0.0469817905983559,-0.0520315575089803,-0.126422743794842,0.138890095027735,0.0089598570603457,0.113000352753907,0.11516327899534,15.3789253139617,1.04565046025712,0.988218186747109,0.177940268881048,0.240232858613094,0.144614772576413,0.452077898034733,0.156904817160047,0.0353468915106473,NaN,NaN,NaN,NaN,1.87171872539055,-121.350351106356,2.14399473065956,stable,stable,1,0.514270928311349,0.168251384536068,0.183539720109776,0.8950494690473,0.335726767743816
184,2.45752173564473,3,-0.26053115366194,-2.41421587555278,2.45752173564473,-0.0170048587386239,0.0179022194374373,0.0246911863122595,-0.0101557515085056,-0.320787090523214,0.321263423340706,0.020738475340991,0.214734150096491,0.21661158913773,15.3899192698286,1.77998051194915,1.44951709422008,0.0621768195503285,0.240435837766062,0.133233145743214,0.463479308048999,0.00192832077574757,0.00868695651775514,NaN,NaN,NaN,NaN,2.70378156394852,-95.0700514349474,2.27823937634551,unstable,unstable,0,0.698661447332808,0.126584326970516,0.0799665209173813,0.943536966176363,0.340785268558572
185,1.88861282525329,3,-1.11571834264978,-1.49150539888393,1.88861282525329,-0.0615718313407031,-0.00578506323567111,0.0618430058396962,-0.0805809091806468,-0.135279506500063,0.164412799906838,0.0106036772602671,0.209566570424859,0.210594485309932,15.4570398791552,0.715128479742491,0.943498470713469,0.163998490904616,0.245793751532307,0.243457420944721,0.499575539780858,0.175531724831982,0.00504859698230752,NaN,NaN,NaN,NaN,2.15708888634091,-124.745911655981,1.69716879731431,stable,stable,1,0.545748983796197,0.261399998721954,0.23668995260661,0.904968685651252,0.291796701802346
186,1.9737656997422,2.98495960235596,-1.07002156915814,-1.63728597751833,1.9737656997422,-0.0179669090023972,0.0304149854408179,0.0353253614060152,-0.0664760502680709,-0.147655729687857,0.165735864348363,0.0106932293565989,0.151287890638567,0.15213051591873,15.4218926962366,1.13050547425324,1.19472723480036,0.0212480168307823,0.0781619669042729,0.250634661008539,0.697446363842161,0.0218284240198503,0.00817077754241634,NaN,NaN,NaN,NaN,2.10837557196529,-122.363616262261,1.99552755285775,stable,stable,1,0.556763623115,0.233994944345864,0.153069680227724,0.971106306013473,0.288606817329538
187,2.02484252807256,2.77878308296204,-1.09451685975206,-1.68916019867734,2.02484252807256,-0.051932194499165,-0.00681593939434181,0.052377570154852,-0.0650592819787182,-0.151128903239031,0.166948578164266,0.0107689172632582,0.134966703041839,0.137612397347288,15.3858730183061,1.00765013999189,1.00419512074804,0.177022475393351,0.240270196129631,0.150657735585877,0.486640741793183,0.157856249995154,0.037508105335716,NaN,NaN,NaN,NaN,2.09849345512064,-122.244984043751,2.42850679036454,stable,stable,1,0.567480486955474,0.179239179378521,0.191341151989462,0.895681406683225,0.333041006406277
188,2.02242967244741,2.81011843681335,-1.12134675237535,-1.65842600506415,2.02242967244741,-0.0627235981572493,0.0118162999238837,0.0638269121114539,-0.069907797170739,-0.146606783637618,0.16701063223558,0.0107753630836563,0.151670733623823,0.154250066465943,15.3726480251402,1.08763728028493,1.15968618618689,0.177085807524586,0.244193076440028,0.152626728398726,0.507046386023417,0.155573071464243,0.0395812025572916,NaN,NaN,NaN,NaN,2.08252249604559,-123.526280590972,2.23937929134082,stable,stable,1,0.570164592612498,0.188931572536104,0.196895695405392,0.893799554715429,0.332165898489455
189,2.49628623712023,3,-0.789473071975887,-2.33282801564627,2.49628623712023,0.0104208571597964,0.0084381191457401,0.0134088075033758,-0.0422018654732549,-0.287004524686896,0.292409340605843,0.0188890729688373,0.222421767840306,0.224669377750697,15.3655480838137,2.10249769232673,2.31610906540463,0.0196075059123139,0.0765721000512305,0.151812103497179,0.5387337667723,0.00041617983652411,0.00675821497629275,NaN,NaN,NaN,NaN,2.71977714743149,-106.924123588306,2.2726182635587,stable,stable,1,0.710610205448867,0.115793878023567,0.0721188283490252,0.955478622518811,0.332527954001254
190,2.01105140834241,2.75184035301208,-1.08709439263674,-1.67558584408214,2.01105140834241,-0.0582862248156722,0.00261257227340882,0.0583447472969664,-0.0645216440691861,-0.148560564107381,0.164754072783773,0.0106277682523912,0.138292277107103,0.140930277916501,15.4026174116374,0.96347748249362,1.06662096508294,0.176946869775118,0.240265760035433,0.157340194713743,0.46637069920515,0.160146044575911,0.0369743718784141,NaN,NaN,NaN,NaN,2.06580628279313,-122.281189709167,1.7232193680572,stable,stable,1,0.564466431141277,0.17737404955512,0.191045675682193,0.895575791595768,0.33007102457167
191,2.01769153143736,2.79345154762268,-0.992656308443648,-1.74157811415745,2.01769153143736,-0.0535698465987267,0.0128171314904765,0.0550818239009501,-0.0547805930290963,-0.160164720282889,0.171483488028962,0.0110595462455536,0.137488801132864,0.140219522492454,15.4730978892172,0.906756002820082,0.754876932666233,0.176832304633394,0.240287234241339,0.172994871909674,0.42440422308942,0.158960897117924,0.034977911919528,NaN,NaN,NaN,NaN,2.07634549688122,-118.754548572983,1.91990618796232,stable,stable,1,0.566094979548452,0.184644338023539,0.1941551311201,0.898528160333053,0.323113390262367
192,2.46614760977767,3,-0.939676095582085,-2.2474267558269,2.46614760977767,0.0087559516483895,0.00605966730678726,0.0106482983212287,-0.0547519117960642,-0.267352471458766,0.276152439698727,0.0178282514389006,0.217208797539205,0.219282416671457,15.3995536640556,1.8350250027015,1.86217138144564,0.0273571866419785,0.0577959543501783,0.125913787447588,0.466241154505221,0.0206819404987382,0.00703643713154422,NaN,NaN,NaN,NaN,2.68099720733185,-111.612146549017,1.76167910287323,stable,stable,1,0.701495845941671,0.122068975825582,0.0849920634618146,0.957272006517855,0.344038316689961
193,2.03012698848776,3,-1.06340850988407,-1.69644379197194,2.03012698848776,-0.0846654839661677,0.000685451835339009,0.0846682586300437,-0.0674763344454461,-0.157904736147463,0.177412078469003,0.0114440736336592,0.210479416059738,0.213290714377406,15.4082546479799,1.06385626817843,1.00869859547157,0.17629868195685,0.240344998125981,0.1854246650308,0.461099849787123,0.153838787893081,0.040991315545925,NaN,NaN,NaN,NaN,2.11900443077325,-120.570247299149,1.68531410657474,stable,stable,1,0.584025339805549,0.23374394167243,0.223525092548396,0.895566299378611,0.317589037764089
194,2.47372797508513,3,-0.994778495973247,-2.22819899035117,2.47372797508513,-0.0267081126574196,0.00179324975166064,0.026768246606628,-0.0592409371168635,-0.265248121274316,0.276027588529789,0.0178195256587406,0.230463411836681,0.231975754677841,15.3854407068947,1.69594970698659,1.65758127596542,0.0629213440568011,0.240295162988569,0.137376885555089,0.464564497391329,0.00190726640569942,0.0105319214383067,NaN,NaN,NaN,NaN,2.61715863552686,-112.220792726245,2.07468856473348,unstable,unstable,0,0.706055944291602,0.123318717483728,0.078668694062255,0.942190155962691,0.338943606419961
195,2.0121687682683,2.9799919128418,-1.02394904071617,-1.70005535275183,2.0121687682683,-0.0890236179905067,-0.00252590434926819,0.0890594450516133,-0.0635574840083519,-0.160202720837529,0.177522953114722,0.0114484067277525,0.207285195878874,0.2098814982667,15.4580657705873,0.848504592930836,0.749424596235688,0.176778274223416,0.240383271359548,0.142847558735626,0.460732892000814,0.155296448097212,0.0404544341340106,NaN,NaN,NaN,NaN,2.08957514186263,-119.371133784789,1.64226129875311,stable,stable,1,0.578554637858221,0.234087772455165,0.224184010393318,0.899055704973412,0.336512196117499
196,1.97121454999598,2.80634355545044,-0.926022567554052,-1.72492608598793,1.97121454999598,0.00442564688983559,-0.00145454692261598,0.00465854667719484,-0.0476087270178131,-0.156179132587442,0.165232152237106,0.010670892093138,0.139153119647197,0.140463744654581,15.3847992263167,2.03613325209377,2.13430724541205,0.0200891377998036,0.0691860140179234,0.144794447341354,0.537647669994729,0.000324131602682176,0.0104561125778213,NaN,NaN,NaN,NaN,1.98818975952798,-117.123132335998,2.2492904010193,stable,stable,1,0.553749962263179,0.188758093118072,0.117201137116495,0.957187684333981,0.335646912292732
197,1.88493905437959,2.5680205821991,-0.846959062719304,-1.66320034956851,1.88493905437959,-0.0567114684849941,-0.00624555939169659,0.0570543396232021,-0.0416888349951112,-0.146556661741064,0.154765087657321,0.00998192117963401,0.141188191027346,0.14359186052817,15.4536999481261,0.826182557112317,0.913867979616488,0.176638770685036,0.240267120978524,0.151807669631897,0.438374212892541,0.157752857523938,0.0374026376418419,NaN,NaN,NaN,NaN,1.96491164649544,-115.571452830696,2.46147575944963,stable,stable,1,0.531368786606859,0.164153306023642,0.182205323878424,0.898008789011756,0.332529924608046
198,1.84077985574735,2.62357401847839,-0.822053011077255,-1.63530234782063,1.84077985574735,-0.0452473779485761,0.00356839953809927,0.0453878693759115,-0.0374901286788079,-0.141046922890678,0.147175483148684,0.00949433413187568,0.120568731135168,0.122755008897771,15.384044411541,1.1102718992824,0.970093688301521,0.176740314771803,0.240234140112981,0.160418300649764,0.498921602990134,0.156230635948375,0.0424348163860974,NaN,NaN,NaN,NaN,1.88489007794024,-115.359098105949,1.73343953515461,stable,stable,1,0.515425629978848,0.184449796000068,0.195536558121536,0.895284112997368,0.328702977488994
199,2.47393065790668,3,-1.11900573131941,-2.1707130196109,2.47393065790668,0.00656848339643592,0.00644362748860903,0.0092013754048627,-0.0741004989991891,-0.249337959138203,0.265437989484862,0.0171441556137873,0.216005642885819,0.217990796902278,15.3782652791489,2.23670818544951,2.15661575333848,0.0240119473045467,0.0528896736693706,0.150417902814166,0.432043153421589,0.0082820862087029,0.011826361684318,NaN,NaN,NaN,NaN,2.68563096804021,-116.007396076949,2.07297822457443,stable,stable,1,0.703313001488903,0.120052520795223,0.0800129348389354,0.953475052542964,0.33314759874926
200,1.91806065876212,2.74811124801636,-0.832983585201549,-1.70940576591122,1.91806065876212,-0.0561603966958383,0.0144190484103809,0.0579818860860428,-0.0398560037030622,-0.155350866160564,0.162226200744783,0.010462879790248,0.152511804800501,0.155054435647564,15.4586755833053,0.922577161732886,0.770453834078317,0.17536366482554,0.24025078355288,0.12602481818194,0.417261512302301,0.156689817884529,0.039248316406552,NaN,NaN,NaN,NaN,1.97177383483815,-114.893051128023,1.55512807711087,stable,stable,1,0.542493729466078,0.197391395031311,0.202346871135506,0.899015781191571,0.343988969696916
201,1.80190312182343,2.68464064598083,-0.771301049805071,-1.60159511280933,1.80190312182343,-0.080262054016398,-0.00349621746861776,0.0803381655971746,-0.0372975264589181,-0.139279976385826,0.146946999780389,0.00947824726926908,0.17885578080951,0.181064055461718,15.456235210882,0.919148037609521,0.861258810292203,0.176344409799026,0.240256829740295,0.164512717089409,0.432302980887462,0.156069617514153,0.0406763466951728,NaN,NaN,NaN,NaN,1.87135485490829,-114.338554000358,2.10203458187651,stable,stable,1,0.516720310245259,0.213344606628231,0.212162437225918,0.897838884152688,0.326883236849152
202,2.33919430257485,3,-0.941428844662321,-2.11061710539128,2.33919430257485,0.00723500349212919,0.00665970095582824,0.00983345780243049,-0.0546484914499295,-0.239062965316073,0.248630078436002,0.0160600657806991,0.224979595167231,0.226751187364781,15.3776655926263,2.22406084917346,2.06604571559387,0.0198393253507597,0.0618811191429797,0.152020423278686,0.50645633938313,1.29110106919236e-05,0.00543661238453997,NaN,NaN,NaN,NaN,2.45321237213052,-112.912057666969,2.24418451810763,stable,stable,1,0.669135384826249,0.150484082517772,0.0922731376956518,0.956372357172877,0.332435367431695
