scenario_id,mean_wind_speed,max_wind_speed,wind_velocity_x,wind_velocity_y,wind_velocity,wind_acceleration_x,wind_acceleration_y,wind_acceleration,wind_body_force_x,wind_body_force_y,wind_body_force,mean_wind_body_risk,mean_wind_gust_risk,mean_wind_risk_raw,min_thrust_margin_n,mean_abs_roll_deg,mean_abs_pitch_deg,mean_abs_vz,max_abs_vz,mean_tag_error,max_tag_error,stability_std_z,stability_std_vz,mean_imu_ang_vel,max_imu_ang_vel,mean_imu_lin_acc,max_imu_lin_acc,wind_speed_cmd,wind_dir_cmd,hover_height_cmd,gt_safe_to_land,label,success,onto_wind_condition,onto_gust,onto_temporal_pattern,onto_drone_state,onto_tag_observation
1,2.03230414666286,2.72734403610229,-1.25142530965897,-1.58400371775035,2.03230414666286,-0.052227927386835,0.0170794655047575,0.0549496546035797,-0.0845776819214159,-0.131926675919739,0.160341153631871,0.0103446954697539,0.12665902780506,0.129356136829736,15.3909855033552,1.10746429217418,1.08074803805087,0.176991367737088,0.240267085129561,0.131159156403321,0.41508047135164,0.156442334627301,0.0399684135576089,,,,,2.0716688985117,-127.374480982322,2.31472368639318,AttemptLanding,AttemptLanding,1,0.567818999809377,0.166458078467862,0.183938742148143,0.894311219251116,0.341707041598524
2,2.3600185467025,3.0,-1.41705287321764,-1.84600868955074,2.3600185467025,-0.0097502230530722,-0.0192948547379575,0.0216184705505164,-0.113866611565178,-0.184470756624784,0.226748340725881,0.0146334318815399,0.238393683555182,0.240118316684736,15.4261147653051,1.45084073267591,1.67085779778904,0.0283752689256515,0.0964890567460279,0.124192148554226,0.478928940868305,0.0189101884682247,0.0154196915661479,,,,,2.42882567996652,-126.095851442396,1.85119679182919,AttemptLanding,AttemptLanding,1,0.677361942457613,0.147959213259533,0.102787216733328,0.961284734226378,0.344803489531455
3,1.67100506428025,2.61123275756836,-1.05178450995555,-1.28370577362011,1.67100506428025,-0.05197341505078,-0.0111767317556204,0.0531615952053523,-0.0654249792770847,-0.0953833417954185,0.118518684860121,0.0076448473465183,0.140385411307149,0.141366856518938,15.4229777598618,0.766294001463385,0.991545203801798,0.169299089299096,0.248251779083547,0.234116150687706,0.461152919727748,0.134068648776748,0.0053926161860148,,,,,1.87319628751653,-127.297520073929,1.62646115776275,AttemptLanding,AttemptLanding,1,0.47387472177852,0.22129752344414,0.194325531529852,0.901538861594797,0.295948377472131
4,2.30295295015122,3.0,-0.666718498824745,-2.17047092867274,2.30295295015122,-0.0136420798962741,0.0011938090441067,0.0136942149804258,-0.0319954145176715,-0.258255532339722,0.262068317932721,0.0169065278012677,0.223090927457375,0.224065766680775,15.4387665033575,1.17308941618325,0.976158456303526,0.0632050031171441,0.240310300890705,0.2135854008734,0.706454902629862,0.0019164202533019,0.0097551298203906,,,,,2.46779887999601,-105.553838771394,1.72086210294086,HoldLanding,HoldLanding,0,0.658933940043147,0.15934619229572,0.10000677764692,0.951510550871889,0.305073155167378
5,1.8245807602689,2.65254735946655,-1.06236006815164,-1.4605589640112,1.8245807602689,-0.0471523895781908,0.0121983823558825,0.0487047058818117,-0.0624552393605678,-0.114827665096306,0.1348427302458,0.0086985531234198,0.148932814705077,0.151261486730301,15.3731331381738,0.907769401175853,0.927326019605226,0.182200152167778,0.240270754220309,0.120058185212524,0.368064330805752,0.159357955355063,0.0343849064188065,,,,,1.88084050141636,-125.058018224367,2.09279293142822,AttemptLanding,AttemptLanding,1,0.5168071667511,0.195221680897804,0.200462368808378,0.894481317038545,0.346640806572212
6,1.88914213531392,2.64463472366333,-1.04225435361192,-1.56124654146379,1.88914213531392,0.0057027955332445,0.0049830256535816,0.0075731381578739,-0.0590980190377775,-0.127860962544688,0.143273186232252,0.0092500130404929,0.131203380329198,0.132334332040002,15.4185581640917,1.95552187294576,1.84309001634457,0.0296141764800623,0.0495606827924519,0.126004201721626,0.444272901161085,0.0234117419884994,0.0071141030853607,,,,,1.9161886291726,-122.783489357006,1.56484618544139,AttemptLanding,AttemptLanding,1,0.530238102491713,0.171374241040894,0.115816709862586,0.955346675486973,0.343998132568166
7,1.92088012598656,2.63743090629578,-1.07818235617687,-1.56738057786268,1.92088012598656,-0.0593758491306542,0.00651389918506,0.0597320880480445,-0.0648402568969029,-0.131482762454083,0.150531799926542,0.0097144600665592,0.153160945597279,0.155586630000942,15.3344485147385,1.2190195055636,1.27281018314035,0.176847218283562,0.243539588314216,0.176710609415677,0.482123121345461,0.15619762128144,0.0389528205768482,,,,,1.96867067391655,-123.586570068552,1.94900335057362,AttemptLanding,AttemptLanding,1,0.543352026263272,0.172174808378381,0.186890712068947,0.891997729018402,0.32146195137081
8,1.91756880847183,2.69710445404053,-1.11394905734853,-1.54264410547594,1.91756880847183,-0.0588456682553518,0.0053940203081452,0.0590923694524395,-0.0676211861631895,-0.126112836233026,0.146483173537929,0.0094472589212976,0.122160753052315,0.124501613806066,15.4585660871155,0.854825121669818,0.832278201151607,0.176524148832743,0.240260072591102,0.144192930382674,0.478735948208995,0.157378226160995,0.041143292954483,,,,,1.96461919299708,-125.030810267647,1.69530278687386,AttemptLanding,AttemptLanding,1,0.536252005020369,0.186229121319237,0.196644548523311,0.89848211376146,0.335914253163256
9,2.62610195067105,3.0,-0.82557203748139,-2.45892484290199,2.62610195067105,0.0063276345635399,0.0057241238068921,0.008532558381068,-0.0444356482757161,-0.314789352869133,0.320172672171321,0.0206723029637095,0.200774263946721,0.203280751452986,15.405833155115,1.76124047162629,1.97682290522702,0.0298341642398282,0.0506015437225445,0.122193832160551,0.448235254622654,0.0188484526835306,0.0063943565734815,,,,,2.98365709536118,-106.900241715489,1.7701584678812,AttemptLanding,AttemptLanding,1,0.740950003802877,0.0856913634688765,0.0621171287350702,0.955712419919096,0.345691630150866
10,1.88069220652451,2.75657367706299,-1.12915160492974,-1.48125333637565,1.88069220652451,-0.0509475388447762,0.0104157931451934,0.0520013505707634,-0.0705250258587655,-0.117309309301617,0.141259419201404,0.0091107263906036,0.145758359040478,0.148062604702633,15.4454931340725,0.794370080403418,0.972542536036021,0.175899438174336,0.240264500857518,0.147178366716061,0.413279835720491,0.15967966283789,0.0351109832563828,,,,,1.92399487038037,-126.353098118705,1.71020720065255,AttemptLanding,AttemptLanding,1,0.531130442680397,0.20660691180913,0.207700516399589,0.898167396069379,0.33458739257064
11,1.86151129973901,2.6072301864624,-1.14908559860322,-1.44108603177853,1.86151129973901,-0.0626156288402217,0.0025946133414944,0.0626693624783935,-0.0727039927165249,-0.110891438380302,0.137133220200228,0.0088462070514124,0.14045014015993,0.142653511139501,15.4314046638901,0.893982444377323,1.10775502839983,0.176018937837521,0.240233253203225,0.162391414759414,0.483803932889224,0.159346704051744,0.0366830229131259,,,,,1.90759543141243,-127.844704273722,1.84312735240552,AttemptLanding,AttemptLanding,1,0.524933715491637,0.179276132633801,0.19172571799593,0.896262593795133,0.327826037884705
12,2.62014137063935,3.0,-0.780918081309728,-2.46795625651162,2.62014137063935,0.008232116953571,0.0013513683187184,0.0083422985963167,-0.0405519593646223,-0.317250166397492,0.321848518911022,0.0207813573363288,0.192594507639221,0.195154676991579,15.3907537551181,1.94628723693171,1.69805896118834,0.0303812759906725,0.05563236559188,0.133443346741877,0.435988537860015,0.0228909706309553,0.0050858805376378,,,,,3.0,-106.299635778902,1.60358666584611,AttemptLanding,AttemptLanding,1,0.737735300902144,0.0869976130154699,0.0642217436387466,0.956175213305149,0.340691845892499
13,1.98987236438982,2.69023394584656,-1.06014558634089,-1.66823524078154,1.98987236438982,-0.0590196923147202,0.0057283325622237,0.059297030911064,-0.0614904358170983,-0.147108472334574,0.162047251743985,0.0104517649517784,0.130289219763332,0.132809418277345,15.4274326063103,0.961818183168561,0.933421876685818,0.17629331651722,0.240261456813586,0.157054453195938,0.447775640310261,0.155620234745172,0.0422237108024712,,,,,2.02726066309477,-121.319262228342,1.94300677340154,AttemptLanding,AttemptLanding,1,0.55719451415942,0.168452478161462,0.185590112327953,0.896962169842534,0.330198020801805
14,2.66641183215804,3.0,-0.730908885860081,-2.5290117764742,2.66641183215804,-0.0281713073765127,-0.0083071165198835,0.0293705761635158,-0.0344686284218498,-0.328268187060085,0.33173970741406,0.021415684592094,0.201897768935741,0.203894415721386,15.3835046411383,1.88256280245267,1.44955738362201,0.0633999955062875,0.240266165151079,0.128604149193901,0.518278378759739,0.0018768140358466,0.0095944551102553,,,,,2.96211416560549,-104.652706865072,1.50774660535045,HoldLanding,HoldLanding,0,0.751822038386422,0.0804419433944179,0.0525881983755038,0.942119057927698,0.342842600358266
15,1.72315667932098,2.52210998535156,-0.926591147002251,-1.43371976377897,1.72315667932098,-0.0536877321243526,0.0006126909960492,0.0536912280629981,-0.0482511651134814,-0.11075251917035,0.123610569004803,0.0079738150485387,0.140848600745001,0.142786842412073,15.3907233900203,0.886146842491114,1.06429790008587,0.177181343154398,0.240248618842326,0.161374666557142,0.474709788616124,0.15991325985719,0.0349999766717322,,,,,1.78867162897179,-121.8764556945,1.91622848655955,AttemptLanding,AttemptLanding,1,0.488065816301342,0.189607885668431,0.197564555581854,0.89608440544541,0.328277925974604
16,1.75735652725832,2.73036336898804,-1.00385518336851,-1.41305054871707,1.75735652725832,0.0074206650200534,0.0035187360834155,0.0082126593113665,-0.0588136833838929,-0.109582988908157,0.129471019640784,0.008358330317631,0.189206946221837,0.190192569234001,15.3830181464975,1.92886360665795,1.73430723801965,0.0306084087830233,0.0542133810421274,0.126895765692578,0.425038816880084,0.0227395699005175,0.0063574744843053,,,,,1.79698325918466,-123.928221238646,1.5,AttemptLanding,AttemptLanding,1,0.506666921115686,0.22043219359627,0.144677600572487,0.955913738971736,0.34360188191441
17,1.86476354150964,2.67052102088928,-1.02454992263303,-1.54424047785134,1.86476354150964,-0.0638049571453717,-0.0144261271846202,0.0654154851840874,-0.0575917606304728,-0.126447558248646,0.141201877761477,0.0091067256650699,0.131950136308791,0.134229086322674,15.4682186664482,0.813531104584573,0.815846162127431,0.176248215762903,0.240218168114756,0.163323351999785,0.363688363928212,0.159300380082099,0.0368263590075907,,,,,1.90606506718967,-122.683382350962,1.69984753145385,AttemptLanding,AttemptLanding,1,0.524116095000439,0.193288271810835,0.200164535287366,0.899073642165812,0.327411843555651
18,1.8228181360552,2.51756453514099,-1.04460751980032,-1.47467068064274,1.8228181360552,-0.0617937415845301,0.0051024514446791,0.0620040443016501,-0.0609847243051298,-0.118060791121202,0.136208118582635,0.0087844949908553,0.150791810582578,0.152780733920681,15.4584346629004,0.850071965194352,0.795613825257156,0.176412464737123,0.240284918173911,0.137495849827868,0.410227280104102,0.158959617149858,0.0343617577993209,,,,,1.87952489310621,-124.36494621675,2.01142440892975,AttemptLanding,AttemptLanding,1,0.516640983065522,0.167685347916273,0.183755112137332,0.898863379277891,0.338890733409837
19,2.61441067509029,3.0,-0.780089878804795,-2.46053947880334,2.61441067509029,0.0097520867269897,0.0040510894927353,0.010560043636694,-0.0409964126189801,-0.315325989044265,0.320066103916159,0.0206688765483036,0.197042329216665,0.199458310761751,15.3880243642796,1.94512417676746,2.02186641566043,0.0294927869893548,0.0575909105499169,0.126135702508268,0.436683536507378,0.0235164348317292,0.0079753362939821,,,,,3.0,-106.031594526481,1.64861129956795,AttemptLanding,AttemptLanding,1,0.737067842176428,0.0886936061047448,0.0665680347656696,0.954084394707675,0.343939687774103
20,1.87989681475871,2.67283296585083,-1.01102022108785,-1.57069917744444,1.87989681475871,-0.0501641853099311,0.0081693820579283,0.0508250360650881,-0.0555889424256302,-0.130179508070559,0.143839726865407,0.0092777700799881,0.125585009067397,0.127895604780279,15.458380956518,0.928190404447907,0.897976984371964,0.175771186358789,0.240234643603879,0.145245235987969,0.42398287502632,0.15899930072216,0.0362115031998396,,,,,1.95533603544456,-121.682915799118,2.30080591959486,AttemptLanding,AttemptLanding,1,0.526884938225046,0.187728557274326,0.196471309586507,0.897765948765592,0.335446561783125
21,1.959419953662,2.6827232837677,-1.09253362710684,-1.61048963102482,1.959419953662,-0.0510505516738206,0.005177485384932,0.0513124271606071,-0.06523624048939,-0.137112243014312,0.154636775849323,0.0099741449951447,0.12852624966448,0.131109640783875,15.4014010284226,0.946786004460448,0.884016606415788,0.176499240102796,0.240222021053553,0.119220417207203,0.504436166082899,0.159884107387974,0.0361897779463595,,,,,2.01006102178809,-122.843348050567,2.20675047377744,AttemptLanding,AttemptLanding,1,0.548733915799974,0.172150527586561,0.187509839088703,0.897365502291717,0.34701314790791
22,2.62994338915898,3.0,-0.736052034410447,-2.49253787947277,2.62994338915898,0.0060547285070015,0.0094649258256222,0.0112358603666132,-0.0369244506701321,-0.323093898679418,0.326857451121425,0.0211066537626394,0.190936912353787,0.19351585862667,15.3693855281144,2.0625267254677,1.80489779973988,0.0204897172419088,0.053584701085801,0.130120507786924,0.445769366286269,0.0002420574101859,0.0064101035472704,,,,,3.0,-105.373889448931,2.23152802387387,AttemptLanding,AttemptLanding,1,0.740021408834396,0.0853226451731081,0.0536321149195205,0.959368234395272,0.342168663205812
23,1.71928951788593,2.49300956726074,-0.836440081373873,-1.48906798443744,1.71928951788593,-0.0387534606132414,0.0102055329702852,0.0400747253603768,-0.0387424022704476,-0.117602207543497,0.125378728013312,0.0080877836355318,0.115600370817537,0.117662266862483,15.3870960414731,0.942873633414417,0.986587063004718,0.177535808812744,0.240209210931533,0.163702157491858,0.483172067342978,0.159239762870161,0.0361153405422754,,,,,1.75191981509009,-118.497538474994,2.32230384359881,AttemptLanding,AttemptLanding,1,0.482009658142078,0.181434044092069,0.192766505503817,0.896072047264621,0.327243485559174
24,2.64027820430069,3.0,-0.592446964608962,-2.53710837840656,2.64027820430069,-0.021040816042379,0.0044889739425772,0.0215143400267443,-0.0276197222216309,-0.338396768657314,0.340739006857713,0.0219936855592644,0.202278157978673,0.204246662464465,15.3853864371589,1.72770930001621,1.35512945149178,0.0835529015681145,0.240513840586818,0.125292329611567,0.460565629840317,0.100480960779683,0.102005276432838,,,,,3.0,-102.185830974197,1.5,HoldLanding,HoldLanding,0,0.744923520306411,0.0848816997039138,0.132680052407078,0.934001244739809,0.344314520172637
25,1.45832638132492,2.58812046051025,-0.81478803005639,-1.19834219908018,1.45832638132492,0.0063946575453067,0.0323132360128347,0.0329398977949676,-0.0437464101788025,-0.0919727602471874,0.103616795165547,0.0066823272822164,0.126184614141147,0.127173290974917,15.4748360635497,0.480645855325723,0.696250642674778,0.132435073010174,0.242916275071701,0.225946497351053,0.40425864283181,0.159218547056869,0.0353615586377232,,,,,1.79680657025774,-122.144595008979,1.74819583342675,AttemptLanding,AttemptLanding,1,0.414321693214962,0.26024264907911,0.239768136734944,0.924535419582052,0.299579334510643
26,1.85447516748339,2.68834495544434,-1.03778645330774,-1.51479962766973,1.85447516748339,0.0031374484551442,0.0029686101728908,0.0043192857242,-0.0600266354846232,-0.122130281135518,0.13982768976314,0.0090296825558157,0.156032199868682,0.157060921984759,15.4004533851262,2.02109957176244,1.86763755738149,0.0255164033547599,0.0506963732877142,0.132534949305658,0.437595491813228,0.00119897961545,0.0091057392300811,,,,,1.89015622586425,-123.159855511628,2.05017341082135,AttemptLanding,AttemptLanding,1,0.525938895725856,0.188412571340649,0.116891600535326,0.956687435165061,0.341095578086374
27,1.70888615814631,2.69400000572205,-0.828931264508635,-1.46857526061283,1.70888615814631,-0.0685135739030582,-0.0011753098048541,0.0685236540335322,-0.0416148584300317,-0.118060210174107,0.128393096474917,0.008282305411778,0.179511099485204,0.181452593496372,15.402133360768,0.976654307121092,0.971006670159598,0.176072709166774,0.240225788812994,0.149460795694226,0.425357394922098,0.158045371805406,0.0345371626315217,,,,,1.77620387229689,-117.832865156267,1.5,AttemptLanding,AttemptLanding,1,0.491993494204958,0.234213285610687,0.223329327065126,0.896660594880836,0.333572979691455
28,1.72647554648889,2.36477756500244,-0.97011621488462,-1.41382981969783,1.72647554648889,-0.0509895079356999,-0.0004568475604636,0.0509915544891339,-0.0512158575494168,-0.106163379186916,0.120158024611033,0.0077500360865162,0.113676612923255,0.11549935980365,15.4415871642037,0.87111014524853,0.931345869472115,0.176646657325066,0.240248991392363,0.148364369035448,0.455294875948686,0.158966196048573,0.0366223020985159,,,,,1.77693740749085,-123.63065316624,2.36926209456809,AttemptLanding,AttemptLanding,1,0.483493351024434,0.15296640582189,0.175748686944486,0.897514516936091,0.33406028042869
29,2.61746474372902,3.0,-0.517702071639595,-2.53038412137435,2.61746474372902,0.0085190723214138,0.0037172395132143,0.0092947545861136,-0.0235743460785553,-0.333868159457691,0.33557416419156,0.0216759155367608,0.199783199552224,0.202392967465017,15.4094881931293,2.16056889218107,2.05275363644706,0.0271016007613474,0.0513401546150087,0.142948939161345,0.470008545019926,0.008209444240019,0.0071606128490714,,,,,3.0,-100.208461528465,1.96776063222765,AttemptLanding,AttemptLanding,1,0.738469191820742,0.0877744710017579,0.0589171837033518,0.953344522608677,0.336467138150513
30,1.83197368882798,2.53735947608948,-0.927926344650296,-1.55709685423998,1.83197368882798,-0.0685792779727893,-0.0024871823516597,0.0686243647935594,-0.0497366926360082,-0.13062856414796,0.143068880504482,0.009228119822898,0.156392441549724,0.158642899514038,15.4295563115063,0.951332895349727,0.879648773737548,0.176557113537492,0.24026403681671,0.13259220416065,0.369713985507768,0.160137907558824,0.0349066628814149,,,,,1.90894849737311,-119.745808657761,1.73988968739679,AttemptLanding,AttemptLanding,1,0.520254896923602,0.171292935679323,0.186641496723949,0.897335158688425,0.341070131484156
31,1.88316821971455,2.70057582855225,-0.944249721616413,-1.60691257496888,1.88316821971455,-0.0675086280371973,0.0010249997273508,0.0675164089974114,-0.051016185938209,-0.138269420146732,0.150613136699438,0.0097144742895852,0.149881973691784,0.15222225485858,15.4633444811597,0.827200323889872,0.985679379093405,0.177179987567822,0.240259137776672,0.164014360208708,0.434714331101925,0.159329483635558,0.0358715646793588,,,,,1.95935225919259,-119.13516242978,1.58744869841215,AttemptLanding,AttemptLanding,1,0.532622642895596,0.196294720304673,0.201634141358778,0.897165951406934,0.32710472879613
32,2.63023934117129,3.0,-0.643056622332014,-2.51465017690595,2.63023934117129,0.0062801576625608,-0.0010474210928418,0.0063669043665153,-0.0312929206549151,-0.328471264303685,0.331321086995834,0.0213948695431407,0.200756415777018,0.203366042949437,15.4154063924686,1.9894200359813,1.82852123916632,0.0298473022224534,0.0564653602597056,0.133057326377433,0.453694386267935,0.0199931999479327,0.0059774463416866,,,,,3.0,-103.01941117063,1.73140087866337,AttemptLanding,AttemptLanding,1,0.742070366235565,0.0843634140369875,0.0616775319172406,0.955078238869756,0.340863410498919
33,1.88879147471998,2.74155068397522,-0.831176021190502,-1.68190709070108,1.88879147471998,-0.053935629481402,0.0082697315970063,0.0545659288223119,-0.0387519974607547,-0.149383910698742,0.15585180671593,0.0100534253127817,0.127043834795247,0.129513956060399,15.4104970244687,1.01320176172482,0.970751922244555,0.175876934903525,0.240240262131747,0.179339640351254,0.385853816064373,0.155521230552139,0.0419080488521535,,,,,1.93692079365451,-115.089103932968,2.37145732227419,AttemptLanding,AttemptLanding,1,0.529580517804073,0.201874575699854,0.205484582823666,0.896473325031335,0.32029349317722
34,2.67299009823218,3.0,-0.599122392352672,-2.56542100267293,2.67299009823218,-0.0338459723027812,-0.0078910003968417,0.034753672156818,-0.0253749478204772,-0.339582664863787,0.341569789851817,0.0220514358733495,0.203020664333321,0.205043431465711,15.4027459736788,1.74622626570449,1.52833131974758,0.0638547313071394,0.240258408899484,0.136556425089457,0.412280157527868,0.0018833644485242,0.0093995788042826,,,,,3.0,-101.157933097739,1.52709007068521,HoldLanding,HoldLanding,0,0.753806045821722,0.0799487344598437,0.0522243201980197,0.942343967603593,0.339308255515797
35,1.83076287476008,2.78670072555542,-0.835209476369981,-1.59963871177641,1.83076287476008,-0.0810921807709392,-0.0021553472283424,0.0811208191764691,-0.0431230199422861,-0.140232948812965,0.150030843177356,0.0096766767303611,0.179180868534948,0.18144389712883,15.4085918683009,0.971659327217584,0.867761134225356,0.176259363298359,0.240266605279061,0.171262625557237,0.456699016485345,0.156293343580916,0.03969401287199,,,,,1.86137587595629,-115.841095627455,2.15790359677382,AttemptLanding,AttemptLanding,1,0.524492212695122,0.229958166611303,0.221872794723872,0.897417729010912,0.323883277530117
36,1.98019727536268,2.77289223670959,-0.890267162346115,-1.75290094625019,1.98019727536268,0.0073132583019605,0.0054137109393056,0.0090990116565235,-0.0441471721757997,-0.160692461741012,0.168447739609629,0.0108781017238272,0.134719470540753,0.136080967488551,15.407746475456,1.99142780895194,1.98392184652859,0.0279209805021075,0.0588494091630371,0.13877820929854,0.497814515373316,0.0114305925987341,0.0081250309535549,,,,,2.00134863438598,-116.022448666907,1.913461355397,AttemptLanding,AttemptLanding,1,0.555268800261093,0.180024518440084,0.116049531151649,0.954804619598742,0.338320795867316
37,1.80837903166777,2.52851557731628,-0.815682567163848,-1.60379900560993,1.80837903166777,-0.0488016681467768,-0.0063645991752838,0.0492149462721453,-0.0367980787800088,-0.135564261863373,0.141514851119671,0.0091273386007991,0.121865388392451,0.124196444794537,15.4662331707837,0.760946628212148,0.905812963783985,0.175559924098596,0.240208778791821,0.156525803599213,0.369497345319275,0.157048333701714,0.0414993025631043,,,,,1.84847057739295,-116.145839673518,2.18452757266276,AttemptLanding,AttemptLanding,1,0.507073697403647,0.171053462920808,0.187521992652961,0.899124069727875,0.330432976178128
38,1.94262926770537,2.72294545173645,-0.763337428950095,-1.77109632204362,1.94262926770537,-0.0576157960280172,-0.0086635881880994,0.0582635195661492,-0.0335963668877768,-0.16562735385561,0.170205249194633,0.0109797485892443,0.135286072990186,0.138037895945444,15.4322251771819,1.03547327499886,0.842942043333819,0.175807971819858,0.240273774138778,0.17860081583327,0.420469731280135,0.155243829491678,0.0412789533722843,,,,,1.9993932608471,-112.620106358339,1.57925686280659,AttemptLanding,AttemptLanding,1,0.545642050577187,0.186252786660788,0.195759458047342,0.897337036588886,0.320621859629658
39,2.62778370515957,3.0,-0.634346559600877,-2.51936443238149,2.62778370515957,0.0041497910684739,0.0047594312195316,0.0063145032619707,-0.0295084891947565,-0.330123703695249,0.332610389546876,0.021475135021367,0.190791380579557,0.193434110850673,15.3879217844373,1.96644123397108,1.86008235452938,0.0300939969054922,0.0693853760473805,0.134013502632933,0.483350412006767,0.0216937966121004,0.0071458137997971,,,,,2.9987372183553,-102.731971335258,1.73999865557189,AttemptLanding,AttemptLanding,1,0.739429143546021,0.0849063252704573,0.0631839602908108,0.954887459066179,0.340438443274252
40,1.91662948323576,2.80507564544678,-0.298349458386036,-1.88124726827982,1.91662948323576,-0.0485151708946016,-0.0225557243606526,0.053502172931257,-0.0072872935503736,-0.186840551282484,0.187113996299171,0.012071122477791,0.130937802576274,0.133934900852833,15.3944256124467,1.17575029918508,0.806245547072563,0.176016727434699,0.24024665146806,0.148947596357638,0.416249662860952,0.15499742020892,0.039974477715945,,,,,1.96262077332345,-97.9255988407311,2.18991304332558,AttemptLanding,AttemptLanding,1,0.537888175700103,0.209709118201542,0.20924938695089,0.89641881177634,0.333801068285494
41,1.88076630556906,2.82795381546021,-0.276636210291448,-1.83460332781299,1.88076630556906,-0.0763805566874139,-0.0325471355332166,0.083025932522898,-0.0092375297175446,-0.183389822249754,0.183930941247316,0.0118633075947367,0.186716900279038,0.18971808361821,15.4243473497737,0.948554935163405,0.757522537775786,0.176800140155911,0.240276241732662,0.122456697122459,0.473552606137349,0.15931088652779,0.0361724392355774,,,,,1.94919332297993,-97.076725643542,1.79210790016035,AttemptLanding,AttemptLanding,1,0.539481298208724,0.22833861068804,0.220961619137102,0.898195035491808,0.345574801278907
42,2.61084917556482,3.0,-0.618859206827408,-2.50376767579061,2.61084917556482,0.006000689988661,0.0015355928216135,0.0061940556708677,-0.0288514373621903,-0.326451686738626,0.328902881317955,0.0212413194179906,0.196597276913532,0.199193904872589,15.3216401397583,2.04306414143938,1.89855661387808,0.0255985581075856,0.0792371257690083,0.137383157851832,0.522784160906958,0.0061669468066343,0.006168324831142,,,,,2.97766096785849,-102.83550377438,2.02818186444081,AttemptLanding,AttemptLanding,1,0.736065227791803,0.0886945123709079,0.0582005998812622,0.956230843582999,0.338940818732519
43,1.79564798844827,2.44696092605591,-0.25074994176836,-1.76472637082225,1.79564798844827,-0.0508312227881313,-0.0318810385030234,0.060001781858274,-0.0058988127862808,-0.165133519606486,0.165356741153479,0.0106660998306635,0.118844116469932,0.121437313217435,15.4138223773654,1.01865987913792,0.797547167138596,0.176792778731802,0.240194131059891,0.164821130983733,0.426618110671228,0.159337392047971,0.034169469599206,,,,,1.87761184680711,-96.9149867627548,1.84805555689857,AttemptLanding,AttemptLanding,1,0.503126926229693,0.157545737635735,0.177769322941867,0.897333412413355,0.32674616400723
44,2.54500899576559,3.0,-0.624357997152652,-2.43509765024915,2.54500899576559,-0.0271372633445037,-0.015138878865675,0.0310743739299527,-0.0270777617082927,-0.305689717039718,0.308059675068658,0.01988540560354,0.220822746992225,0.222604437912535,15.368588619807,1.61450141578403,1.42522781099804,0.0634148039918025,0.240227116769217,0.122413105022294,0.4177453622065,0.0018967582881557,0.0088753422808801,,,,,2.70268226585959,-102.84402520654,1.79942968903028,HoldLanding,HoldLanding,0,0.723189953119998,0.108069944506566,0.0689123675806119,0.94440901122224,0.345594175545647
45,1.64279022530929,2.54211211204529,-0.221454425858503,-1.60284894145945,1.64279022530929,-0.0649714744362729,-0.0287781402153835,0.0710596499054107,-0.0066803206075049,-0.14126430370738,0.141674479693034,0.0091407729550274,0.179426380573949,0.181825991175505,15.380329914445,1.11917119915636,0.930142494407421,0.176854139726661,0.240233713192269,0.167237749864118,0.495058781217122,0.158872497881137,0.0372491758001636,,,,,1.74484723470437,-96.8322370152764,2.05285519628021,AttemptLanding,AttemptLanding,1,0.474442591650913,0.215375026998257,0.21338017009366,0.89547117968724,0.325672111171503
46,1.67749084597049,2.46174669265747,-0.224616717547682,-1.65186435521486,1.67749084597049,0.0037521283838838,0.0044793551961785,0.0058432089114353,-0.0045535903209741,-0.142199557440452,0.142350220670562,0.0091914459274163,0.107788608930296,0.108993875837671,15.4113642464869,2.07438102156415,1.76060072433669,0.0297040673847501,0.0684511151921378,0.127583686703508,0.473256794004981,0.0240011173722155,0.0067052029193747,,,,,1.71876069037497,-96.5690723186371,1.59719246004735,AttemptLanding,AttemptLanding,1,0.46912966742633,0.177528820471668,0.119622711166586,0.955015966875547,0.343296139242885
47,1.79350676072524,2.55863547325134,-0.150278192434631,-1.77037497394652,1.79350676072524,-0.0598376452602547,-0.0282596670486859,0.0661751658252147,-0.0034578736221681,-0.165448052031742,0.16556612141507,0.0106785595514744,0.133947950140833,0.136604968686068,15.458905139341,0.959802715146483,0.625418593989235,0.176452002119879,0.240217947878473,0.137747081728713,0.339882443672243,0.15576876157327,0.0404196140547602,,,,,1.8330973949862,-93.5355183886098,2.08612659651139,AttemptLanding,AttemptLanding,1,0.505589463263944,0.184286074052996,0.194500246605487,0.899318688653994,0.338779074787239
48,1.71231278757386,2.37218904495239,-0.205122251047025,-1.68830448081776,1.71231278757386,-0.0522847527298636,-0.0156945669776653,0.0545895118190244,-0.0043089639664669,-0.15164645052187,0.151785024045752,0.0097905792600266,0.125070683959079,0.127555202182335,15.4200871939762,0.956030720187465,0.74544089862264,0.177933537443593,0.240252325243354,0.157224341061331,0.413192540158228,0.156474861207108,0.0347212423388081,,,,,1.76093856199151,-95.8152911333806,1.58462761089475,AttemptLanding,AttemptLanding,1,0.482127783789496,0.158480235076991,0.177258430109931,0.897664525701839,0.330122515083853
49,2.54254693301465,3.0,-0.70557764128263,-2.41219061610595,2.54254693301465,-0.0140881528486728,0.0208168677621756,0.0251359908122889,-0.0354441192438451,-0.312736091697179,0.316135355399917,0.0204022532142069,0.187334566247775,0.189511669418188,15.3217413847707,1.47606485227973,1.26951783759622,0.0272637446623249,0.0869520336863418,0.270113955514883,0.627143531022674,0.0110140083264596,0.0160471611532031,,,,,3.0,-103.690253195533,2.13352212062157,AttemptLanding,AttemptLanding,1,0.71591484935421,0.107535205053958,0.075251569172572,0.964795692248384,0.279949353104496
50,1.66033497412462,2.50191259384155,-0.162536354736643,-1.63012053461525,1.66033497412462,-0.0670482234104722,-0.0344214544542822,0.0753677702287179,-0.0043405399003585,-0.144619437287979,0.144826275275796,0.0093454848635008,0.162449331955357,0.164727950253191,15.3345532563051,1.25042214780306,1.01782874265546,0.176947180260118,0.240231156539749,0.148842646211922,0.449098334049051,0.157205535235949,0.0400941256750619,,,,,1.72627812567413,-94.411640590645,1.83412157168632,AttemptLanding,AttemptLanding,1,0.475701583150538,0.20317238897824,0.206352242222136,0.893704438587767,0.333847712794701
51,1.62055087572819,2.3472580909729,-0.145367791294506,-1.60212013860542,1.62055087572819,-0.0394770622461198,-0.0296251151942059,0.0493567208579945,-0.00293567576698,-0.135005046316343,0.135096224720868,0.0087138704266568,0.117772848750307,0.120225920960649,15.4345613958446,0.807431238034623,0.746452711605778,0.175515284288341,0.240180182744862,0.14731452967931,0.382155775486625,0.159909741374569,0.0365961426024475,,,,,1.64198518080473,-93.7945426045898,2.29560585758351,AttemptLanding,AttemptLanding,1,0.456192084386315,0.172557855587358,0.187913397737962,0.900033269680083,0.334526875698084
52,2.61160695712303,3.0,-0.623122790823511,-2.50443018614457,2.61160695712303,0.0069536872325604,0.0030117403042543,0.0075778853111236,-0.0290167086252063,-0.326880067497933,0.329367953077173,0.021271096234486,0.197884321937271,0.200448150726122,15.4146571934215,2.06146562173191,2.06503386916772,0.0182650382112484,0.049241271165417,0.136651924781847,0.402947145133566,0.0001812038079742,0.0062383144931134,,,,,3.0,-102.899260755177,2.30178672847717,AttemptLanding,AttemptLanding,1,0.7365181520447,0.0887777136210237,0.0556156411958764,0.95844498489445,0.339265811208068
53,1.73803964797282,2.47513890266418,-0.135938064018809,-1.72194775809592,1.73803964797282,-0.0456271929646726,-0.0370680900680624,0.0587867675512905,-0.0025229263019707,-0.156358330185138,0.156419752313458,0.0100898745002621,0.11437565816111,0.116872380115793,15.4346499837001,1.04788728544091,0.777562424392036,0.17631803990478,0.240217673826644,0.145022083821009,0.445638603890052,0.157064560260864,0.0405118150770286,,,,,1.76767167051157,-93.7767495596924,1.99968740475396,AttemptLanding,AttemptLanding,1,0.486851715482578,0.176624906356626,0.190512984159946,0.897498160898922,0.335545740523996
54,2.5981137267281,3.0,-0.567231366020415,-2.5000498221605,2.5981137267281,-0.0170508079328965,0.0195347797573376,0.0259294749528835,-0.0273878776227533,-0.339449371084588,0.34170431612571,0.022059604162476,0.202992883360836,0.204990502297733,15.3834591918714,1.79673184970717,1.4288660077695,0.0624616822196751,0.240466433165119,0.13342243337996,0.39214127386299,0.0019227083773581,0.0092437764218189,,,,,3.0,-101.106544404973,2.23140909902406,HoldLanding,HoldLanding,0,0.733828427587041,0.0951781485608722,0.0613227994374247,0.943425175724274,0.340701140720018
55,1.67033653968089,2.39442300796509,-0.151872410236679,-1.65187927089143,1.67033653968089,-0.0387378605505316,-0.0136027502066994,0.0410567491798644,-0.0031208589015758,-0.143482190997729,0.143572383769147,0.0092618242630997,0.114662492483878,0.117149641004976,15.4418188367371,0.983855353783499,0.818969584622609,0.175950582576,0.24017395796723,0.148171408911386,0.389402190944774,0.159260466967842,0.0375867001024145,,,,,1.6954412846166,-94.4207914550518,1.73821656583294,AttemptLanding,AttemptLanding,1,0.468853005449233,0.170446526046919,0.186718236337969,0.897859655624524,0.334146040483829
56,1.70677743747482,2.383220911026,-0.0862961991695945,-1.69349313338762,1.70677743747482,0.0022256780119706,-0.0010650325326401,0.0024673744970213,-0.0015428343037925,-0.150256569234607,0.150296039461701,0.0097057133430582,0.118490711001098,0.119698354689235,15.364119533424,2.05183783631045,1.93860032438418,0.0247003058071077,0.0712063759575819,0.127551219369894,0.453683481507988,0.0054654858444777,0.0049064982883023,,,,,1.73280982852964,-92.1431804697514,2.05336986989079,AttemptLanding,AttemptLanding,1,0.479080320931131,0.152652133540137,0.0958045661395966,0.956296404405274,0.343310569168936
57,1.61514259184767,2.18158221244812,-0.201687924219022,-1.59155989950598,1.61514259184767,-0.0501081751228713,-0.0252221128934187,0.0560979874233711,-0.0039928451458003,-0.134077034813493,0.134209863571031,0.0086564307396523,0.122434782060747,0.124558334632527,15.4647024377726,0.848293644125723,0.740885722819471,0.175573353477933,0.240200137898261,0.154584215634851,0.340632092230012,0.15612623455103,0.0415784808341006,,,,,1.65239533729994,-95.8334835366937,1.53153837471426,AttemptLanding,AttemptLanding,1,0.455616358085884,0.137733545662719,0.167149012551904,0.899726913949321,0.331295904162288
58,1.63000167946558,2.43920588493347,-0.112364146408247,-1.61062436491712,1.63000167946558,-0.0479717487100172,-0.016532329949624,0.0507405814694734,-0.0023441435727454,-0.13895924862827,0.139044991936862,0.0089707634023253,0.137886120871532,0.140190408941317,15.3834386798648,1.08032701129873,0.864259084473241,0.176374284464677,0.240202721968118,0.183504768492574,0.419659125290832,0.159401202196108,0.036809802421879,,,,,1.68060545220575,-92.4282145747537,1.66014531775311,AttemptLanding,AttemptLanding,1,0.462705196312417,0.191373386166346,0.199054393152499,0.896533967015168,0.318442325114412
59,2.52957007318835,3.0,-0.518403921271895,-2.44075940694672,2.52957007318835,0.0049649835146534,0.0070489121036429,0.0086219616761885,-0.0238374645761481,-0.3127226558265,0.314565851393931,0.0203135901628956,0.216536334089106,0.218999182762492,15.3734091613366,1.88902590615012,1.93373985470919,0.0300668859157486,0.0661068749223091,0.121041444643149,0.453444764143869,0.0214139508565617,0.0079655861960615,,,,,2.78982386220964,-100.41262924442,1.74714996138927,AttemptLanding,AttemptLanding,1,0.718351856069391,0.10742742650659,0.0768703441943268,0.95493054034966,0.346203802380823
60,1.65532796174888,2.42555785179138,-0.0941107939895798,-1.63378308024393,1.65532796174888,-0.0586247826700109,-0.0298701719859729,0.0657958381478465,-0.0019748552425955,-0.142927434983204,0.143020711000033,0.0092253840680179,0.147686421438758,0.149966456085599,15.3447090093249,1.02287345485688,0.770482411124428,0.176991334578559,0.240183425746835,0.141009087685381,0.451918757386734,0.155687792897945,0.0402200449212615,,,,,1.72864210057146,-91.9462754292346,1.97766554677996,AttemptLanding,AttemptLanding,1,0.471414081016821,0.185364295586668,0.195038622853769,0.89741367947801,0.337329294362053
61,1.57266255206353,2.29081726074219,-0.186908266985382,-1.54667370043417,1.57266255206353,-0.0478399434656861,-0.0177918388088737,0.0510412550688263,-0.0041714582185385,-0.128076868759595,0.128241633138946,0.0082716653729007,0.134616537411697,0.136777576765032,15.4139285040087,0.838712373572077,0.750878372179725,0.176449342311881,0.240186374661568,0.125542885426956,0.437734739298452,0.159282943468577,0.0359883862897414,,,,,1.6541677253945,-95.777639022521,2.08321797637032,AttemptLanding,AttemptLanding,1,0.446732195903281,0.170942372881983,0.186444528972099,0.899285687270295,0.344203162032464
62,2.61363258050836,3.0,-0.534751215543692,-2.52262134626399,2.61363258050836,0.0064225576390886,0.0086267376571965,0.0107549918286119,-0.0248500927881356,-0.331333213516906,0.333258110785198,0.0215145978271194,0.204183485929316,0.206901785123673,15.4097822476548,1.93337289870731,1.6723784320278,0.0195188583246147,0.0525241208831651,0.122140868458474,0.404561820892578,0.0001461838566532,0.0061047215884014,,,,,2.96888331606625,-100.576107342626,2.26936474500038,AttemptLanding,AttemptLanding,1,0.738349045160296,0.088904417887532,0.0556275200948949,0.961909667524774,0.345715169574012
63,1.57605061115034,2.27918219566345,-0.0872344413931113,-1.56274123918612,1.57605061115034,-0.0393954715050354,-0.0278857458969105,0.0482661164724397,-0.0014979693354797,-0.129050525387631,0.12909044137538,0.0083267612468859,0.11586511169183,0.117995492329947,15.4267717155285,0.980345309057451,0.732549730345008,0.17582360949872,0.240172893013968,0.135290512836884,0.447509322089662,0.156515777566167,0.0419247506771999,,,,,1.60300708299886,-92.1234906695166,2.45469354383942,AttemptLanding,AttemptLanding,1,0.443879261439415,0.167053394535396,0.185039968411041,0.898629734226763,0.339870883183607
64,2.68876063619674,3.0,-0.660885708514392,-2.5690546119822,2.68876063619674,-0.0336594390512876,-0.0061545553108206,0.0342174865868505,-0.0288177323300729,-0.339716083540029,0.342228766643727,0.0220975452878963,0.194809578800268,0.196938092297843,15.3671368111324,1.80937038125918,1.7234014249269,0.0634397009782698,0.24038677773096,0.135947140715228,0.459124552301238,0.0018322289289208,0.008661948643595,,,,,3.0,-102.201792877698,1.69085726524535,HoldLanding,HoldLanding,0,0.7563904547787,0.0763020627299888,0.0497453611131644,0.940522656747975,0.33957904857101
65,1.49895488655807,2.30315923690796,-0.131686713237116,-1.48374656884705,1.49895488655807,-0.0409012441474424,-0.0314897721011125,0.0516189647299196,-0.0022756863627221,-0.116185521456677,0.116243575974656,0.0074983457646622,0.0989754396098362,0.100957092703746,15.4261275234939,0.84415715026342,0.808726508142309,0.175842251082699,0.240156273029191,0.190584197799071,0.397791369115437,0.156047277035616,0.0394960074395962,,,,,1.55228808798252,-94.2268777224065,1.80046386931429,AttemptLanding,AttemptLanding,1,0.419912721622902,0.190409455695877,0.197962203290178,0.89909193142832,0.315295912089302
66,1.57806700507933,2.30670547485352,-0.127397450529091,-1.55704898499414,1.57806700507933,0.0048951633534329,0.010059427437963,0.0111872563498132,-0.0027274677712373,-0.128778628895836,0.128878226734512,0.008321427688873,0.129582023068667,0.130643982217315,15.4099143723611,1.84858745358953,1.93136315100792,0.0205194346792092,0.0527013744662336,0.13118204337224,0.395896124587497,0.0004505994329352,0.0075780929035043,,,,,1.60696450398557,-93.5145725727472,2.22081791264814,AttemptLanding,AttemptLanding,1,0.446946664464617,0.165994652696658,0.102552728179362,0.96004067076713,0.341696869612338
67,1.68686120142073,2.36098432540894,-0.111750132781268,-1.6713305632531,1.68686120142073,-0.0411727874988598,-0.0099750776959653,0.0423639068720865,-0.0021220769395305,-0.146704889712845,0.146765911125411,0.0094658478770377,0.115027166672518,0.117471398661442,15.4639310631199,0.896175467956235,0.615465928350546,0.174544926802096,0.240185612101365,0.124759840107802,0.354466136481433,0.156784356127904,0.0414807515808741,,,,,1.70472744872138,-93.0615211949791,1.92802009377289,AttemptLanding,AttemptLanding,1,0.473323933444482,0.15944441915723,0.180432497216956,0.900850354199399,0.34455118217431
68,1.59165736428789,2.29775166511536,-0.134653719803101,-1.57503314724129,1.59165736428789,-0.0401638771519049,-0.0105494876543868,0.0415262413136967,-0.0024941875235016,-0.130819790751082,0.130888656607188,0.0084425106066135,0.108636917154324,0.110702959032584,15.4090506651036,0.957540499563202,0.698690435472035,0.176603136576615,0.240189579700816,0.118111952282176,0.428632859164125,0.158779148444837,0.0355568583987425,,,,,1.6346567991892,-94.1375227104005,1.75762918973599,AttemptLanding,AttemptLanding,1,0.446582555616621,0.166484361927024,0.183388894266594,0.898685188650701,0.347505798985699
69,2.60778126030861,3.0,-0.386184294832619,-2.54654213867119,2.60778126030861,0.0064450249001408,0.0079196216624509,0.0102107175673308,-0.0163249819792744,-0.338713422999954,0.339630614277668,0.0219286694834274,0.195696965384,0.198384346062333,15.4107581008715,1.87714927932412,1.75920400357582,0.0271775834972329,0.0551967853444828,0.116463996508294,0.388734382047917,0.009228848331214,0.0052222963221008,,,,,2.97762147861884,-97.4745863886534,1.92031347559439,AttemptLanding,AttemptLanding,1,0.735085205294764,0.090121181317906,0.0600734360045724,0.957839861028598,0.348238223774091
70,1.68580310936742,2.5845685005188,-0.115047267355475,-1.65917519402533,1.68580310936742,-0.0697019174063657,-0.0367844914351634,0.0788127914761775,-0.0030740270164945,-0.150475982343282,0.15063143962139,0.0097151333362235,0.165499198822007,0.168021627295842,15.4067446258476,0.900223150951796,0.758416378572639,0.176789215883063,0.240202424663738,0.141384568497503,0.439703365425799,0.156948777762713,0.0377958911702224,,,,,1.74106956136438,-91.9626622500687,1.50234280993222,AttemptLanding,AttemptLanding,1,0.483151821290481,0.216671224779692,0.213501707632334,0.898573224326491,0.33716241400111
71,1.60666248081504,2.51688003540039,-0.191060740209621,-1.57339803151632,1.60666248081504,-0.0604640372916152,-0.0229651066563332,0.0646784038867579,-0.0050607228392013,-0.13569267891065,0.135944246083938,0.0087685516695538,0.170059908336401,0.172190736415866,15.4368142394198,0.917401350463579,0.775607912234259,0.177315053641705,0.240238953978398,0.161719998875475,0.404609896096264,0.15867605394978,0.036883392105131,,,,,1.67774962146967,-95.9395937551425,1.65372612649148,AttemptLanding,AttemptLanding,1,0.462881475500516,0.216656657160944,0.213928827524597,0.898040257543664,0.328124444944233
72,2.64324937284193,3.0,-0.619373589027564,-2.53594899842182,2.64324937284193,-0.0062703104740647,-0.0065551939493462,0.0090712381268882,-0.0293960995684386,-0.335191312956692,0.337645469645847,0.0217985563505607,0.193653113294634,0.19627050474928,15.4076847103794,1.81797742411211,1.85286986487677,0.0255592526574069,0.0580721905069082,0.137221627440825,0.44144091719931,0.0097245218201877,0.0099901142495399,,,,,3.0,-102.28205700878,1.56067710895422,AttemptLanding,AttemptLanding,1,0.744120600374372,0.0819319514338276,0.0571139493761723,0.958378002114955,0.3390126100263
73,1.51100245277087,2.43000650405884,-0.195375330442671,-1.4850335985756,1.51100245277087,-0.0135367200445793,0.0109519465111656,0.0174122922657744,-0.0046005202918352,-0.130857689713721,0.131019570055848,0.0084506412331076,0.136931451780265,0.138311632801615,15.465765908006,0.740245702404167,0.657830967244172,0.143856327742826,0.242610924141668,0.273771208409328,0.518483479408755,0.158368931848024,0.0363983118291321,,,,,1.730743683828,-94.7490683234343,1.76479849472508,AttemptLanding,AttemptLanding,1,0.430596313965888,0.209968165121852,0.209602840761614,0.917086948009921,0.278323907373632
74,2.66598019599915,3.0,-0.604255248511627,-2.55785103019552,2.66598019599915,-0.0330138024632236,-0.0095909845379434,0.034378745432139,-0.0261516664438256,-0.336294197304185,0.338418829164785,0.0218451008623931,0.206084325791692,0.208170422820629,15.4027263587356,1.71815152742363,1.50588303972519,0.063688936115781,0.240393924628992,0.13016024623896,0.453999732996439,0.0018535240296633,0.01055398137417,,,,,3.0,-101.440236798872,1.73119765271136,HoldLanding,HoldLanding,0,0.752562136830565,0.0814572258960844,0.0535359354040679,0.942823831771655,0.342151001671573
75,1.64942193313225,2.32789659500122,-0.168704205365953,-1.63044579902794,1.64942193313225,-0.0424246738038714,-0.0242881933692844,0.0488852665381774,-0.0032717946769317,-0.141460289278664,0.141561591952879,0.0091300002316814,0.130082203144041,0.132389370338367,15.4491847942255,0.915266625678948,0.592671799052973,0.175888362595522,0.240188439338048,0.125561296238397,0.389845433337668,0.158698943377522,0.0372935293904079,,,,,1.72844746755899,-95.0560971705178,1.58900310762472,AttemptLanding,AttemptLanding,1,0.46632372290294,0.161619097785851,0.181065605809548,0.900207731079345,0.344194979449602
76,1.75478304528871,2.68790316581726,-0.230286598192518,-1.71457443205665,1.75478304528871,0.003724502116091,0.0055878666560904,0.0067153681789619,-0.007112131635851,-0.158914332133969,0.159317665131638,0.0102897196714376,0.184828126862897,0.186077961270014,15.4033390530437,2.18467606601039,1.87690449062002,0.020773813352293,0.0530036356723708,0.133731043199598,0.394599408039472,0.0003613873879562,0.00796946293628,,,,,1.80133462105751,-96.2777836497926,2.20617283497304,AttemptLanding,AttemptLanding,1,0.505157737664326,0.211183177951733,0.129768509910193,0.957700674664615,0.340563980800178
77,1.69816065398422,2.39416861534119,-0.144715572136703,-1.68034265109455,1.69816065398422,-0.0487945512859731,-0.0121480045514556,0.0502840158477984,-0.0027467592913149,-0.148404209193493,0.148484499602706,0.009577914785522,0.110235117331383,0.112768190356995,15.4329693180583,0.972855705122502,0.723185791634091,0.176801601327108,0.240213309785319,0.122341347655867,0.410021892272034,0.158904591886672,0.0343266951631951,,,,,1.75923009576763,-93.8331549635916,1.88225418009277,AttemptLanding,AttemptLanding,1,0.475396479133859,0.16582052754408,0.182599014191989,0.898273159004787,0.345626067708504
78,1.76318303918516,2.69282412528992,-0.207361041588365,-1.72504549892903,1.76318303918516,-0.0718318821794112,-0.0314411038414553,0.0784114934700647,-0.0066811594973237,-0.162938858237288,0.163309369591848,0.0105353909087963,0.193104200698196,0.195778812702287,15.4192871229931,1.05074214190668,0.825573664515984,0.175858153780053,0.240259348872054,0.138634988893504,0.443852703939344,0.157754468635077,0.0363008453403675,,,,,1.84421771642335,-95.6415120879709,1.67524907381688,AttemptLanding,AttemptLanding,1,0.509337906323168,0.223544684843082,0.217440215473492,0.897328441773795,0.338384449380665
79,2.62424465844464,3.0,-0.410373018981621,-2.55985415028307,2.62424465844464,0.0072193087280498,0.0069845534387339,0.0100450189272807,-0.0171040727440627,-0.340953566551855,0.34189842889663,0.0220782663997685,0.203300179597779,0.206014875604624,15.3819537538512,2.06063746293965,1.92627363619974,0.021719099548198,0.0516819328535149,0.137275044955758,0.445421007524179,0.0003018715544444,0.0106706198833621,,,,,3.0,-97.5958361626102,2.17457859570573,AttemptLanding,AttemptLanding,1,0.741001550706161,0.0863865386532914,0.0558463137394151,0.957814720161234,0.338988868908552
80,1.77030108679061,2.5781147480011,-0.234033760154427,-1.73770315703379,1.77030108679061,-0.0570056187823073,-0.0268641059225489,0.0630184160366768,-0.006055979026217,-0.160153619794108,0.160399530794405,0.0103439861606824,0.137051445067832,0.139779896623532,15.4757170143857,0.862465575597459,0.525445621541882,0.175049446310771,0.240205474218036,0.144659066162323,0.376058590597813,0.156305842861278,0.0432592091500428,,,,,1.84269174465958,-96.4089816842801,2.00105451645023,AttemptLanding,AttemptLanding,1,0.500036269135536,0.193311450045751,0.201186755030458,0.901570260295662,0.335707081705634
81,1.82081385883125,2.77329254150391,-0.197931292842563,-1.78331271313815,1.82081385883125,-0.0691376802739853,-0.0389095190009133,0.0793345416735375,-0.0064851820388895,-0.174720050857788,0.175084881628733,0.011292636493823,0.188170136903506,0.190921315464805,15.4730651632162,0.965607603046775,0.663270892799285,0.176692754572844,0.240284652233553,0.151658510048151,0.372510296650277,0.158620695191783,0.0345055978652825,,,,,1.90149022471625,-95.3637271300002,2.15759550461968,AttemptLanding,AttemptLanding,1,0.523734625447961,0.228852369574829,0.220356998629631,0.898855291674788,0.332596217756377
82,2.59738129676385,3.0,-0.402404600166469,-2.53563257065414,2.59738129676385,0.0055212974172718,0.0092205156374362,0.0107472151644125,-0.0163302583292057,-0.334984994342607,0.335871563457931,0.0216900645373621,0.193987752142489,0.196652497539938,15.3588165702434,2.03936254297109,1.9187373329933,0.0292574533484385,0.0727893233536867,0.12686497136148,0.473565547790786,0.018544489605878,0.0050439145703328,,,,,2.91783086718893,-97.7855854258006,1.79752698981717,AttemptLanding,AttemptLanding,1,0.731965511978348,0.0925595310082759,0.065611864738204,0.954271917157489,0.343615568283787
83,1.72292607297768,2.4578058719635,-0.314429316085839,-1.68293794183151,1.72292607297768,-0.0421777168912349,-0.0145434864416406,0.044614715061685,-0.0073617453736915,-0.149682015093832,0.150011879771541,0.0096751289872249,0.115480662223935,0.117851934981979,15.4536385659842,1.00165111330205,0.642465613481572,0.176366383584745,0.24020331763181,0.164307297451955,0.390693867623494,0.157322753443443,0.0348703330502947,,,,,1.75027764965131,-99.5200046041142,2.11309097116866,AttemptLanding,AttemptLanding,1,0.483017339790445,0.173527319199784,0.18671773638171,0.898898748211471,0.326974534465798
84,2.66861965152824,3.0,-0.459019953845688,-2.59519829717802,2.66861965152824,-0.026089895274503,-0.0129355231946646,0.0291206180524081,-0.0186658556274421,-0.344176095678854,0.34531615522705,0.0222917457954054,0.201764372956301,0.203841132636245,15.4110178913326,1.79930207749704,1.39364923287745,0.0630619480134788,0.240253423644391,0.143021601956548,0.44891147046606,0.0018229038314061,0.0089695501207658,,,,,2.95681470906161,-98.270421652992,1.85338195257615,HoldLanding,HoldLanding,0,0.752400133601446,0.0798993583824213,0.0520114490994471,0.943381551411747,0.336434843574868
85,2.05060974303508,3.0,-0.454442126710066,-1.97259143887149,2.05060974303508,-0.0843184489000309,-0.0176784405998182,0.0861517735566043,-0.01761490884516,-0.212067168356736,0.213490691708589,0.013768673517831,0.213922146587887,0.217232935968548,15.4452088562572,1.04119538421021,0.646357372462594,0.176559938972798,0.24031958212355,0.142033468398969,0.417363907698072,0.158804776655986,0.0350798083249565,,,,,2.10680641889481,-101.731697741666,1.51673306772643,AttemptLanding,AttemptLanding,1,0.590275852003064,0.229407299635818,0.220980574453832,0.898460687425457,0.336874014044903
86,1.96076792618104,2.65566539764404,-0.537906940158732,-1.87279851593736,1.96076792618104,0.0036748932926586,0.0029055352977616,0.0046847599809345,-0.0178529979663401,-0.1833539904131,0.184692139367374,0.0119267194358449,0.134709795844669,0.136206595178469,15.4024906411896,1.81670021358841,2.08335802324376,0.0208069527266121,0.0538733958654846,0.146073854951493,0.448184356225315,0.0003498593465522,0.0096896108645227,,,,,2.01104491577433,-105.279667622794,2.20727956581798,AttemptLanding,AttemptLanding,1,0.550112766017305,0.157210803742347,0.0980054701481467,0.958953208918727,0.335078286688225
87,2.00757261466336,2.8665623664856,-1.15637828584571,-1.62556220105186,2.00757261466336,-0.0459732837534832,0.0103720197292984,0.047128776902687,-0.0732372369446442,-0.141043870535815,0.161953246781876,0.0104472723924157,0.138899937536367,0.141536657179098,15.403530551431,1.06789339424319,1.01768279033516,0.176434283519409,0.240264687552502,0.164169385954448,0.43276856658567,0.155406819506671,0.0396525821849032,,,,,2.06469467336038,-124.238920485483,2.06212342354361,AttemptLanding,AttemptLanding,1,0.563660028679381,0.201912969925497,0.204636600308329,0.895396188218608,0.32703582846469
88,1.96715635463998,2.84974718093872,-1.10917602169965,-1.60335476844019,1.96715635463998,-0.0691099935085104,0.0036893523849055,0.0692083992284633,-0.0687202588482585,-0.137363222545921,0.157417733802958,0.010154746526976,0.152870994692151,0.155348549880683,15.4108935362521,1.10049964407608,0.966948851496769,0.176095780361338,0.240249748045622,0.171562527811042,0.467194913930303,0.158757860730753,0.0370422665206965,,,,,2.00959748573364,-123.70580417537,2.35687725039654,AttemptLanding,AttemptLanding,1,0.555644737880132,0.211271142442435,0.210791649777564,0.89570787163983,0.323749987639537
89,2.60431972395218,3.0,-0.248835326098552,-2.55814307361031,2.60431972395218,0.002704377440915,0.0077646493103654,0.0082221308829213,-0.0100695393288772,-0.341827065644533,0.342304639736172,0.0221097783446447,0.204996246946053,0.207694736751067,15.408233478877,2.1562689990537,2.17716982185974,0.0207498587550558,0.0513944286770048,0.150440738416803,0.458987302967699,0.0003635518047063,0.0116980181247619,,,,,3.0,-94.0907171926139,2.22929703318958,AttemptLanding,AttemptLanding,1,0.736024207070794,0.0905354527726294,0.0587366750160878,0.955576622743866,0.333137449592532
90,1.94611266635408,2.75281071662903,-1.07275047638464,-1.60773497960382,1.94611266635408,-0.0586858066157263,0.0056793928050482,0.0589599813498313,-0.0628805359860834,-0.136420943432105,0.153008922042964,0.0098727483935072,0.12962895371527,0.132076573886661,15.3758795886118,1.018664955557,1.24862938464619,0.175696454878912,0.240243537658826,0.139670367081243,0.4305170144563,0.154816258465756,0.0395622437849989,,,,,1.99637079272466,-122.311062912018,1.67089976320824,AttemptLanding,AttemptLanding,1,0.545378692471755,0.192316391225998,0.198583331187652,0.894337317030376,0.337924281297225
91,1.88942663301558,2.81428790092468,-1.13808037776013,-1.47703206611661,1.88942663301558,-0.0783190910613818,0.0080374168112763,0.0787304267337552,-0.0748406545489502,-0.119710894683132,0.147422576190013,0.0095091244979319,0.183467983346603,0.185807940261178,15.4467567545284,0.914324376306983,0.998932310949555,0.176219773142962,0.2402674882755,0.158053936617748,0.443263617313955,0.155731491374492,0.0403055450518088,,,,,1.94546366280019,-126.251978914843,2.33680774378761,AttemptLanding,AttemptLanding,1,0.541008690189722,0.222527696847404,0.217387176111905,0.89685738231436,0.329753805947668
92,2.63761019547249,3.0,-0.483897222065638,-2.5594922857838,2.63761019547249,0.0080249795731927,0.0059489620565492,0.0099895168401891,-0.0212639216393989,-0.34031545607379,0.341695341464692,0.0220674273625948,0.198502629995271,0.201165890453312,15.4061622943575,1.98808731429136,2.02450309420603,0.0162064837147893,0.0483784411964432,0.139122938248446,0.474176429692414,0.0001357700754475,0.0079130987507011,,,,,3.0,-99.2513675644137,2.41992695451377,AttemptLanding,AttemptLanding,1,0.743595896883326,0.0833691174393917,0.0529593031741899,0.96036926207584,0.338167583000691
93,1.69980390919935,2.3906614780426,-1.03628848608456,-1.33331712780654,1.69980390919935,-0.0489121523129917,0.0114101118726586,0.0502253849844467,-0.0581082366901146,-0.0943264553519116,0.113299348075909,0.007307937223247,0.118328333109531,0.12018672224993,15.4459326136975,0.735805663404673,0.98818563248828,0.175971159313786,0.240206300033931,0.100451819328167,0.396347450551993,0.156381814280967,0.0397802785174152,,,,,1.74681180591764,-126.657123786368,2.35065678701141,AttemptLanding,AttemptLanding,1,0.477318386903146,0.16465094023688,0.182759148535962,0.898468774446805,0.355354746965259
94,2.6091642195303,3.0,-0.215675595267773,-2.56597670449993,2.6091642195303,-0.0069166585485075,0.0101708492851736,0.0122998512453752,-0.009711836527665,-0.348252684922818,0.34871632331655,0.0225163447126194,0.203478632567934,0.205579682277522,15.3289503213411,1.9078722085221,1.57276319873666,0.0631382557483099,0.240493675712521,0.137554960950732,0.435236114574892,0.0019098165151099,0.0087450187741222,,,,,3.0,-94.2734617915732,2.42251740013968,HoldLanding,HoldLanding,0,0.736893061663583,0.0901930233340024,0.0581446281674038,0.941083022497383,0.338864461799674
95,1.80738291484398,2.70503640174866,-1.1446435038987,-1.37536014905138,1.80738291484398,-0.0510919605503533,0.030729848291737,0.0596214056267716,-0.0719137505633071,-0.10163669241815,0.129038395008737,0.0083231598336068,0.141723763238197,0.143798568462478,15.4433443791525,0.88386455681412,0.986565491066811,0.178890690261659,0.240241393663422,0.155079769608396,0.367444557387401,0.143074462806322,0.015858342347158,,,,,1.86493072097439,-128.583435678336,2.25791753093671,AttemptLanding,AttemptLanding,1,0.510728490984222,0.212902625585128,0.197096895431641,0.895858418778677,0.331075657951824
96,1.63530194252527,2.64086174964905,-1.02181469728716,-1.24723565489074,1.63530194252527,-0.0046440303470309,0.0248964396832548,0.0253258707010458,-0.0636405806372316,-0.0895798280380469,0.115382276900387,0.0074426889819204,0.176419556047345,0.176959314306705,15.4573961360654,0.754722280289301,1.14785809570549,0.0297479533279832,0.11952291085697,0.251356684838116,0.641381247688165,0.0188876383576664,0.0071434730307746,,,,,1.76269102467469,-127.19753908103,1.91667504595345,AttemptLanding,AttemptLanding,1,0.471472380868079,0.230894032898042,0.149528552232211,0.970177177524621,0.288285917849726
97,1.73668078957377,2.65964603424072,-1.0802169272128,-1.33226419648299,1.73668078957377,-0.0560214528037433,0.019437453032031,0.0592977044632796,-0.0667599957299697,-0.0991321018719254,0.124884812320963,0.00805496713695,0.181013835280216,0.183022317105556,15.4657082624242,0.791004106359919,0.912172763565505,0.175805187863312,0.240279553300208,0.1538799367819,0.433773355611332,0.159036706898628,0.0375792666847638,,,,,1.81622668042125,-127.513201967813,2.0760936920449,AttemptLanding,AttemptLanding,1,0.499719340640784,0.218538425868332,0.215471224250202,0.898715302090358,0.331608916985822
98,1.86668286387552,2.50514006614685,-1.18016310289148,-1.42846362121445,1.86668286387552,-0.0484519519317522,0.015700624954597,0.0509323204847545,-0.0749707469065824,-0.107862716081447,0.134911259728145,0.0086997645342139,0.112622724226683,0.1147655365093,15.4717298505387,0.751279600054703,0.687402532490058,0.175796175113841,0.240232251498689,0.130217342806453,0.431950539406298,0.155559051544998,0.0411073376517171,,,,,1.91962505408224,-128.853168090004,2.08554396372196,AttemptLanding,AttemptLanding,1,0.520735204335333,0.15299046259992,0.175879756584616,0.900797981401656,0.342125625419354
99,2.62572972949931,3.0,-0.159133410913115,-2.58908227249975,2.62572972949931,0.0054051323438826,0.0074957274254783,0.0092412869932686,-0.006003577984072,-0.348411508132893,0.348684664877588,0.0225221665607613,0.195595872203284,0.198500077630086,15.4119009696305,2.24124784981149,2.07404945218368,0.0284927635530226,0.0469991214530728,0.145987272972879,0.48078050925512,0.0176923747577222,0.0050849443803899,,,,,3.0,-92.2002194325483,1.79897612656294,AttemptLanding,AttemptLanding,1,0.739894610059166,0.085905046811422,0.0612553764407301,0.951847710850669,0.335116767567609
100,1.64645477323919,2.37644386291504,-1.03373459843846,-1.26751658190817,1.64645477323919,-0.0463841871096111,-0.0065123509821305,0.0468391239150976,-0.0580966405712009,-0.0855437527333493,0.105876524035588,0.0068308951652139,0.110859026471928,0.112645813504842,15.3858982087861,0.993588043101901,1.14691555071392,0.176528038151439,0.240193152601539,0.159887355120531,0.430902287068683,0.158588522035143,0.0366819833187906,,,,,1.68546986904653,-128.540481584722,2.31663953602614,AttemptLanding,AttemptLanding,1,0.461583768898085,0.172834717894835,0.18752352133309,0.894917738401442,0.328938953279764
101,1.61370790804793,2.48548722267151,-1.04050086513931,-1.20516811043753,1.61370790804793,-0.0700925252332635,0.0142574094977279,0.0715278674305447,-0.0620439389514433,-0.0803089379111078,0.106659455789682,0.0068793821425729,0.163169468879657,0.164878536298882,15.4353186494704,0.792801423338819,0.880310295679517,0.175117719401153,0.240222912598821,0.143099669672682,0.472555875329694,0.156736994954374,0.0411803841122504,,,,,1.69807149429304,-129.55767099295,2.21975586016101,AttemptLanding,AttemptLanding,1,0.463297816072557,0.209263788152573,0.21019384466966,0.899295262507137,0.336400146812141
102,2.61106478569898,3.0,-0.137768018774812,-2.5765683932272,2.61106478569898,0.0033223667275156,0.0053573521851022,0.0063039149032425,-0.00479919259304,-0.34548426501466,0.345731304448649,0.0223272805869007,0.19617640303811,0.199004921358208,15.4158967081657,2.03986862643455,1.94187248499115,0.0285240056202478,0.0513988485530158,0.135366560381726,0.442982648487074,0.0205905041875552,0.0070876801722328,,,,,3.0,-91.8482151525671,1.57566877938757,AttemptLanding,AttemptLanding,1,0.736084927124704,0.08866614094999,0.0649283580089112,0.954452888457246,0.339837084274788
103,1.69661287373344,2.63570308685303,-1.07352169134287,-1.28687998367643,1.69661287373344,-0.0716929959156815,0.0121520803430168,0.0727156016273609,-0.0659429847877391,-0.0913948092670553,0.117820977996725,0.0076003581154948,0.176274195862616,0.1781147613949,15.4466678113228,0.851745288606709,1.01748049464016,0.175759235844104,0.240230821311381,0.153709641384984,0.372228273012054,0.15511842564655,0.0415377615148491,,,,,1.75398132014352,-128.600052606655,1.91668038377464,AttemptLanding,AttemptLanding,1,0.488053051941232,0.224626491583589,0.218822058010586,0.897433608066723,0.331684603828896
104,2.68121970938024,3.0,-0.380266328623149,-2.61900058115644,2.68121970938024,-0.0309795581364935,-0.0110874019562817,0.0329038524260084,-0.0140057045324308,-0.35110294399826,0.351827673930747,0.0227100669502618,0.201019265901273,0.203222527156005,15.4081349680428,1.69461570098404,1.38045783000064,0.0627685927125418,0.240398577323358,0.127431617042015,0.444221986018178,0.0018409494840849,0.009366004025926,,,,,3.0,-96.2939600424606,1.9278262684209,HoldLanding,HoldLanding,0,0.755636427932597,0.0777579383342148,0.0508787824170246,0.944454411614564,0.343363725759104
105,1.72268294724258,2.42646813392639,-1.0999225057559,-1.30929834943188,1.72268294724258,-0.0428747348603172,0.0113586996296745,0.0443538380145357,-0.0658287300691801,-0.0909920631205088,0.115462672784124,0.0074495168967467,0.119861490065369,0.12181550799144,15.4110594913565,1.04542117413013,1.08222811935901,0.17716133181414,0.240202532013473,0.16761990249094,0.480738249336874,0.158982338364584,0.0348357677361977,,,,,1.78074250763471,-129.221424924807,1.52049185396583,AttemptLanding,AttemptLanding,1,0.483745220862977,0.166483203973189,0.183216291338911,0.894702089644087,0.325502265559582
106,1.82987559599223,2.89275693893433,-1.07217082005147,-1.45255525555915,1.82987559599223,0.0065895319030842,0.0017972973080052,0.0068302421856862,-0.0668120238019459,-0.115369017110019,0.13902580866301,0.0089790815892564,0.193672099775261,0.194692083621734,15.3731975378516,1.96754273912822,2.08949566583841,0.0211162380234563,0.0631204025801916,0.136963891778381,0.476804338111763,0.0001424610618548,0.0086723666107258,,,,,1.88415857146299,-124.959215831678,2.20778127988421,AttemptLanding,AttemptLanding,1,0.526905242322274,0.240400513229348,0.147457211823546,0.957565150663534,0.339127159209609
107,1.71059404043543,2.34697556495667,-1.04225650997426,-1.34328077595542,1.71059404043543,-0.05483243433427,0.0060188574067162,0.0551617847744651,-0.0586292118653529,-0.0949786390011818,0.113937734620099,0.0073494593925125,0.102216594707499,0.103985199389125,15.4213733344253,0.902663931577015,0.990229232128372,0.176035723470738,0.240178749545877,0.137359344881408,0.421285147338671,0.154601777974648,0.0390352955350663,,,,,1.72726488943798,-126.550224489005,2.28913643448284,AttemptLanding,AttemptLanding,1,0.476955450660607,0.153298836892596,0.174885856379466,0.897109406264089,0.33895140227493
108,1.68236935458727,2.58687877655029,-1.02071744189587,-1.31641503147339,1.68236935458727,-0.0686661317902702,0.0048450598663917,0.0688368524857701,-0.0581423060173751,-0.0941587855628968,0.114380747402638,0.007378196247993,0.142125021463098,0.143957300233114,15.4170203086933,0.917431876531358,0.975154407389855,0.176648355722914,0.240219441957954,0.160940898616515,0.48504624890321,0.156995154707723,0.037973222491837,,,,,1.72684939224008,-126.925173742408,1.66946628179353,AttemptLanding,AttemptLanding,1,0.477423287936562,0.216134709564071,0.213264894595472,0.896805501336305,0.328470711725993
109,2.62179849259431,3.0,-0.307324148207792,-2.57056610872552,2.62179849259431,0.008333324896032,0.0031609254375787,0.008912673753973,-0.0122814366101966,-0.343666689882666,0.344256352718821,0.0222373391209864,0.193448509777254,0.19621816208839,15.3715403525363,2.29603463779562,1.99652064281509,0.028566805637,0.053297348707945,0.13939624951991,0.398401174867681,0.0155670967238686,0.0082971153811126,,,,,3.0,-95.4171668207032,1.85643311420759,AttemptLanding,AttemptLanding,1,0.738389897109493,0.0867293293545092,0.0619734401336173,0.951989377119559,0.338046111324485
110,1.62784451686296,2.29273915290833,-0.951444582356878,-1.30113223261112,1.62784451686296,-0.0584204876759149,0.0176222660826021,0.0610204690425905,-0.0504438158693095,-0.0900606124305597,0.106395490539426,0.0068608907860635,0.123890534596806,0.125588804457502,15.4787787438047,0.679927566790171,0.610379274095403,0.176386285543112,0.240205401845784,0.122757869278874,0.37077572313747,0.15873703989114,0.0368409346402506,,,,,1.65985778043302,-125.136897277648,1.82156569466653,AttemptLanding,AttemptLanding,1,0.459209632054956,0.160788379101349,0.180419526473528,0.901668732050058,0.345440946987167
111,1.55076275935909,2.36089444160461,-0.933553618541578,-1.21210741884765,1.55076275935909,-0.0486238592346881,0.025660128398479,0.054979285883878,-0.0505585666858382,-0.0820013874006701,0.100727081936228,0.0064962195126907,0.158732283163018,0.160260625281085,15.4095127304459,0.712524762997553,0.964030593456086,0.176361917549084,0.240196059361098,0.136244672009676,0.511725971619059,0.156567071733235,0.0402613627364722,,,,,1.59306398738573,-126.486183134521,1.77672312966978,AttemptLanding,AttemptLanding,1,0.445588860885308,0.19235916425062,0.199641359305679,0.898646106281894,0.339446812440144
112,2.62410066598235,3.0,-0.248455560921558,-2.5789078453625,2.62410066598235,0.0089639844534545,0.0069293656436765,0.0113300099516964,-0.010153701430396,-0.345676498787457,0.346162962806547,0.0223576596111164,0.20276953498886,0.205522784047464,15.4046080447093,2.18092066629387,2.05367393729958,0.0190405004834768,0.0485807643378828,0.13754592251914,0.436944134012065,0.0002221111620655,0.0061032125131619,,,,,3.0,-94.1056534981467,2.28374965626301,AttemptLanding,AttemptLanding,1,0.740864734404787,0.0866545186451152,0.0543107772638844,0.957207935015742,0.338868478880382
113,1.7431397870083,2.5777599811554,-1.01250960104782,-1.40496967660901,1.7431397870083,-0.0556830194352481,-0.004292930349514,0.0558482578458093,-0.0558304017967434,-0.104708140176483,0.120983808480983,0.0078038076162009,0.114453904712238,0.116397529739541,15.4244324749497,0.973968064810073,0.898596338655474,0.176604472809697,0.240222840108472,0.143555605076747,0.39297847198605,0.155997714412228,0.0398802399688768,,,,,1.77528590773906,-124.910768203071,1.68709448932035,AttemptLanding,AttemptLanding,1,0.488116782483454,0.198028390954829,0.202651257532671,0.896984757567922,0.336197508854779
114,2.61919807794535,3.0,-0.414536401599263,-2.55324052240529,2.61919807794535,-0.021184889496231,0.0092409005536046,0.0231126326066315,-0.0173777844355715,-0.349136477798603,0.35012348396303,0.0226047883536791,0.200607099899954,0.202679322849958,15.4143797249974,1.7927680149015,1.66618979114928,0.062973626727063,0.240322034147934,0.141378640678184,0.464869959000002,0.0019585196951114,0.0106730984891795,,,,,2.9979851142919,-97.9705526263991,2.1686610954688,HoldLanding,HoldLanding,0,0.738988685355418,0.0899177484401793,0.0587022289852729,0.941335661017498,0.337165048587474
115,1.84024675820498,2.52935290336609,-1.04295262000828,-1.50118788780649,1.84024675820498,-0.0608705162673446,-0.0005826830284686,0.0608733050701597,-0.059836955630033,-0.119115831544835,0.135858203304595,0.0087632455883523,0.124241672039486,0.126498045104298,15.4294566365766,0.883215771944863,0.976747105273543,0.175917153581265,0.24022199108471,0.171745538053858,0.482657323342468,0.155395706705126,0.0407043045216621,,,,,1.89315516909655,-124.179562229341,2.39673147450479,AttemptLanding,AttemptLanding,1,0.516032077875521,0.166208988590779,0.183591716970683,0.89742742917408,0.323668649753841
116,1.65477997164264,2.63319420814514,-1.00350735474009,-1.28553395579651,1.65477997164264,0.0067923769744582,0.001236244377149,0.0069039615528465,-0.0579621082119544,-0.0906019869788439,0.112848000473298,0.0072861527933111,0.172456377841696,0.173294117726407,15.3937101533002,1.90435002654373,1.98502106792272,0.0273121011623273,0.0662740840285106,0.125043552901591,0.492366134327613,0.016512625843732,0.0057306308444794,,,,,1.69700248239393,-126.66944677606,1.85872775095447,AttemptLanding,AttemptLanding,1,0.475933482649985,0.221408929497752,0.142268168279717,0.955784605105171,0.344425087599293
117,1.60511738706279,2.41845059394836,-0.954679480048859,-1.27808548990789,1.60511738706279,-0.0472148311373153,-0.0043136202221077,0.0474114711725525,-0.0494443485674628,-0.0863091839038174,0.101379971588811,0.006538041600877,0.102774173400792,0.104395037830934,15.4600088719383,0.612348775153154,0.839200652678386,0.176770404576398,0.240146621463545,0.111551611476849,0.388528471528462,0.159899108374469,0.0354786655859878,,,,,1.6721231422542,-125.43586516234,1.72160325809819,AttemptLanding,AttemptLanding,1,0.448910310782932,0.191692074597555,0.198982848087545,0.900209766493124,0.350421506010289
118,1.71268515378837,2.36661720275879,-1.06836484764494,-1.32506681835193,1.71268515378837,-0.0547505537384682,0.0008862662482181,0.0547577264185761,-0.0622526124564296,-0.0940956794149651,0.115325364118126,0.0074379590811674,0.126702072452147,0.128552178459961,15.43588597516,0.853375794706325,0.80618079907306,0.175981789417516,0.240187601005917,0.136911883999859,0.43199320777134,0.155645135416976,0.042009611864139,,,,,1.78141492798702,-127.597402747289,2.01773199356135,AttemptLanding,AttemptLanding,1,0.482426476702224,0.157173627528417,0.178756014753979,0.898969732054404,0.33915027377784
119,2.58470454567099,3.0,-0.307495412748388,-2.53417381908555,2.58470454567099,0.0064875356593507,-0.0006682528695704,0.0065218617609572,-0.0124111964423859,-0.334989558647083,0.335612420585053,0.0216545617093147,0.193188474402591,0.195966529857886,15.4142795129599,1.39822388685844,1.16422782892612,0.0287938682648592,0.0967705815115779,0.324393720044815,0.690855332417562,0.0102799228409435,0.0319790679175148,,,,,2.88139783872518,-96.8469577847742,1.7092388384683,HoldLanding,HoldLanding,0,0.728447851483842,0.0946371518802021,0.0729798976941016,0.96546951667212,0.255825013313416
120,1.71616467833519,2.33328700065613,-1.02365196758543,-1.36338858726103,1.71616467833519,-0.0573938650774383,-0.0002223543988604,0.0573942957967591,-0.0571474558801199,-0.0977909544622143,0.115668523364653,0.0074602962045507,0.113704023009539,0.11561952833204,15.4666740157221,0.717956613422113,0.928856018342444,0.175854483385388,0.240196444105411,0.156213340045966,0.404789627963285,0.156705437497433,0.0418789196723224,,,,,1.76744363452008,-125.864521808831,1.65107917940915,AttemptLanding,AttemptLanding,1,0.480767819889125,0.14937481008495,0.174500445223603,0.899133516200584,0.33057184886846
121,1.71240110645358,2.64352536201477,-1.00026992489876,-1.36055244205295,1.71240110645358,-0.0835358206450622,0.0044077937903876,0.0836520291262716,-0.0587664794259067,-0.101996486945655,0.122873908858162,0.0079244235582911,0.185129748936889,0.187078268727671,15.4573858600992,0.769183502563336,0.864212566814464,0.176214342482679,0.240223352312944,0.140275210305322,0.394904278760176,0.156991117820755,0.0428563264778547,,,,,1.76448514358837,-124.664357217421,2.01584820318036,AttemptLanding,AttemptLanding,1,0.494055948799823,0.224839162841084,0.220261446566428,0.899059002499263,0.337655462086524
122,2.61414052650681,3.0,-0.37562139683817,-2.55421915994991,2.61414052650681,0.0063623853436697,0.0076667725642704,0.0099628986150413,-0.0156183945594619,-0.339559835142438,0.340399971112501,0.0219812534757479,0.199442636178469,0.202195821385275,15.4131471194993,2.13799913898844,1.84173714659516,0.0273655682509045,0.0534021672159194,0.141709333351841,0.455848021750459,0.0234016615734463,0.0076386953987995,,,,,3.0,-97.1526305433791,1.60986336477677,AttemptLanding,AttemptLanding,1,0.737543304678872,0.0886449129487246,0.0663653936640673,0.955047859344962,0.337018074065849
123,1.61502252089097,2.49137878417969,-0.94342861924851,-1.28409375474769,1.61502252089097,-0.0748095555361088,0.0003271365306683,0.0748102708043478,-0.0519736286871969,-0.0910472521286039,0.109329356047503,0.007052607065768,0.169065962830283,0.170733704101069,15.4053043093595,0.902618497205111,0.962090055623777,0.175517408709177,0.240203691072779,0.136195021417299,0.402664629908624,0.155136405206687,0.0415628743750801,,,,,1.66518818535526,-124.488998271363,2.33430343216697,AttemptLanding,AttemptLanding,1,0.464819413057806,0.210895375554091,0.210600511257678,0.897590014158899,0.339468879370089
124,2.68679057224034,3.0,-0.555613941869511,-2.59252415169955,2.68679057224034,-0.0292459853966646,-0.0111699633888529,0.0313064808614803,-0.0239942783128708,-0.343964543037008,0.34571504848249,0.0223200830223832,0.203817901624048,0.205909973046568,15.3813695791271,1.82886576941943,1.49889640040564,0.0631511713366326,0.240277563713759,0.136626718955467,0.45481160449207,0.0019024159057262,0.0101777527681335,,,,,3.0,-100.530616564359,1.86539819394269,HoldLanding,HoldLanding,0,0.75765948054007,0.0762116427371959,0.0502735048292344,0.942277711568772,0.33927701379757
125,1.56068806309958,2.2658429145813,-0.817355557422731,-1.31659126947626,1.56068806309958,-0.04260599834256,0.0046464439999106,0.0428586109972142,-0.0371319786229542,-0.0922821310538489,0.101090222548576,0.0065200035628306,0.119383742596826,0.121014610311215,15.4494401061934,0.900954655985118,0.755774233243082,0.175800248531731,0.240181149185007,0.149581711226207,0.399918397778797,0.15907764799556,0.0367128150325302,,,,,1.59718321662841,-120.692341177793,2.35804594172405,AttemptLanding,AttemptLanding,1,0.440386405555464,0.166517253599543,0.183961643603925,0.899082720175913,0.333519239455019
126,1.52980654335341,2.50764727592468,-0.848153582046318,-1.24675116303308,1.52980654335341,0.0069389630528424,0.0030053072969627,0.0075618172549917,-0.0422736096227456,-0.0851899139242917,0.0988739281660147,0.0063859064382507,0.165651533253309,0.166408751565154,15.3776139798128,1.99774347919345,2.22519775263111,0.0257225873873847,0.058078269645878,0.145875998715747,0.439900538386311,0.0111733469382921,0.0047908637537319,,,,,1.57811714801433,-123.111297136965,1.95338450350427,AttemptLanding,AttemptLanding,1,0.44123016187394,0.221400497991952,0.13954836304183,0.953958453770543,0.335166222793001
127,1.49130482801655,2.10021781921387,-0.744127260196167,-1.28142672732306,1.49130482801655,-0.0496271650146328,-0.0060210135297652,0.0499910803175447,-0.0308584018086679,-0.0869160933609959,0.0934123524239811,0.0060256250717657,0.107961540852401,0.109461055203513,15.4406059970302,0.785251093273963,0.990369561198323,0.17580203506556,0.240139015537516,0.149835966819938,0.466931518070757,0.155826810977323,0.0395745897307218,,,,,1.53181850141805,-119.504479623187,1.73327674147393,AttemptLanding,AttemptLanding,1,0.419573498511782,0.146170454410946,0.171349392983014,0.898147677324938,0.333406236968917
128,1.6290304801754,2.36441135406494,-0.870560889005834,-1.35786421635878,1.6290304801754,-0.0465867108390505,0.0104668559071875,0.0477480544041653,-0.042616944071113,-0.0987248297532704,0.110107792811257,0.0071019902296419,0.133803811992925,0.135652887964209,15.425747788714,0.848086941738855,0.917201924822541,0.176093084550167,0.240223828124933,0.164548710503727,0.438860170424562,0.159745022359076,0.0368909948102136,,,,,1.67347133841587,-121.814224359451,1.52660348141445,AttemptLanding,AttemptLanding,1,0.461538705639617,0.174214506599243,0.188941398878404,0.89808333091622,0.326867239776121
129,2.60905469899193,3.0,-0.515432905965167,-2.52533956861664,2.60905469899193,0.0053779381738696,0.0062405032234642,0.0082380883391738,-0.0229091656189084,-0.332911971685037,0.334537851950045,0.0215981739273757,0.195134031047242,0.197693177284601,15.4177146887439,1.7852168558199,1.82678643276511,0.0266607109921916,0.048783337432458,0.125911173902461,0.441879639769031,0.0155761125078829,0.0074523337683723,,,,,2.98812679975473,-100.15154225882,1.87729832007617,AttemptLanding,AttemptLanding,1,0.735286555188103,0.0894730089223298,0.0633164615757035,0.958289618665022,0.344039478265573
130,1.64448028842875,2.4045524597168,-0.917346369814525,-1.35168065112048,1.64448028842875,-0.0437394018626571,0.0073814750965142,0.044357879231355,-0.0461228838632923,-0.096895529631499,0.109260264156171,0.0070471521880909,0.112064791011479,0.113953385144553,15.4074931002075,0.853678187130213,0.842268001245183,0.176261651692739,0.240210023392091,0.158639890639959,0.457731256867344,0.157712771134817,0.0406985380454669,,,,,1.67291748571223,-123.514973806059,2.40048559310423,AttemptLanding,AttemptLanding,1,0.461318753943244,0.179148516398893,0.192383143168313,0.898543882673538,0.329493381937796
131,1.51019498866958,2.16104364395142,-0.753662636479273,-1.29802277580356,1.51019498866958,-0.0447641710055548,-0.0076775531279908,0.045417791974596,-0.0312842836191937,-0.0891905255463886,0.0957076616068521,0.0061737314741412,0.0991892174676294,0.100682519349477,15.4370767867574,0.914278234665988,0.974445543544279,0.176427332537823,0.240158910556566,0.161082645857358,0.428412148405272,0.158861346047227,0.0372102069422674,,,,,1.54515709711904,-119.107877075441,1.53554157364161,AttemptLanding,AttemptLanding,1,0.422855167515116,0.154767542633757,0.176996552610553,0.896946361188008,0.328407712952285
132,2.62661739655562,3.0,-0.44717572177241,-2.55511742452691,2.62661739655562,0.0076022398016688,0.0045578851967795,0.0088638799331387,-0.0193050302271181,-0.339242266354921,0.340430623050687,0.0219833732122111,0.195604483849146,0.198349672766411,15.3596537278929,2.05496470821256,1.81821820512145,0.0265521298342123,0.0476364521405218,0.134580845634798,0.362512671692193,0.0169967728897171,0.0066688986276799,,,,,3.0,-98.8062245222683,1.88968775272036,AttemptLanding,AttemptLanding,1,0.740101240301447,0.085636130429395,0.0613608535883848,0.956291783620984,0.340186290828979
133,1.6278279745901,2.34040069580078,-0.84314853631466,-1.37122120710221,1.6278279745901,-0.0528287369018708,0.0049402249829017,0.0530592241323672,-0.0406600159599633,-0.100746533345726,0.111427202718003,0.0071877390339698,0.131617636864379,0.133397469156923,15.4093159049813,0.944100726326228,0.961938924078391,0.176472716175711,0.240284785221805,0.150315064680917,0.444872692073989,0.15889093228473,0.0366837209369082,,,,,1.68330103474598,-120.509023497779,2.06700065711163,AttemptLanding,AttemptLanding,1,0.460766953722077,0.170056386696672,0.185991559030698,0.896787616087537,0.333193304586259
134,2.62444288331434,3.0,-0.579756928009623,-2.52658212547701,2.62444288331434,-0.007794752189316,0.0065197431929713,0.0101619492714314,-0.0283931291394937,-0.333655059300117,0.336004941288534,0.0216951087914622,0.198667368347504,0.200597417719418,15.3840927674341,1.88709496872042,1.56344798391962,0.0630105206085526,0.240455893851318,0.138732463393277,0.511333323802294,0.0019236425425952,0.0107037677532219,,,,,3.0,-102.269542710179,2.49639834193972,HoldLanding,HoldLanding,0,0.739970919094375,0.0863633752873686,0.0565652565965644,0.941383330782123,0.338341127380766
135,1.6545056966511,2.2470760345459,-0.862067148594156,-1.39138044542392,1.6545056966511,-0.0552998447853669,0.0035194588232168,0.0554117264096147,-0.0420699285508197,-0.103175924053331,0.114242704796223,0.0073698397571504,0.140794522719059,0.142601761844897,15.3610308160953,0.998226061447367,0.989831323802759,0.177785970743434,0.240183904192206,0.131167014628696,0.438074953416783,0.159094067163677,0.035927612990063,,,,,1.71044333906111,-120.370167332204,1.77815797289247,AttemptLanding,AttemptLanding,1,0.469721871475939,0.14348714253476,0.169865346357664,0.895486563744175,0.341703549053913
136,1.61866533935668,2.3388831615448,-0.756590611612253,-1.41297485063562,1.61866533935668,0.002998630922479,0.001866991211193,0.0035323425077305,-0.0330261167859092,-0.105775870353935,0.112703077500987,0.0072779147156886,0.132203088074404,0.133057678499875,15.4241004584376,1.92195745415877,2.0378405989617,0.0210166290964536,0.0519844466070762,0.13466516431705,0.454722467902335,0.000698134974293,0.011916524808178,,,,,1.66149639163359,-116.91481150861,2.19052238037535,AttemptLanding,AttemptLanding,1,0.45825562619509,0.162696606118744,0.102261527630472,0.958378986462969,0.340148815859089
137,1.47230133634286,2.09554028511047,-0.69862224107622,-1.27721896957252,1.47230133634286,-0.0513371457654983,0.0094611316394636,0.0522016814599614,-0.0281960534843108,-0.0878983535663375,0.0941577292976123,0.0060745100480898,0.128536854356512,0.129938060322755,15.3420484961547,0.957868584069262,1.05404448686016,0.176434438738151,0.240169129818163,0.150058777702438,0.456733527144712,0.155510459896171,0.0400713224922648,,,,,1.50463962214456,-118.009747287404,1.83778542377714,AttemptLanding,AttemptLanding,1,0.418601301755979,0.149799071740373,0.173566592995265,0.895974892216479,0.333307209910028
138,1.58309399034526,2.37222123146057,-0.715652236520106,-1.39544182497984,1.58309399034526,-0.0581368291738475,-0.0102519850913382,0.0590338386410891,-0.0299442697672631,-0.103969851157546,0.109782038138752,0.0070831267234148,0.129678061676917,0.131454668576109,15.3909172488712,1.06011476379633,1.00412971922644,0.17645810074192,0.24075190822974,0.197400679070401,0.456184320220457,0.156800919541428,0.0358009425751378,,,,,1.62198882751374,-116.427624599585,2.20671476367047,AttemptLanding,AttemptLanding,1,0.448449331140624,0.188376499668478,0.195733721947832,0.895551885833861,0.3122663648576
139,2.63695981590245,3.0,-0.527862348739839,-2.55227917904737,2.63695981590245,0.0056046022386539,0.0035896485687713,0.0066556098969821,-0.0232698719282964,-0.338569803584723,0.340212706997851,0.0219680782389809,0.190208971133838,0.19295294858262,15.4163198232739,1.92379259732759,2.04286828779337,0.0269233094708251,0.0630592441052134,0.130347420891414,0.470287521920131,0.0223016613347796,0.007284361675209,,,,,3.0,-100.33835635475,1.51204979675713,AttemptLanding,AttemptLanding,1,0.741779873957179,0.0829042365697277,0.062303250214946,0.955371724024351,0.342067812937149
140,1.56992927973702,2.17330503463745,-0.743621949559019,-1.37144017091637,1.56992927973702,-0.0448171100699173,-0.0009350145546276,0.044826862562937,-0.0308986333918416,-0.0996874623769014,0.105491365488677,0.0068040637565305,0.104573149860009,0.106293288668704,15.424057103647,0.791283258982636,0.833281302535059,0.176300411606552,0.240176855105959,0.151465015474069,0.423608199060387,0.15624669708047,0.0404395358663166,,,,,1.62484937329115,-117.662804067615,2.41899323996636,AttemptLanding,AttemptLanding,1,0.439906465663614,0.143977802989134,0.170534944043259,0.899085358356228,0.332682215344858
141,1.54132017673262,2.26756358146667,-0.77017331534114,-1.32425302899415,1.54132017673262,-0.0480218187808428,-0.003439286839445,0.048144820832402,-0.0329964205308383,-0.0930205465117348,0.0999648384647265,0.0064475109094758,0.109815819805093,0.111404093509698,15.4072904463135,0.73207589891443,0.804511249479722,0.176965463410373,0.240181177095253,0.13423132924567,0.480196666037308,0.155918363121288,0.0388975748106984,,,,,1.58700801541868,-119.377240163094,2.16379063828475,AttemptLanding,AttemptLanding,1,0.433299532497305,0.172231316551103,0.186780412865225,0.899444083557431,0.340341631446369
142,2.66031018581,3.0,-0.624054368242482,-2.55012428474512,2.66031018581,-0.0034994341093536,-0.0200390429430268,0.0203423027496441,-0.0301483138226848,-0.338057495574061,0.340748837497957,0.0220091361754333,0.19992802715675,0.202632466357002,15.4074483788138,1.90302342588888,2.21464290931089,0.025818757957053,0.0854401461283706,0.236475481274254,0.669396781188869,0.0162386930235556,0.013984624629737,,,,,3.0,-102.460692774955,2.11936421891303,AttemptLanding,AttemptLanding,1,0.749942542820733,0.0801596303635185,0.0603982931646463,0.954737528387761,0.294899786100332
143,1.47140641752127,2.2541081905365,-0.648606857721952,-1.30527411479834,1.47140641752127,-0.0459376843346937,0.0094031291302388,0.0468901874540282,-0.0244134639860842,-0.0916066317032789,0.0961042038963806,0.0061983862859447,0.124527323062255,0.126112647366068,15.4462030277274,0.741430542663012,0.809601027340755,0.175787066710888,0.240154087040982,0.136580158884114,0.393317395220231,0.158242422745274,0.0350685768134059,,,,,1.50542716708844,-115.316950545559,2.09131940243432,AttemptLanding,AttemptLanding,1,0.417597574145552,0.184704433294998,0.193904835391895,0.899919790023098,0.339297707162616
144,2.69527341634179,3.0,-0.580015365524603,-2.59927223826265,2.69527341634179,-0.0282629208905402,-0.0096978038463323,0.0298804299953477,-0.0247592983024898,-0.345355594969206,0.347161067136346,0.0224057787666113,0.193660434008373,0.195729550433986,15.4133326553714,1.7433939676978,1.28710985384116,0.0626126092965292,0.240268303890622,0.11703660293416,0.393686358229698,0.0019185964230142,0.0111541581107215,,,,,3.0,-100.955060334027,1.86449651007497,HoldLanding,HoldLanding,0,0.757885487777941,0.0740415601555775,0.049333703109494,0.944882593896786,0.347983732029262
145,1.634991582181,2.49338293075562,-0.759363446735352,-1.42380554251837,1.634991582181,-0.0686964176649743,-0.0025606407315594,0.0687441247013642,-0.0352525893803885,-0.110590503447773,0.118717193212881,0.0076575333578959,0.162078444429038,0.163890681866022,15.4451747036682,0.880520827322878,0.908642531539444,0.176601755960898,0.240228459422877,0.146070030626261,0.442482973838547,0.159944215162024,0.0339864489937133,,,,,1.68254359450145,-116.590495520199,2.07901767556021,AttemptLanding,AttemptLanding,1,0.468775891621472,0.205741142957871,0.206889712349498,0.897641409914204,0.335079986388328
146,1.73062086643583,2.67747807502747,-0.826255553296387,-1.49239007689173,1.73062086643583,0.0044219331717126,-0.0006773268309611,0.004473506970044,-0.0416413172679905,-0.121230164545716,0.131619229649976,0.0084980870252523,0.188318984215,0.189300310830135,15.4184360062669,1.89075982548015,1.98733289641469,0.0274445425732598,0.0477000111873988,0.125944987576663,0.430570213282441,0.0208082614736594,0.0083291695119887,,,,,1.779143412243,-117.297381887505,1.5,AttemptLanding,AttemptLanding,1,0.499358959882247,0.213863014877627,0.140594714050542,0.955807000184196,0.344024449965928
147,1.43897047698898,2.00505399703979,-0.708730139039624,-1.24004522872803,1.43897047698898,-0.0492775320524752,-0.0065248662119736,0.0497076356736757,-0.028278233172147,-0.0815675563188253,0.0875744414192187,0.0056477583241959,0.0991582662601928,0.100500446228058,15.4463665970108,0.670478225903433,0.794304845618696,0.175894581497106,0.240125230172642,0.117395772600318,0.43682983376059,0.158152809753436,0.0378973471203972,,,,,1.48754464037965,-118.732441752547,1.68763983755381,AttemptLanding,AttemptLanding,1,0.403825549776006,0.136481858551608,0.165960106297485,0.900543699403773,0.347824101066525
148,1.72369184990057,2.35386800765991,-0.781808574960474,-1.52382998250276,1.72369184990057,-0.0447071000549705,-0.0062607296724403,0.0451433442642049,-0.0344231931478931,-0.122237950993991,0.128374666572663,0.0082821540298107,0.110912549158097,0.113023919402631,15.3909427274352,0.973816325514328,1.0270312045577,0.176443410198593,0.240184023232438,0.147729467018982,0.47300941894414,0.15503168422005,0.0420320911816284,,,,,1.75445964810256,-115.915142708198,1.63278283451255,AttemptLanding,AttemptLanding,1,0.482255943854012,0.150065915277622,0.17422691672436,0.896057350021566,0.334342459102675
149,2.57382125360113,3.0,-0.594231904657892,-2.46917228448417,2.57382125360113,0.0048606406058487,0.0052950614381217,0.0071877327950272,-0.0281705771902039,-0.318742077079831,0.321160586618814,0.0207366394770464,0.20922586844666,0.211763112148847,15.3939953807321,1.82762846813684,1.89989271138333,0.0275244086466277,0.0519570322907606,0.133558555770823,0.444359461762565,0.0206352357945226,0.0066925896788817,,,,,2.89228411426449,-102.374592577792,1.75657587172338,AttemptLanding,AttemptLanding,1,0.728704956723403,0.0972079689521685,0.0699296662541166,0.956950129266171,0.340640641879634
150,1.52839545155532,2.25218224525452,-0.660839198503546,-1.36686533032588,1.52839545155532,-0.0458082991655308,0.0010299005987886,0.0458198752473438,-0.0245620018983158,-0.0986300248407605,0.102526680090735,0.0066120754899871,0.0989111757573986,0.100483573344664,15.4677742116637,0.751850518069718,0.734395310750922,0.174904189967681,0.240176769416554,0.107907534094783,0.382461902325402,0.155824777682913,0.0417516911050052,,,,,1.57055207434036,-114.528428258895,2.35132480953768,AttemptLanding,AttemptLanding,1,0.427668835083684,0.171252339044333,0.187189293303654,0.900870259218283,0.352041095957874
151,1.47518267767541,2.32845139503479,-0.661053494642389,-1.29509124600676,1.47518267767541,-0.0698986041092803,-0.0033277121383414,0.0699777716457274,-0.0275043900704797,-0.0911571496863212,0.0972560962623074,0.0062728089814644,0.14235662077651,0.143929923053526,15.4557420176496,0.810207064746516,0.807042808456275,0.175222606191219,0.240145244118014,0.137489703423165,0.428054344181663,0.156163425657802,0.0398504484970327,,,,,1.53043490962982,-115.371127707452,1.72638959423507,AttemptLanding,AttemptLanding,1,0.422168031990816,0.20481471954091,0.206785870864308,0.89968173361494,0.33889346514526
152,2.62322885934326,3.0,-0.649665973524967,-2.50816151793387,2.62322885934326,0.007125270070694,0.0020233579535,0.0074069866334643,-0.0311667641621667,-0.327309001537536,0.330123613982929,0.021318207559099,0.196844027770889,0.199429186341752,15.3504679041766,2.02020735876508,1.86596418701099,0.0267219268453733,0.0645046033934795,0.132144012001619,0.48452873937884,0.0200331552210384,0.0082347980952637,,,,,3.0,-103.235441300153,1.72886791774566,AttemptLanding,AttemptLanding,1,0.739413533093219,0.0861314541972355,0.0635769690956664,0.956104831574787,0.34126932799928
153,1.46063799189555,2.23876070976257,-0.693577185611567,-1.26255972704278,1.46063799189555,-0.0613984179475937,-0.0120866221696663,0.0625767701462745,-0.0296926885076017,-0.0873386873577745,0.0946704914845286,0.0061077662183251,0.150650762143286,0.152119732253958,15.387721080597,1.04691088323319,1.02966126721227,0.176644708692288,0.242235520926616,0.177983016018819,0.426784111674728,0.158510859565689,0.0368175851725995,,,,,1.53053947457772,-117.277382087191,1.5,AttemptLanding,AttemptLanding,1,0.419927410956271,0.186550019380231,0.195767495336259,0.895361721614642,0.320896437324969
154,2.64328756412634,3.0,-0.649967621817973,-2.5294391529528,2.64328756412634,-0.0233677294170778,0.003027625793902,0.0235630493794345,-0.030307665950419,-0.337084977654919,0.339711494320798,0.0219332657184002,0.199232013158961,0.201183084241395,15.375357105337,1.79453679020264,1.55092168006498,0.0632681666831667,0.240416590582321,0.134499497632219,0.420115588816511,0.0019295998791244,0.0111982963828199,,,,,3.0,-102.931426400997,2.00091763664542,HoldLanding,HoldLanding,0,0.745113300615304,0.0845801904578021,0.0556778219965297,0.942080171534885,0.340222445496791
155,1.62173394308794,2.32705569267273,-0.777030939179848,-1.40504331799124,1.62173394308794,-0.0586310255015971,-0.0031433990125386,0.058715228933565,-0.0346989879484305,-0.105427107110344,0.113013862514127,0.0072888160372403,0.125900761500618,0.12768968214282,15.4677550803524,0.871124351840281,0.764505564087512,0.176691941006261,0.240182329560057,0.144748168085629,0.406678460516536,0.155690623697721,0.0402296157298127,,,,,1.68981233095603,-117.495671617653,2.11265216919538,AttemptLanding,AttemptLanding,1,0.458000321252015,0.169461852294397,0.185501895305658,0.898802651586008,0.335667480850831
156,1.6237045199576,2.26589560508728,-0.711370216837758,-1.44740670146962,1.6237045199576,0.0034837934159366,-0.0004702710684006,0.0035153906529286,-0.0283180817974622,-0.109994318245492,0.114669063692008,0.0074062070233143,0.113125919483454,0.114025234114036,15.3870753359688,2.01832980856286,1.96078103830191,0.0272400039152155,0.0683186924132995,0.132019665495728,0.47120916250025,0.0160585710308301,0.0052057651267004,,,,,1.64682358488304,-115.230680905002,1.83950620652091,AttemptLanding,AttemptLanding,1,0.455792918811501,0.145137482440548,0.0961126376453158,0.955115555674169,0.34132459311301
157,1.63172059811202,2.28213357925415,-0.718825380227977,-1.44741337572292,1.63172059811202,-0.0583835976108326,0.0057179958501044,0.0586629350316316,-0.0299959889644574,-0.11182891426056,0.117363689001981,0.0075712607022461,0.122699467530899,0.124493997839194,15.3526023193456,1.08722675661105,0.908317585229612,0.176529536671394,0.240196118631095,0.15527263876517,0.470773577955269,0.155898347743305,0.0393750155674783,,,,,1.69535374865113,-115.407012304463,1.62095572538666,AttemptLanding,AttemptLanding,1,0.46002429239771,0.157097792179446,0.17786501733933,0.896055954692698,0.330989938326591
158,1.62411016548002,2.43437218666077,-0.759518505706935,-1.41151127974027,1.62411016548002,-0.0613337590367007,-0.0013326232362058,0.0613482345488583,-0.0347890287792502,-0.109090338756924,0.117088259248085,0.007553067231363,0.160994730789448,0.162814950555842,15.3938805234524,0.946478000520896,0.990019753031473,0.176643979034127,0.240235382807763,0.172354872015279,0.480260637656415,0.157927112688515,0.0357623356176049,,,,,1.65925020896733,-117.23842078182,2.17881588486056,AttemptLanding,AttemptLanding,1,0.465659034239174,0.193556131099625,0.199327992200466,0.896462670990739,0.323397834659876
159,2.59059089681377,3.0,-0.751970942697374,-2.44542373186175,2.59059089681377,0.0092476277321928,0.0039968513006532,0.0100743952172205,-0.0385364786998941,-0.31186666413022,0.316121293772386,0.0204162532630163,0.197877580896994,0.20037827711134,15.4159853037319,2.05019280734778,2.04592809378068,0.0146210810326804,0.0485634053692487,0.147322590157883,0.407543972432564,0.0002769364852866,0.0071389721205836,,,,,2.88835322200788,-105.56852442763,2.46394836296623,AttemptLanding,AttemptLanding,1,0.730899894572606,0.0939640206733932,0.059097485148416,0.960505652403365,0.334523293263163
160,1.52110422577634,2.23273205757141,-0.678859464225252,-1.34509489037396,1.52110422577634,-0.0542728068600557,0.0093492745166269,0.0550721935141153,-0.0267068659711103,-0.0977864138329321,0.102791050517701,0.0066302063083664,0.136353744704751,0.137916315648512,15.4346098148419,0.961280440014825,0.851908175428469,0.176808635138989,0.240185489369561,0.16518694651439,0.396642621956741,0.158290976018568,0.036707411225671,,,,,1.56544004446909,-115.546181583882,2.13825372440514,AttemptLanding,AttemptLanding,1,0.43321105667006,0.170212830964812,0.185827393012636,0.897349200452022,0.326583579326938
161,1.65906795342763,2.44916105270386,-0.768218422777274,-1.45160661740486,1.65906795342763,-0.0629793956571267,0.0126833789619746,0.0642438509059815,-0.0343682577854538,-0.113490902125177,0.12054098677469,0.0077736560962885,0.136026990424873,0.137821070740891,15.4756250684818,0.768868285607673,0.715549254885815,0.175539783877399,0.240211939960202,0.146842718130282,0.388543713174497,0.155844473652071,0.0410869692139157,,,,,1.70136515468512,-117.053321105748,1.65423115009822,AttemptLanding,AttemptLanding,1,0.469982335062214,0.189548986669914,0.197934318591767,0.900566827385995,0.334736569719875
162,2.56675695256645,3.0,-0.722650461808414,-2.42877438787232,2.56675695256645,0.0061726001162677,0.0066080088662588,0.0090424981820238,-0.0366747116982947,-0.308870120773224,0.31283968816105,0.0202050894783515,0.20508853229407,0.20753771271094,15.4059872233644,1.95504680307006,2.12107990802631,0.0234379020472916,0.0513650521905365,0.138359352589861,0.469670229864961,0.0052978884561227,0.0065756407138135,,,,,2.85921158454158,-105.062668776886,2.10805145611694,AttemptLanding,AttemptLanding,1,0.725976063226574,0.0991374770059205,0.0642282453729128,0.956254339103454,0.338506954404506
163,1.68803182405394,2.41080760955811,-0.789923022987069,-1.47885497281147,1.68803182405394,-0.052108425416203,0.0034540761567483,0.0522227789518387,-0.0345915304748597,-0.115563727315905,0.122005706516419,0.0078715204776888,0.113283621558103,0.115369615923104,15.3872151713735,1.03256151295429,1.03385167256546,0.176313357930096,0.240186624736203,0.167119837036184,0.463246861553565,0.159033335430954,0.036850996222081,,,,,1.71874998102098,-116.787170824054,1.99931407677544,AttemptLanding,AttemptLanding,1,0.473215742932339,0.172198727879607,0.187401081404096,0.89560721743444,0.325724516872807
164,2.49856367900217,3.0,-0.762989510676655,-2.34785284193312,2.49856367900217,-0.0222516655185516,-0.002970645390377,0.0224490835533406,-0.0383774554197456,-0.291975320325561,0.296496252733937,0.0191454029570525,0.216408146378848,0.218187012881224,15.4029503143799,1.92586794001004,1.64416433955461,0.0680937198430163,0.240265150669244,0.138695910887985,0.492069913290385,0.0109079103178633,0.0331684754791169,,,,,2.64390369362176,-106.697557678757,1.64172729237786,HoldLanding,HoldLanding,0,0.709921050310157,0.116938837542624,0.0870725264774348,0.937902886453341,0.338357372938673
165,1.45360258596622,2.44267511367798,-0.667481108635171,-1.28234815954101,1.45360258596622,-0.0117622546098822,-0.022272543382362,0.0251876323267371,-0.0273437294690994,-0.0950214661492747,0.0996961355386408,0.0064295946780088,0.110334462575578,0.111487447627254,15.4690446229569,0.55005325337414,0.780364635420672,0.149002183267367,0.245772668508676,0.226900506460771,0.449456024225031,0.205276529547371,0.046130139721301,,,,,1.65443912380199,-114.70021335318,2.44797399783382,AttemptLanding,AttemptLanding,1,0.40992484578311,0.22715905132838,0.244304040191484,0.915045624954357,0.299155330461879
166,1.64586322084318,2.64657855033875,-0.7287513571752,-1.45035756402017,1.64586322084318,0.0065405260359667,0.0024209947622125,0.0069742165485321,-0.0330192712411603,-0.114414523295727,0.121572801332907,0.0078486684713187,0.178741098456406,0.179676059191192,15.4143836856507,1.82644999848147,1.8978997315456,0.0275429280764731,0.047980791808284,0.128805639282819,0.421841822610542,0.0206837425442255,0.0044159086110494,,,,,1.6985678915868,-115.061450151433,1.53851396686738,AttemptLanding,AttemptLanding,1,0.474832070729754,0.226439555503732,0.146662292715812,0.956965788082979,0.342753049207636
167,1.51007824572357,2.23851132392883,-0.709246946213394,-1.31816896873825,1.51007824572357,-0.0502476450328968,-0.0099701769148232,0.0512272413766823,-0.0290324607922026,-0.0924838328996945,0.0984113906242215,0.0063473152239608,0.117437478225791,0.118968502133037,15.4212665206064,0.816442290412735,0.861478616906409,0.176744889222555,0.24016310850681,0.168353762281103,0.404305868388898,0.160061929986851,0.0369337085859342,,,,,1.53242316823457,-117.234742424214,1.79192723767163,AttemptLanding,AttemptLanding,1,0.426481232619559,0.173289103515243,0.188542537144652,0.898443891116929,0.325176105652843
168,1.72200716381905,2.60985898971558,-0.858258104484502,-1.46582280035436,1.72200716381905,-0.0807723126581369,-0.0090634014575562,0.0812792208262645,-0.0447125966772361,-0.11788985184256,0.129656286750167,0.0083630637554614,0.177655336631424,0.179663143143032,15.4619529514199,1.00479126680949,0.796440882425884,0.176632381658599,0.240253523987763,0.156487873818876,0.409635793626061,0.158717113272619,0.0364559364052605,,,,,1.76822611766951,-118.998443980142,2.03474695952453,AttemptLanding,AttemptLanding,1,0.495134538980353,0.214667851311533,0.212598354166563,0.89753127085528,0.330449833858277
169,2.44753461976514,3.0,-0.77796565924906,-2.28858705094033,2.44753461976514,0.0053922924417739,0.0061488049244684,0.0081783017660624,-0.0402026222894227,-0.277212089157975,0.28221111003236,0.0182278664129367,0.219740922803463,0.221829234614976,15.3142787730394,2.02039499181328,2.09222797919819,0.02336917924749,0.0658417552505825,0.140323609587753,0.503236563158154,0.007547597027042,0.0092594295587017,,,,,2.66549340284327,-107.193726307889,2.08733316720621,AttemptLanding,AttemptLanding,1,0.697041745527032,0.125804065876622,0.0822039923876208,0.956001944175451,0.337633951294332
170,1.7591864748581,2.43484711647034,-0.778920206334848,-1.56409506722785,1.7591864748581,-0.0384061513092561,-0.0031577075990195,0.0385357441302277,-0.0341651897892515,-0.129542788319351,0.135244480760877,0.0087244154976768,0.11788297008082,0.119963620688492,15.3594825061207,1.02382832881316,0.987578266828179,0.177246417997574,0.240223325255814,0.156907464999263,0.442686819852757,0.158871219849433,0.0365746926384124,,,,,1.77840570795084,-115.675983280215,1.63219953926064,AttemptLanding,AttemptLanding,1,0.493109117433193,0.159088530786628,0.179362437748319,0.89557288203546,0.330263348889217
171,1.67246743795034,2.37455368041992,-0.808790113202724,-1.45143344183601,1.67246743795034,-0.0458747975820094,0.0005633767213258,0.0458782567947004,-0.0359318959379946,-0.111903809273086,0.118958877270816,0.0076722116994701,0.120566643960844,0.122446254109901,15.4311784263869,0.768298067955124,0.862530139617905,0.176029312154256,0.240219895807902,0.161424889974938,0.474977195116614,0.159175594781487,0.0354020863931742,,,,,1.68221562017466,-118.331726157389,1.95823284924032,AttemptLanding,AttemptLanding,1,0.470480567608738,0.166380418301351,0.183446445733737,0.899171693720512,0.328255604455583
172,2.42606055377718,3.0,-0.845890894659241,-2.23959617440481,2.42606055377718,0.0057454902827903,0.0068374143495581,0.0089308954521471,-0.0463970005987363,-0.265561109255893,0.272357289845327,0.0175853677649302,0.219898547292607,0.222028148897563,15.378709609481,1.88315513715446,1.84867825974584,0.027741828047889,0.0579243790372968,0.135964197870922,0.402745663917301,0.0208128348405935,0.006067504647936,,,,,2.5789773418386,-109.450212225276,1.73498838170444,AttemptLanding,AttemptLanding,1,0.69135511078676,0.130773706233029,0.0899207378843809,0.956807537857553,0.339571467612923
173,1.57615939042712,2.1501145362854,-0.737458322135351,-1.38054418433123,1.57615939042712,-0.0493369122545106,-0.0043976661477612,0.0495325183930359,-0.0306237290821374,-0.100808741844301,0.106632756840017,0.0068777374374843,0.108063237858692,0.109746780448139,15.4138553062212,0.822989416404158,0.885821928772628,0.175588039890624,0.240171571518823,0.149341312619166,0.433379336671303,0.15555429615848,0.0406462512761578,,,,,1.60572032516396,-117.151648626796,2.02263789044662,AttemptLanding,AttemptLanding,1,0.442258526870194,0.138220869523502,0.166848219460716,0.898779605199728,0.333626083280371
174,2.24171676669087,3.0,-0.696282758883554,-2.10068072410055,2.24171676669087,-0.0050221036559209,0.0200387193513668,0.0206584558564685,-0.03606801732295,-0.247579538275809,0.252125685566314,0.0162774945087675,0.23170611346509,0.233126982387846,15.4139370025906,1.76881456733909,1.50257393393027,0.0622637486033858,0.240401941328247,0.136945687644331,0.46836056637045,0.0019349660641917,0.0085162804235922,,,,,2.36078838964489,-107.709824257803,2.32581325286806,HoldLanding,HoldLanding,0,0.644416534261803,0.174401111068239,0.108597480803305,0.943164358902619,0.339135249935853
175,1.64573693194905,2.37225937843323,-0.799295500600974,-1.4251854643761,1.64573693194905,-0.0369065994915537,0.0064914261555454,0.0374731330363882,-0.035585234905619,-0.107108249718417,0.114300770245381,0.0073734338072416,0.101772232199975,0.103710954048745,15.4372437847397,0.957383168841938,0.964802769097626,0.177698942227545,0.240171814987037,0.153589897992228,0.39160866589901,0.159627694194589,0.0354330063652162,,,,,1.70036876942666,-118.357386427334,2.22453586749459,AttemptLanding,AttemptLanding,1,0.459605372662829,0.170337624848945,0.18603294636098,0.896047639373845,0.331737823114565
176,1.7624714775229,2.54195547103882,-0.891598187031278,-1.50737107215325,1.7624714775229,0.0049126050864392,0.0022865171029024,0.0054186575087538,-0.0435922391779359,-0.119716401006756,0.129113674906067,0.0083398081219272,0.13013750477017,0.131186720706561,15.4005440392923,2.14480162551863,2.23494604395275,0.0141296541052766,0.0505576038583771,0.146510478062523,0.449490322984091,0.0001723802441883,0.0070775977673343,,,,,1.79740384781532,-119.424856454763,2.49051375450525,AttemptLanding,AttemptLanding,1,0.496229738147418,0.176377319084354,0.108476676807868,0.958522869830086,0.334884231972212
177,1.92701389765579,2.95054984092712,-1.00228177690387,-1.61375943585893,1.92701389765579,-0.0793606583704939,0.0104108128177186,0.0800406091963562,-0.060831711094527,-0.142734214274256,0.160477787213386,0.0103514024067462,0.201562439129236,0.204032958009577,15.4467555698443,1.00586800527515,0.90999415325287,0.17605636125373,0.240309942631337,0.145083572395504,0.394818963670756,0.158228188126508,0.0353781887230256,,,,,2.00389774569212,-119.82849383685,2.01153180646323,AttemptLanding,AttemptLanding,1,0.554676964310127,0.244969698922048,0.230170254419848,0.896918616698986,0.335518412268665
178,1.8350254881302,2.72684597969055,-0.981106994168604,-1.52871697055201,1.8350254881302,-0.0604333815676709,0.0042053520585765,0.0605795228904972,-0.0542353029726939,-0.125060361279916,0.139627525950181,0.0090060183168263,0.146533839628141,0.148675619331307,15.4541471820144,0.856710316864279,0.949539596356025,0.175782423790489,0.240264424491033,0.160946946832795,0.469954676437484,0.155795945442137,0.040309750956803,,,,,1.88108853169074,-121.75609313085,2.46788868618633,AttemptLanding,AttemptLanding,1,0.519075254034314,0.211765856464337,0.210960247554349,0.897916824500882,0.328468023629869
179,2.50412349198574,3.0,-0.658579713048092,-2.38195657327468,2.50412349198574,0.0088378138063455,0.0060105315371861,0.0106880045955801,-0.0320153706825806,-0.298800387287654,0.301999987768101,0.0195011810807776,0.217188088046472,0.21953033257361,15.420848134669,1.93846482166622,1.98604994931462,0.0265798157556415,0.046326321994358,0.137812976032305,0.440120340965599,0.0210791663846605,0.0075028677878974,,,,,2.73243854491602,-104.018907315581,1.59437229976902,AttemptLanding,AttemptLanding,1,0.711672331044253,0.113531681812398,0.0802158430398565,0.955874618921616,0.338749788430087
180,1.81017189617925,2.55128121376038,-0.900944802707319,-1.55538849195794,1.81017189617925,-0.0475086702690447,-0.000993716852061,0.0475190616901773,-0.0450454714449804,-0.127335333409937,0.137065381177283,0.0088401596635788,0.115872467038079,0.118008884090989,15.4639449871129,0.972353990293702,0.745581908850104,0.176175729931748,0.240218301746922,0.149781108267707,0.352721123733624,0.156271026336236,0.0397941168452817,,,,,1.85620598441334,-119.444845846151,1.52481064453755,AttemptLanding,AttemptLanding,1,0.506314282465998,0.175461424432286,0.189201232085882,0.898414067255139,0.333430618547686
181,1.8209127425342,2.82657718658447,-0.886864860317499,-1.56183769768478,1.8209127425342,-0.078256996007653,-0.0116249634116644,0.0791157202992196,-0.0484176479553061,-0.135155165474405,0.147444815976438,0.0095108874925709,0.192315694937381,0.194616354883758,15.4427391862192,0.994804678448044,0.876074250228092,0.177225949082442,0.240260397478145,0.154742465374112,0.476673964151178,0.158741950586982,0.0381879333515982,,,,,1.8944468966032,-118.434379956689,1.5,AttemptLanding,AttemptLanding,1,0.524500002319205,0.240779048632835,0.228905928437123,0.896687262447752,0.331225570944839
182,2.43265958414429,3.0,-0.450282720630763,-2.35863838312308,2.43265958414429,0.0064403253078367,0.0103280668848414,0.01217155518611,-0.0194141225754757,-0.29411165650972,0.295442861072213,0.0190797278662546,0.218538142879925,0.22084089437539,15.4096021736066,2.06075408216373,1.97137182283108,0.0278039265754168,0.0572924992979655,0.13171247480995,0.459054580450549,0.0215263188760075,0.0065724160425012,,,,,2.61222307005049,-99.3162222201901,1.52031343712651,AttemptLanding,AttemptLanding,1,0.692877401313554,0.129883045351656,0.0898870495147751,0.954417047458761,0.341461122306689
183,1.82315798413834,2.68788552284241,-0.976334616287697,-1.50916778960815,1.82315798413834,-0.0869640994233463,0.0052827901542463,0.0871244079482177,-0.0568652143690025,-0.124671725433893,0.141950619287582,0.0091569146108807,0.176055807983237,0.17825328541746,15.3992439616621,1.04240779249552,0.960109315157101,0.175451709526221,0.240250434166036,0.131283286538326,0.439279765706395,0.155732095338037,0.0386737233726251,,,,,1.87171872539055,-121.350351106356,2.30968738023243,AttemptLanding,AttemptLanding,1,0.521826119520381,0.210536504332256,0.209599339329537,0.89654008224819,0.341651872649633
184,2.51262934190723,3.0,-0.279629957048186,-2.46141181195962,2.51262934190723,-0.0220580720569896,-0.0020209085328303,0.0221504540398027,-0.011449205039926,-0.321645826156438,0.322261437611381,0.020804639073906,0.226002768613331,0.227902343494436,15.3777617398339,1.83164317460464,1.39896663382976,0.0623975285026742,0.240465451727054,0.130158072279784,0.410565880804518,0.0018840747578783,0.0091058851083792,,,,,2.70378156394852,-95.0700514349474,1.96379815213888,HoldLanding,HoldLanding,0,0.715614959874147,0.113719314644838,0.0723801862944614,0.943417872968107,0.342151967875652
185,2.09703754578661,2.94749903678894,-1.22253581140488,-1.68602918345506,2.09703754578661,-0.0631566040095317,0.0045476834234537,0.0633201236143515,-0.0818117892092162,-0.151472428128342,0.175773269257247,0.0113380972962984,0.146749487172723,0.149461752389136,15.4427763593927,0.969947903608638,1.00134687717139,0.175378031907333,0.240287859302094,0.166138382056451,0.404389775372446,0.155230453892412,0.0407002994757164,,,,,2.15708888634091,-124.745911655981,2.28897063359359,AttemptLanding,AttemptLanding,1,0.589102362687589,0.202962524804823,0.205568936624226,0.896822239340205,0.326160719086022
186,2.07760702726434,2.89674401283264,-1.13956153463012,-1.71106835860727,2.07760702726434,0.0061574366675225,0.0018465109828571,0.0064283457533305,-0.0724343633048606,-0.155552713242273,0.176461677518766,0.0114013670613347,0.169506062705143,0.170882127536633,15.3691146800481,2.25595088154027,2.30383772674566,0.0154931298111755,0.0537326422165595,0.163922235207742,0.497398919459336,0.0003473077134881,0.0052131821581335,,,,,2.10837557196529,-122.363616262261,2.44167274856509,AttemptLanding,AttemptLanding,1,0.588204966111151,0.185484351807644,0.113340672671317,0.956426524600737,0.327145673241003
187,1.99006730920813,2.79757809638977,-1.1013229753279,-1.64286650823363,1.99006730920813,-0.0545053180593444,-0.006667280497168,0.0549115864456511,-0.0685191593843581,-0.147111298972213,0.164876952982719,0.0106346873577878,0.143593201352912,0.145552161320708,15.3977883558673,0.778931024148129,0.942424868984467,0.178521129832792,0.2415790023115,0.269933591462198,0.468943657862254,0.14811465916803,0.0048452554183699,,,,,2.09849345512064,-122.244984043751,1.68296598918339,AttemptLanding,AttemptLanding,1,0.559795048052976,0.191757051297572,0.182644879247782,0.897214495923276,0.28002951490569
188,1.99724676145003,2.9807722568512,-1.13660181114341,-1.60527085136839,1.99724676145003,-0.0941185468189497,0.0074720116977254,0.0944146800774211,-0.077952114918314,-0.144585805941618,0.171579049498178,0.0110642873872978,0.211534674765541,0.214164005418483,15.4674703978624,0.674601291531726,0.655160589888982,0.174585824906617,0.240339173192128,0.137239922393395,0.407145090659266,0.155464857621975,0.041113264459643,,,,,2.08252249604559,-123.526280590972,1.5,AttemptLanding,AttemptLanding,1,0.575431937470372,0.238602594479456,0.227207326949431,0.902258958478386,0.339004478936269
189,2.50421494903373,3.0,-0.76945595821924,-2.35060868588111,2.50421494903373,0.0057913525384846,0.0045494329568003,0.0073645844725574,-0.0396195539446354,-0.290757505324458,0.295406830746705,0.0190754045471766,0.213249210476818,0.21545216935551,15.3733922698981,2.13570474491541,1.83592843563188,0.0273757743452883,0.0671126838837443,0.134344803837581,0.537113042482921,0.0220398539561022,0.006305902236506,,,,,2.71977714743149,-106.924123588306,1.64896596266485,AttemptLanding,AttemptLanding,1,0.710881086946764,0.112901810287379,0.0798296321783136,0.955106423551627,0.340291198294408
190,2.00420730946048,2.99050974845886,-1.10098141613463,-1.64076795060796,2.00420730946048,-0.0912352450432059,-0.0056892332671197,0.091412457101106,-0.0718400825270042,-0.148608565373138,0.17146352820636,0.0110609492403508,0.214312125238781,0.216946607665242,15.4286098787435,1.11109132049609,0.981160025712668,0.175909994556113,0.240339002776788,0.159365723713917,0.428265187000068,0.155916911901238,0.0408447111164488,,,,,2.06580628279313,-122.281189709167,1.60815841843158,AttemptLanding,AttemptLanding,1,0.577844604055843,0.238676999243172,0.227355227059506,0.895605885001732,0.329170789460481
191,2.01693079761557,2.80274438858032,-0.982007613428955,-1.74698900285007,2.01693079761557,-0.0453589527678545,0.0009709521295291,0.0453693436610482,-0.0529149021501615,-0.160360813171461,0.170931782820705,0.0110273245830665,0.129964665524859,0.132665427091718,15.3959163945179,1.09770840032617,1.08126565902301,0.176467082257473,0.240274856277735,0.155099633351406,0.534501106431015,0.157833054160921,0.0410694118389674,,,,,2.07634549688122,-118.754548572983,2.09271663637209,AttemptLanding,AttemptLanding,1,0.564381298115828,0.185125770971595,0.196157818232284,0.894645948404949,0.331066829621598
192,2.47689768542414,3.0,-0.963936206001202,-2.24860212782513,2.47689768542414,0.0104221889102395,0.0082996264101546,0.0133231310219804,-0.0572033028604076,-0.267271361681838,0.276764989640173,0.017875930428541,0.221389292905543,0.223511764360415,15.4085535915996,2.05206295641451,2.11048368495981,0.0205078553238337,0.060285325428234,0.145150867572998,0.503802411652734,2.10445605708066e-06,0.0099221576322537,,,,,2.68099720733185,-111.612146549017,2.2380570070105,AttemptLanding,AttemptLanding,1,0.705208402318521,0.120140594800265,0.0756933495147815,0.957040348727285,0.33548850330089
193,2.06966721608832,2.79987668991089,-1.06923589381084,-1.75539199638439,2.06966721608832,-0.0589955423221921,0.0019353549637003,0.0590272785475078,-0.0627448759368823,-0.162288068092423,0.176700692832464,0.0113983810314039,0.125803179721411,0.128675239453309,15.4097281875307,1.07064430483143,1.01483514622785,0.175827534963547,0.240300861200888,0.164125471279333,0.431880581833593,0.158637649610758,0.0356556104897521,,,,,2.11900443077325,-120.570247299149,1.94674877521569,AttemptLanding,AttemptLanding,1,0.577646305514214,0.175118799343788,0.188542578197226,0.895700322545618,0.327055346098074
194,2.48569336224751,3.0,-0.996279044113166,-2.24126593101185,2.48569336224751,-0.0259839581741763,0.0015922013108317,0.0260326945860692,-0.0593169546309422,-0.267784393052639,0.27841140558039,0.0179722183745048,0.225687281320722,0.227303356650122,15.3945428888957,1.64026759479766,1.52959762434077,0.0632843600562534,0.240188538871727,0.134477681343513,0.486232547902066,0.0018757234979315,0.0099937934446836,,,,,2.61715863552686,-112.220792726245,1.91638046024752,HoldLanding,HoldLanding,0,0.708312234596028,0.120491654168422,0.0767627540961807,0.943451736107214,0.340232141625105
195,2.0165409257748,2.90313673019409,-1.01122960794946,-1.72868171007894,2.0165409257748,-0.0580072290078815,0.0029498679120305,0.058082186063123,-0.0567936361743657,-0.159006154105763,0.171182563481826,0.0110403684742331,0.14652926372638,0.1491230740322,15.4635414852294,0.864780545677023,0.810646425550637,0.174981286915979,0.240288543738763,0.170133388808131,0.439372600082462,0.155258570360453,0.0389414822267552,,,,,2.08957514186263,-119.371133784789,2.0361500722794,AttemptLanding,AttemptLanding,1,0.567568861679719,0.21013245677258,0.209243822104186,0.899345287482364,0.324385160529719
196,1.92722609808612,2.88432025909424,-0.914817971933127,-1.66724319619689,1.92722609808612,0.0107577920322386,0.0085620945938984,0.01374916554718,-0.0505608615299182,-0.15062392367711,0.162721335306707,0.0105070858487708,0.204272955585348,0.205498877207374,15.3649864012789,1.91925800484776,1.95155704337471,0.027056715638339,0.048913558136976,0.140854480854841,0.437806976190909,0.0197072850504876,0.0058307779629068,,,,,1.98818975952798,-117.123132335998,1.57629338670036,AttemptLanding,AttemptLanding,1,0.555026734931108,0.217866866577142,0.14159919619766,0.956058095373368,0.337398008508959
197,1.89953724889947,2.61957550048828,-0.841015258520145,-1.68927576921294,1.89953724889947,-0.0604853647558175,-0.007715995370394,0.0609755355384455,-0.0398983591802494,-0.150988834879546,0.157670612213392,0.0101709452223529,0.136194721737691,0.138788536297302,15.4273872501695,0.978659842582515,0.907448390116451,0.176685168166156,0.240260918935942,0.149242176584746,0.374044535632453,0.157211946306748,0.0364525859644196,,,,,1.96491164649544,-115.571452830696,1.65966301198414,AttemptLanding,AttemptLanding,1,0.534300973632653,0.17318745478953,0.187039934815294,0.896837994088573,0.333670143740113
198,1.80479670611004,2.75867223739624,-0.793258419391014,-1.59382848294591,1.80479670611004,-0.0808484285496629,-0.0038313793115252,0.0809391615126987,-0.0390101829103941,-0.139254731875795,0.147471286346142,0.0095124858012418,0.189855537487831,0.192042714759139,15.4328400394169,0.947958434468449,0.97235827939011,0.176191387365634,0.240261307165571,0.149558146688693,0.464706064390846,0.157348829133854,0.0392070847105637,,,,,1.88489007794024,-115.359098105949,1.83768626200161,AttemptLanding,AttemptLanding,1,0.519687664581171,0.229460840816723,0.221866439151346,0.896816103565437,0.333529712582803
199,2.47351423673407,3.0,-1.11402514214767,-2.17388594783121,2.47351423673407,0.0095537043942597,0.0025960936613641,0.0099001499964128,-0.0734763552022567,-0.250270609696323,0.265959495395028,0.0171810614946874,0.217194108296966,0.219212898377637,15.3887720612598,2.04404917588588,2.31288292882119,0.0247212388034846,0.0575812162104574,0.151981809218523,0.43533689247966,0.0080151969602496,0.0041503322259913,,,,,2.68563096804021,-116.007396076949,2.05745634532237,AttemptLanding,AttemptLanding,1,0.703446376137945,0.120274324234178,0.0772361160191599,0.953406342632702,0.332452529236212
200,1.89330090058816,2.96598148345947,-0.838571129219222,-1.66820009056841,1.89330090058816,-0.0875708052389249,-0.0138474466949833,0.0886588839889389,-0.0438863805735884,-0.151385275327,0.161047526404725,0.0103900040893274,0.175497511448914,0.177890744895233,15.331484355355,1.16235323128728,1.06519653389764,0.176709502689328,0.240288607853252,0.185529577274788,0.489641985664243,0.157975155581397,0.0361924156942159,,,,,1.97177383483815,-114.893051128023,1.55671812308239,AttemptLanding,AttemptLanding,1,0.540458389135891,0.25760725987735,0.237936414619069,0.894143071928883,0.317542410100094
201,1.80192110362469,2.52367496490479,-0.765194639967465,-1.61820339107468,1.80192110362469,-0.0573258986955177,-0.0113313273201275,0.0584350720037601,-0.0332998940849934,-0.137932843280116,0.143099637788207,0.0092322536345944,0.119529932921916,0.121834223736686,15.3682312666836,1.04714181535406,1.08293280446134,0.176557028310585,0.240194983123834,0.149053709195425,0.511081522585938,0.155258919690966,0.0418193873236458,,,,,1.87135485490829,-114.338554000358,1.92175449976127,AttemptLanding,AttemptLanding,1,0.504879139047254,0.173107715322044,0.188075643436194,0.894985185260444,0.333753907024255
