scenario_id,mean_wind_speed,max_wind_speed,wind_velocity_x,wind_velocity_y,wind_velocity,wind_acceleration_x,wind_acceleration_y,wind_acceleration,wind_body_force_x,wind_body_force_y,wind_body_force,mean_wind_body_risk,mean_wind_gust_risk,mean_wind_risk_raw,min_thrust_margin_n,mean_abs_roll_deg,mean_abs_pitch_deg,mean_abs_vz,max_abs_vz,mean_tag_error,max_tag_error,stability_std_z,stability_std_vz,mean_imu_ang_vel,max_imu_ang_vel,mean_imu_lin_acc,max_imu_lin_acc,wind_speed_cmd,wind_dir_cmd,hover_height_cmd,gt_safe_to_land,label,success,onto_wind_condition,onto_gust,onto_temporal_pattern,onto_drone_state,onto_tag_observation
1,2.04352309671389,2.77695369720459,-1.26048238630906,-1.59021559331969,2.04352309671389,-0.0630891022175198,0.0169480729133492,0.0653258906872984,-0.0859876963982334,-0.133033726115238,0.162274630963325,0.0104669984297942,0.12526106562419,0.127963735702033,15.4257993294569,0.839064580244205,0.95838073173783,0.175859484553905,0.240272249816743,0.120389831679142,0.374407469933261,0.156659808412476,0.0404596171658281,,,,,2.0716688985117,-127.374480982322,2.31472368639318,AttemptLanding,AttemptLanding,1,0.570532239597444,0.176998298403079,0.190538148618804,0.897947473128903,0.346493408142604
2,2.30164095362027,3.0,-1.38834104434854,-1.79735024326328,2.30164095362027,0.0111133377378381,0.0055113897555783,0.0124049059937248,-0.10966548468333,-0.17504034909468,0.215828279560501,0.0139303850866223,0.228630626948294,0.230320874034154,15.3893752852737,1.63610055953997,1.68272760668781,0.033261193376485,0.108093326953066,0.112325893532742,0.46727358977045,0.0233958078469091,0.0058641249231309,,,,,2.42882567996652,-126.095851442396,1.57120630545374,AttemptLanding,AttemptLanding,1,0.659835095772237,0.159405018200954,0.108173556804378,0.957292896291396,0.350077380652114
3,1.79112406115274,2.79916882514954,-1.10536942676883,-1.37626657370765,1.79112406115274,-0.0777622079479448,0.0192249759529492,0.0801034374127034,-0.0709317793058455,-0.105099892484869,0.133305605744354,0.0085979542774509,0.188697030134216,0.190864330603541,15.4520902322405,0.760990408211563,0.893060238218693,0.175710242197343,0.240271745104497,0.155095469186124,0.412872527376706,0.156742991536778,0.0404646170898363,,,,,1.87319628751653,-127.297520073929,1.5,AttemptLanding,AttemptLanding,1,0.515805949094773,0.241495702091608,0.229275379263574,0.899148766679376,0.331068680361723
4,2.43594082655426,3.0,-0.717008968694153,-2.29345813591835,2.43594082655426,-0.031614009324881,-0.0168761739319635,0.0358364455851239,-0.0320839197491344,-0.272436616239302,0.276021596526062,0.0178143898883572,0.231153059175795,0.232713426745051,15.3495785516413,1.58740760075747,1.40485631092493,0.063596255067861,0.240219921718235,0.119384590022261,0.537367197367628,0.0018889421937932,0.0083556313111826,,,,,2.46779887999601,-105.553838771394,1.5450930689097,HoldLanding,HoldLanding,0,0.69612690576348,0.13348332904923,0.0839679386793308,0.944691227445708,0.346940182212328
5,1.83942497344244,2.63915157318115,-1.0771912491836,-1.46845488174891,1.83942497344244,-0.0598259590476883,0.0108193563421599,0.0607964131148731,-0.0642237934552637,-0.115046172916098,0.135834512381598,0.0087625098478218,0.148957709831103,0.151155901459063,15.4150361952826,0.992895884748264,1.05281944463186,0.177714269530085,0.240231662677308,0.170012570274009,0.476620896471825,0.15657849398249,0.0419912384431386,,,,,1.88084050141636,-125.058018224367,1.61342841498947,AttemptLanding,AttemptLanding,1,0.52074450654313,0.19108449401227,0.199510679429408,0.895069387646971,0.324438857655996
6,1.87851832826932,2.69201612472534,-1.03796620105629,-1.54505491322884,1.87851832826932,0.0042874770564041,0.0026776169252396,0.0050549077051437,-0.059935721324654,-0.126249908079785,0.143250284225994,0.0092461316839868,0.147817447791351,0.148963873365434,15.4422398059416,1.59314345753181,1.62137688510562,0.0182050510505147,0.0470118513615046,0.115035203322698,0.438118340576291,0.0001921947393749,0.0073408949756164,,,,,1.9161886291726,-122.783489357006,2.30561694181787,AttemptLanding,AttemptLanding,1,0.530730995544906,0.183963737281881,0.113133078608065,0.965640528925449,0.34887324296769
7,1.89834988279408,2.69431924819946,-1.06292594874421,-1.55703236269112,1.89834988279408,-0.0378658103883023,0.0102888091103981,0.03923874602065,-0.0624830083574245,-0.129600346284531,0.146721579638765,0.0094655585097851,0.1361651723802,0.138546668659637,15.3762824480743,1.06038488755424,1.09690336312498,0.178013943292863,0.240258259289829,0.160887314159391,0.472521350177996,0.159616138673615,0.035555344759518,,,,,1.96867067391655,-123.586570068552,2.02873775855257,AttemptLanding,AttemptLanding,1,0.533935969143681,0.186286877319998,0.195641848745349,0.894042906383946,0.328494527040271
8,1.89771467812207,2.84592056274414,-1.10155406724208,-1.51198987774294,1.89771467812207,-0.0611984225950744,0.0281133657604492,0.0673469246699959,-0.0709458327775605,-0.1261720736164,0.1513836792135,0.0097646092292989,0.198110546594925,0.200444641815244,15.4173410532048,0.96847593413156,0.934988183821651,0.176443893103953,0.240278620140793,0.143653198143603,0.466009454796264,0.159275669235915,0.0383108685108807,,,,,1.96461919299708,-125.030810267647,2.35691217404798,AttemptLanding,AttemptLanding,1,0.546146175862268,0.225693260229465,0.2201363673778,0.89682226394982,0.336154134158399
9,2.61087479948998,3.0,-0.806029464540062,-2.44830263959086,2.61087479948998,0.0048915045880168,0.0034225735643146,0.0059699938808792,-0.0431303972056168,-0.312315316660136,0.31752929134908,0.0204891999210147,0.200301567664731,0.202707307768179,15.4429613735973,1.53289348899991,1.27510719960682,0.0307843692410717,0.0517729654118875,0.100457671331501,0.488281546814055,0.0135148524578814,0.0051420869710804,,,,,2.98365709536118,-106.900241715489,1.80024377895991,AttemptLanding,AttemptLanding,1,0.736774741417629,0.0886476689929168,0.0610650522958074,0.962544952826126,0.355352146074889
10,1.89231572345811,2.65409898757935,-1.13477987564639,-1.49990463502463,1.89231572345811,-0.0419683069971995,0.0061597826049391,0.0424179409442667,-0.0692901507983056,-0.119481917659789,0.140880069099529,0.0090877046862907,0.130797911157874,0.133016888081974,15.3841586583932,1.00410509443088,1.04416992699768,0.177428978134474,0.240272612248207,0.141826602201058,0.479686332825191,0.159549735696053,0.0376293693538974,,,,,1.92399487038037,-126.353098118705,1.54056507555475,AttemptLanding,AttemptLanding,1,0.531220903871892,0.179177856933726,0.192101114840707,0.895191921478682,0.336965954577308
11,1.87375285674115,2.59013843536377,-1.16509798847312,-1.45238761064523,1.87375285674115,-0.0412412816147227,0.0120079320325966,0.0429538559494293,-0.0730934477045326,-0.112111478174957,0.136870127389499,0.008830031623171,0.128599881330993,0.130846043541257,15.3758615755547,1.03132738846764,1.14349040049012,0.176757050135753,0.240275476936836,0.192418621066603,0.499457073126303,0.159456719315701,0.0340485195394685,,,,,1.90759543141243,-127.844704273722,1.72277703565853,AttemptLanding,AttemptLanding,1,0.525836637172557,0.169061628780819,0.184687910130226,0.894533620876027,0.314480612859288
12,2.62508097052574,3.0,-0.789095075603474,-2.46967269436835,2.62508097052574,0.0066896827076977,0.0016380594399878,0.0068873139509248,-0.0414959823876085,-0.317542117928937,0.322344798153223,0.0208058670018995,0.196100271196405,0.198651867038845,15.4262271255312,1.68617255418944,1.58526674259186,0.0234426981193059,0.0594384073585719,0.116843996136666,0.481940402847403,0.0007782399140957,0.0059291911047757,,,,,3.0,-106.299635778902,2.09860000991472,AttemptLanding,AttemptLanding,1,0.739751965547967,0.0856194558560444,0.0538736274125372,0.962574485037065,0.348069335050371
13,1.97861521990121,2.69477605819702,-1.05637221668201,-1.65098807565447,1.97861521990121,-0.0573419282741067,0.0134203573863141,0.0588914487049622,-0.0626699464681668,-0.14558085029998,0.16217149215168,0.010460227412745,0.145307415475958,0.147885612642453,15.4593495019473,0.929424608385878,0.960339849445925,0.177137403365269,0.240271867340672,0.167972745130414,0.399832577180116,0.159524261860216,0.0388803263717312,,,,,2.02726066309477,-121.319262228342,2.19811497272903,AttemptLanding,AttemptLanding,1,0.557207847835479,0.171932954212468,0.188197744964166,0.89658314900583,0.325345446608705
14,2.65212865852448,3.0,-0.741988347952797,-2.51052920996951,2.65212865852448,-0.0308449708180561,-0.0039534483322849,0.0310972985721072,-0.0351610135889645,-0.327598191705737,0.33113596210665,0.021378420776814,0.203455621646722,0.205440776440135,15.3446485969732,1.86267395422958,1.60793881212735,0.0630416410530737,0.240602103353712,0.129206918414374,0.506312614353235,0.0018488928039487,0.0086790996787318,,,,,2.96211416560549,-104.652706865072,1.98245631598753,HoldLanding,HoldLanding,0,0.748322464227888,0.0839722232368786,0.0543611003240271,0.941210079166373,0.342574702926945
15,1.72976159968344,2.4055871963501,-0.922798915977013,-1.44339213880541,1.72976159968344,-0.0510974182885391,0.0064117378585192,0.0514981216950706,-0.0476990638301418,-0.112432688161278,0.124979444187776,0.0080647252904909,0.151184574530323,0.153150115009057,15.3689045340636,1.09858566670868,1.22405155919609,0.176626503625797,0.242804177461074,0.181918147693603,0.508713469783173,0.156622591188331,0.0413372424623605,,,,,1.78867162897179,-121.8764556945,1.96472884837647,AttemptLanding,AttemptLanding,1,0.491899782917395,0.161502081560762,0.181543013996372,0.89343745569785,0.319147489913954
16,1.76624189456304,2.57666683197021,-1.00296976448955,-1.43914958661337,1.76624189456304,0.0035844747484818,0.0004371203940365,0.0036110294185158,-0.0546118829576689,-0.108733654918522,0.124080622108829,0.0080126659868572,0.120853212366968,0.121846750530419,15.3458396176131,1.98403059658597,1.9619025133795,0.0279394942924104,0.0693024942214851,0.13258574700252,0.508339713198954,0.0075625689649191,0.0059601415477377,,,,,1.79698325918466,-123.928221238646,1.93263972648792,AttemptLanding,AttemptLanding,1,0.495367188656228,0.183007632976676,0.115333045747369,0.955026492704066,0.341073001332214
17,1.86663451729989,2.56375861167908,-1.01847716132766,-1.54610461715741,1.86663451729989,-0.0439312563148116,0.0125185414297507,0.0456800740030711,-0.0567139333525181,-0.126838742412116,0.141863169977162,0.0091492352268218,0.128302105832951,0.130590413376225,15.4592177761766,0.882731444796566,0.751461281325161,0.175784926300456,0.240239127439108,0.125332875176132,0.416394517460999,0.159435846877836,0.0375227028269077,,,,,1.90606506718967,-122.683382350962,2.16081172330579,AttemptLanding,AttemptLanding,1,0.523887287288548,0.165227601469214,0.183641556481463,0.89926745114453,0.344296499921719
18,1.82043640386491,2.61005258560181,-1.03948403778518,-1.47460422088709,1.82043640386491,-0.0427197147764301,0.016896642411701,0.0459398580251227,-0.0594389585020381,-0.116673757414152,0.134328352247462,0.0086653366559106,0.13810547823376,0.140306306735253,15.426707005945,0.918664052607207,1.0898179539232,0.177574574398038,0.240271137158428,0.181802804223281,0.510994122439,0.159888580189141,0.0366653493855038,,,,,1.87952489310621,-124.36494621675,1.74251824574144,AttemptLanding,AttemptLanding,1,0.513510969044359,0.186085948195408,0.19604601443442,0.895431782749671,0.319198753678542
19,2.61587605754534,3.0,-0.776523774150008,-2.46325977037841,2.61587605754534,0.0062787826482394,0.0038153567247092,0.0073471122545267,-0.0406744812001877,-0.316170063220792,0.320805491268455,0.0207062570165867,0.195907287244475,0.198342107038822,15.4156465619637,1.69596214972575,1.4868974698991,0.0268609601703602,0.0517472150594127,0.108892790324112,0.467251385027406,0.0055576986795727,0.0068282007585315,,,,,3.0,-106.031594526481,1.98728812960639,AttemptLanding,AttemptLanding,1,0.737235370086523,0.0877748576322941,0.0576179849754203,0.961561337189196,0.351603204300395
20,1.89982218239583,2.66855406761169,-1.01708492224885,-1.59011785333701,1.89982218239583,-0.0527635231297148,-0.0098745664720509,0.0536795718692959,-0.0568895353672521,-0.133803787443225,0.147770556369088,0.0095303127148371,0.130293099138062,0.13270474361256,15.4536301962917,0.880796089747035,0.870131061075791,0.176570819259321,0.240265053081261,0.150403131839548,0.398272946844466,0.159427676847022,0.0369126057818342,,,,,1.95533603544456,-121.682915799118,1.71325857022569,AttemptLanding,AttemptLanding,1,0.5331601973614,0.182805929016273,0.193963068413956,0.897957305613874,0.333154163626867
21,1.93646909833765,2.8782901763916,-1.08773671338735,-1.56989958977256,1.93646909833765,-0.0796974574630432,-0.0089971629925477,0.080203701086596,-0.0691429863146642,-0.135330548681656,0.158000777676735,0.0101953073676363,0.189087365241067,0.191540372433154,15.3415111226948,1.15221973510369,1.28655477012177,0.178536257254472,0.240310472698696,0.163362157658105,0.500695288244002,0.159417093595649,0.036394113700973,,,,,2.01006102178809,-122.843348050567,1.73439727713596,AttemptLanding,AttemptLanding,1,0.554699834043338,0.226613754428014,0.220054517418865,0.89157007168885,0.327394596596398
22,2.63777883211772,3.0,-0.739989600442139,-2.49806057829676,2.63777883211772,0.005380499832684,0.0047035112110003,0.0071465233618535,-0.0375551346184193,-0.32419687648483,0.328091525447961,0.0211853567904683,0.196504940628592,0.199108082145882,15.3835599016605,2.10359908467127,1.75191766247779,0.0248626095010853,0.0603809325097768,0.127373354318485,0.474502902631221,0.0001943980069173,0.0062965562600762,,,,,3.0,-105.373889448931,2.06037294188783,AttemptLanding,AttemptLanding,1,0.743229304993901,0.082809958723187,0.0520620311699436,0.957275349379,0.343389620302896
23,1.69972418846727,2.37206387519836,-0.841104424870115,-1.45638914216402,1.69972418846727,-0.0505744737701862,0.0187307770671566,0.0539316178755169,-0.040659958533183,-0.112994237755605,0.122675712868953,0.0079115275337503,0.135558426925325,0.137609387880845,15.4386418855455,0.782471273694549,0.783572017584397,0.177346244155159,0.240188521040959,0.138429206891544,0.43301040337714,0.159453536675394,0.036727237367271,,,,,1.75191981509009,-118.497538474994,1.72438834664475,AttemptLanding,AttemptLanding,1,0.480781661167442,0.161163892791674,0.180921933240046,0.899022252062372,0.338475908048203
24,2.64079745753492,3.0,-0.59788950160571,-2.54016923977159,2.64079745753492,-0.0195883786856578,0.0051445907911742,0.0202526885608151,-0.0276642737295303,-0.340707901105501,0.342913597857282,0.0221234490084821,0.201133738124862,0.20321563677929,15.3987968904068,1.2856124606637,1.00889186264168,0.063899183987701,0.240413682134775,0.112916508264832,0.492941447727545,0.0019520481518945,0.0093750735033598,,,,,3.0,-102.185830974197,1.94690358820255,HoldLanding,HoldLanding,0,0.744855782698503,0.0845335649574595,0.0549968335684587,0.950022159751607,0.34981488521563
25,1.75423569316106,2.64122223854065,-0.963308431322723,-1.43600971045454,1.75423569316106,-0.0788381303378233,0.0076209134532303,0.0792056129136391,-0.0551807962013662,-0.113094445722593,0.130636219902363,0.0084253598888047,0.171046393489517,0.1730435520484,15.4391834481485,0.808813131398093,0.813337304362284,0.176167514206078,0.240246581490568,0.143360942245516,0.456595938426861,0.15902923094349,0.0364546883090156,,,,,1.79680657025774,-122.144595008979,1.65356300659013,AttemptLanding,AttemptLanding,1,0.50240489525263,0.214093001744575,0.212391709538039,0.899170775187415,0.33628402566866
26,1.84278553167979,2.80395889282227,-1.03053952583562,-1.50522415431896,1.84278553167979,0.0072673225068508,0.0020782583590721,0.0075586463223009,-0.0597132473044856,-0.121105455153892,0.138854734386688,0.0089606025891084,0.1623605330369,0.163372266383184,15.4306594621815,1.51077818038574,1.39775417719127,0.0265727114005302,0.0461559067902515,0.104040875377647,0.445565021286788,0.0066699677141441,0.0051932824592125,,,,,1.89015622586425,-123.159855511628,1.968611811157,AttemptLanding,AttemptLanding,1,0.524083928391247,0.217649758082812,0.135442751293667,0.96386089006163,0.353759610943268
27,1.71136811053431,2.38748598098755,-0.818617308427205,-1.4907826223614,1.71136811053431,-0.0421283708807504,0.0030175518959993,0.0422363025430862,-0.0368820998032885,-0.118441625850546,0.1254379699848,0.0080899437550279,0.119075654392347,0.120958604562341,15.4532570251958,0.728174746129765,0.84960608507391,0.175755116196894,0.240216482851861,0.134432914878431,0.393129316543283,0.156649602198697,0.0410725186584661,,,,,1.77620387229689,-117.832865156267,2.2927291460842,AttemptLanding,AttemptLanding,1,0.480556550388283,0.159869842984879,0.180479412542922,0.899725592513524,0.340252037831808
28,1.72269113371972,2.59470200538635,-0.975602300456411,-1.40034388229058,1.72269113371972,-0.0472699918335067,0.0003654180621011,0.047271404234483,-0.0529140915693222,-0.105605354711242,0.121364498854815,0.0078281695926934,0.141119933986182,0.143026035373938,15.4598190419708,0.926719979103914,0.908114852089485,0.176399635048695,0.240235212981631,0.15898193014648,0.409808591408791,0.159427029297997,0.0354538831776653,,,,,1.77693740749085,-123.63065316624,1.7107558719648,AttemptLanding,AttemptLanding,1,0.487989509400047,0.204868870234647,0.206670100762079,0.897383623087705,0.329341364379342
29,2.62744850993156,3.0,-0.520690527608364,-2.54439114475436,2.62744850993156,0.0069042649975373,0.0039736819286115,0.0079661171988612,-0.0228320598781836,-0.33664426049585,0.338217764355497,0.0218536729387862,0.193277227344192,0.196014730258578,15.3233710104167,2.30744340489678,2.38890729469545,0.0151459761336075,0.073205194498173,0.15903839444078,0.519097210841338,0.0002965510970931,0.005971458455138,,,,,3.0,-100.208461528465,2.46158840098595,AttemptLanding,AttemptLanding,1,0.739855882033466,0.0852845400851893,0.0534739639769425,0.955527113579257,0.329316269137431
30,1.85268911293575,2.94659781455994,-0.940228581261724,-1.57401817359485,1.85268911293575,-0.0564200805636542,-0.0029045338335593,0.056494794517721,-0.0504153480412817,-0.132011968841942,0.144467178873636,0.0093216388572859,0.146279110845923,0.148676214847241,15.3619201705558,1.19856848220105,1.12913058701362,0.176978490570397,0.2402498705848,0.159535886288434,0.456860806506974,0.159010345736676,0.0339363171484715,,,,,1.90894849737311,-119.745808657761,2.43639906937283,AttemptLanding,AttemptLanding,1,0.523785673085648,0.256486836860358,0.236903845851151,0.893221690599543,0.329095161649585
31,1.89070133287079,2.64853239059448,-0.94621794320292,-1.6178242714816,1.89070133287079,-0.0559856734395499,-0.0003295119407869,0.0559866431267231,-0.0505451930937419,-0.139140878608546,0.150765663887052,0.0097258276915423,0.140606676945796,0.143063430394974,15.4469124200081,0.953932057341984,1.05301106919396,0.176066051505349,0.240247411197576,0.196377613572935,0.451062387984391,0.159915317592332,0.034370100248224,,,,,1.95935225919259,-119.13516242978,1.50702056268294,AttemptLanding,AttemptLanding,1,0.532799708177873,0.180776205894396,0.1920374162942,0.896198135395972,0.312721060634251
32,2.61229770938555,3.0,-0.640293620422661,-2.50077493820606,2.61229770938555,0.0072292712836324,0.0023686365995147,0.0076074176060548,-0.0302182309756269,-0.326795649476178,0.329416266553874,0.0212640370912385,0.199145023022841,0.201618783580183,15.4138397751665,1.86418870634123,1.54622315872779,0.0281081129504841,0.0472920201265126,0.127299392272473,0.402721588424291,0.0084635548040062,0.0060918758545488,,,,,3.0,-103.01941117063,1.90924372841284,AttemptLanding,AttemptLanding,1,0.736936479218851,0.088627708616027,0.0591534326659802,0.959149850299216,0.343422492323345
33,1.89588747867922,2.70870137214661,-0.824861685962852,-1.69359376027357,1.89588747867922,-0.047103941076993,-0.012282449307063,0.0486789464344228,-0.0383403912905486,-0.151542724725427,0.157670153958838,0.0101707436567006,0.13331399547398,0.135884617247065,15.4229444364824,1.06883013061668,0.880548389723207,0.177301184006899,0.240244323784331,0.145419020532343,0.421134284378544,0.159566662646477,0.0352817841805717,,,,,1.93692079365451,-115.089103932968,2.2331374120043,AttemptLanding,AttemptLanding,1,0.532746917763871,0.19180759954314,0.198832816159678,0.896032862479594,0.335369324207847
34,2.68437095240849,3.0,-0.589084488199972,-2.58091496747065,2.68437095240849,-0.0272991110855051,-0.0098202318324819,0.0290116945265601,-0.0261220094649827,-0.34081025806273,0.34299141429602,0.0221358643308492,0.203723266852736,0.205841793994921,15.3723049578055,1.56469719578496,1.2608494245671,0.0628718723793,0.240320174408518,0.113795276331461,0.509665277854506,0.0018882300666417,0.008362102202094,,,,,3.0,-101.157933097739,1.87674773585397,HoldLanding,HoldLanding,0,0.757000612774581,0.0763353463712929,0.0496811856228527,0.946363340364727,0.349424321630462
35,1.80594384386426,2.79279780387878,-0.817302679339285,-1.58411306680777,1.80594384386426,-0.0619885107998629,0.0005102739441667,0.0619906109881393,-0.040568498759463,-0.1378286042514,0.146691772118833,0.0094660345656812,0.188848157980688,0.191131481318843,15.3321554029973,1.28765185730081,1.17971745021825,0.176844914837037,0.240273233880009,0.168232785491354,0.491775033240245,0.156609756059613,0.0420140672433344,,,,,1.86137587595629,-115.841095627455,1.50737006048524,AttemptLanding,AttemptLanding,1,0.519811321294238,0.233407086351094,0.22492643047109,0.892191069450975,0.325229873114954
36,1.95377041598161,2.95943808555603,-0.888027008816269,-1.71003360501476,1.95377041598161,0.0047952968428703,0.0045381173742705,0.0066022254667573,-0.0486415380810915,-0.158562061648329,0.169631167277143,0.0109532012605192,0.206287118096418,0.207572016871263,15.4233685529955,2.00068000152226,1.83535755060046,0.0227686657849724,0.0512095503831787,0.130012917306221,0.469652926780894,0.0002200312582379,0.0045427308677589,,,,,2.00134863438598,-116.022448666907,2.1412840455723,AttemptLanding,AttemptLanding,1,0.562519847636015,0.227485633656483,0.138241073997948,0.958475372055121,0.342216481197235
37,1.78950976555039,2.67966318130493,-0.808689391677856,-1.56602388998979,1.78950976555039,-0.0790869162219582,0.0048581026713924,0.0792359860105547,-0.041267089887682,-0.134246187903582,0.144005312677694,0.0092878981861653,0.176695717812897,0.178907577935757,15.4561825288647,0.873532252511619,0.829055076170729,0.176382095804413,0.240221187662814,0.138939946113218,0.415883131609172,0.159492574818291,0.0364426367900273,,,,,1.84847057739295,-116.145839673518,1.91728468325018,AttemptLanding,AttemptLanding,1,0.512984119733923,0.21481111598004,0.2130241263198,0.898431480229575,0.33824891283857
38,1.93225460717467,2.86327052116394,-0.756506766675475,-1.74926201227107,1.93225460717467,-0.0715814696796438,0.0021972519767725,0.071615184966229,-0.0362803023925899,-0.16770517459685,0.173939722009205,0.0112204380283114,0.197368683177665,0.20009359422042,15.3944230179486,1.07403407058841,0.958770821628158,0.177432032845692,0.24036575793423,0.159362990132697,0.501680344894283,0.159389738082187,0.0371171953863899,,,,,1.9993932608471,-112.620106358339,2.31468846303649,AttemptLanding,AttemptLanding,1,0.555286614090663,0.222608031224727,0.217901864285607,0.89531194513831,0.329172004385468
39,2.63076899806658,3.0,-0.626366804033724,-2.52129592994409,2.63076899806658,0.004541312797199,0.0025530138782234,0.0052097410477302,-0.0298074211797362,-0.330635955314341,0.333204304371907,0.0215124391485929,0.198177562609586,0.200847674822704,15.4027134279079,1.85074196266127,1.8599785360633,0.0344172341614045,0.0736222118849794,0.130862203898637,0.515099920833569,0.0272942374948732,0.0043451512786737,,,,,2.9987372183553,-102.731971335258,1.56953551453789,AttemptLanding,AttemptLanding,1,0.741707934448963,0.0840320946271024,0.0641300840066319,0.95363572185789,0.341839020489494
40,1.89334728360987,3.0,-0.30146395852095,-1.84290118836539,1.89334728360987,-0.066552402340804,-0.0271913189324369,0.0718929070396917,-0.0102331283339973,-0.186339777088163,0.186968512688727,0.0120596968148717,0.201281246693132,0.204261194418136,15.4547126889462,1.03823647852949,0.673813930549937,0.176939446994254,0.240323382920123,0.149904257042737,0.378858419772962,0.159490616306246,0.0360323315254529,,,,,1.96262077332345,-97.9255988407311,1.80159799875401,AttemptLanding,AttemptLanding,1,0.545744847846259,0.262177227478389,0.241293720854621,0.898078451860106,0.333375885758783
41,1.90693957951604,2.63384532928467,-0.251711645904754,-1.87793543703127,1.90693957951604,-0.0483365489852914,-0.0213865798279337,0.0528564827106766,-0.0058157703494174,-0.185610716529208,0.185804820472859,0.0119857661145943,0.131427559878629,0.134534711681963,15.4424162361696,1.08034050124429,0.725952541316538,0.1761695187182,0.240243017583382,0.163608003949174,0.386813539362297,0.159233499375738,0.0372747892572488,,,,,1.94919332297993,-97.076725643542,2.02793714915479,AttemptLanding,AttemptLanding,1,0.53542416354067,0.173244148861565,0.188271402304751,0.897722938163637,0.327285331578145
42,2.61526605129242,3.0,-0.629154365954387,-2.50582258618131,2.61526605129242,0.0062120828598092,0.001469651650732,0.0063835608739664,-0.0296117148626769,-0.327204045211232,0.329705864796404,0.0212798092268917,0.199246786533339,0.201831365510994,15.4436014528842,1.66684254259254,1.58553385255266,0.0310422621283674,0.0497688343354049,0.107541316908769,0.397312398890908,0.0092116288055588,0.0059678518660096,,,,,2.97766096785849,-102.83550377438,1.83651813264188,AttemptLanding,AttemptLanding,1,0.737770553446844,0.0877354579527662,0.058905459969851,0.958924482973961,0.352203859151658
43,1.84066609703765,2.50368046760559,-0.259880261842659,-1.81214107815684,1.84066609703765,-0.0383439623171627,-0.0048353419600972,0.0386476387124889,-0.0055976107191954,-0.172432768620758,0.17261384573298,0.011135839980078,0.120006792722134,0.122908853579063,15.3981101471564,1.1041491622995,0.842172108526219,0.177707409769432,0.240256333992481,0.156900851225241,0.470163187480356,0.159686017244086,0.036132527549217,,,,,1.87761184680711,-96.9149867627548,1.59997950339805,AttemptLanding,AttemptLanding,1,0.515426063259185,0.15626363380841,0.177868844431628,0.895853770844511,0.330266288344337
44,2.49970102792694,3.0,-0.599001328225069,-2.39271969338213,2.49970102792694,-0.0171682809461616,0.0039192618204481,0.0176099541130452,-0.0289867847481862,-0.306528178089185,0.309266609987738,0.0199614499706692,0.228672914414924,0.230452833682872,15.3896711055078,1.71981156364544,1.36360723952167,0.0628016726026269,0.240311156228849,0.12280597977463,0.462553851817657,0.001939045833414,0.0094992938799004,,,,,2.70268226585959,-102.84402520654,2.12090387229453,HoldLanding,HoldLanding,0,0.712677507517093,0.115795760303829,0.0737935430140816,0.944372301673802,0.345419564544609
45,1.65571249382836,2.53746223449707,-0.22088266020871,-1.61806094652028,1.65571249382836,-0.0568025037151501,-0.0093312154846893,0.0575638429114262,-0.0064812905073453,-0.143432871851329,0.143776801313507,0.0092739653200318,0.172177196144409,0.174543629182992,15.4173254478622,0.877393605203499,0.735766282425091,0.176484776612706,0.240249922016534,0.126246679182298,0.392720405496858,0.156707498419822,0.0434888187870686,,,,,1.74484723470437,-96.8322370152764,1.8906781251239,AttemptLanding,AttemptLanding,1,0.476432057524162,0.208947062850887,0.210830130708579,0.899082784005137,0.343890364807868
46,1.67455037097136,2.41932654380798,-0.229233992195575,-1.64738852382845,1.67455037097136,0.0024569751129499,0.0044891887611588,0.00511757192807,-0.0047894926514422,-0.14202215462954,0.142189081985023,0.0091792406998264,0.113262421471677,0.11444373504946,15.4325056007394,1.94523032974775,1.64270381960041,0.0231805072628722,0.0535284497239985,0.123987408351765,0.408555306712473,0.000148642740795,0.0056107642919081,,,,,1.71876069037497,-96.5690723186371,2.12834131524454,AttemptLanding,AttemptLanding,1,0.469435512602255,0.168512860408386,0.103214057609715,0.960218835195114,0.344894485176994
47,1.79453143943735,2.50430798530579,-0.131945281713039,-1.77717925592754,1.79453143943735,-0.0377256703199899,-0.0144452784761787,0.0403966863906796,-0.0026507491154261,-0.166584410609527,0.166660471275213,0.0107550833964318,0.122108761554697,0.124997221259282,15.3526896276812,1.26475950432288,0.965388887325427,0.177299457040916,0.240252785830528,0.145997366271275,0.423991190461942,0.159502006480151,0.0376592370916374,,,,,1.8330973949862,-93.5355183886098,2.17101653222797,AttemptLanding,AttemptLanding,1,0.503541161435149,0.167105781992023,0.184847517886382,0.893827676973734,0.335112281657211
48,1.72390970972931,2.42042589187622,-0.203740617895022,-1.70004645349642,1.72390970972931,-0.0464835164607214,-0.0376218755507282,0.059800692491882,-0.0043274200844435,-0.153472154149322,0.153603397086746,0.0099078297819413,0.13226955016271,0.134966033702131,15.4263599121834,0.930419156184712,0.771885992999516,0.176757881186143,0.240208417186825,0.143559904086204,0.461323284383637,0.159482131029137,0.0379561312524483,,,,,1.76093856199151,-95.8152911333806,1.67737866641062,AttemptLanding,AttemptLanding,1,0.486702462668241,0.167679601273234,0.185290937434346,0.898245804663338,0.336195598183909
49,2.60505368119498,3.0,-0.673149343640575,-2.48477634513402,2.60505368119498,0.005228376166908,0.0039633501003386,0.0065607973113445,-0.032516300762687,-0.322565314007514,0.325628360170175,0.0210398639921505,0.19315735792309,0.19564874170361,15.3259572306141,2.2271343371492,2.24208109316222,0.0262231394958503,0.0766383978136734,0.142616781737973,0.475379583560454,0.0024896382377422,0.0044780243022799,,,,,3.0,-103.690253195533,2.01813200240657,AttemptLanding,AttemptLanding,1,0.733810729992717,0.0900657345715423,0.0567743190999227,0.951773166156771,0.336614763672012
50,1.65689057631781,2.39679932594299,-0.174972638939403,-1.62876209903375,1.65689057631781,-0.0566691029914095,-0.0183134228589825,0.0595547537201094,-0.0043255004096141,-0.142848830387518,0.143035763319178,0.0092245311155478,0.149989398878538,0.152124939274672,15.4267606980453,0.822617389001094,0.649884823942611,0.175913096213446,0.240215671870353,0.129552460111743,0.429056265062843,0.158928571127352,0.0338914208922983,,,,,1.72627812567413,-94.411640590645,1.6198513039694,AttemptLanding,AttemptLanding,1,0.472262474873016,0.17739784018102,0.189397777661403,0.900473791648719,0.342421128839225
51,1.57508203042608,2.21433663368225,-0.136189636273579,-1.55535074197075,1.57508203042608,-0.0426028723455047,-0.0217853616993434,0.0478498350724283,-0.0027959936390342,-0.128456325960559,0.12854801051296,0.0082914988274568,0.124841781671433,0.12706208932011,15.449693442349,0.90692417036651,0.705605266745051,0.176907527399113,0.240192419793053,0.113006620674497,0.427323032704983,0.159592595357507,0.0352241973280074,,,,,1.64198518080473,-93.7945426045898,1.56960236284512,AttemptLanding,AttemptLanding,1,0.445434292644309,0.152604755495918,0.175301694707031,0.89887636215171,0.349774835255779
52,2.61599005222321,3.0,-0.624790980003246,-2.50796857434459,2.61599005222321,0.0069037977321611,0.0051509943481268,0.0086136615850071,-0.0293947271471182,-0.327288889449813,0.329811975580466,0.0212887628090532,0.195623591939015,0.198188771331177,15.4318853680904,1.74363396541417,1.58404143645547,0.0246624157213804,0.0522068620437692,0.114096922759941,0.413482740344192,0.000361942934311,0.0049150649408783,,,,,3.0,-102.899260755177,2.1054851186856,AttemptLanding,AttemptLanding,1,0.737235101525757,0.0879814095403634,0.0547370055927161,0.96152277112462,0.949290256551137
53,1.70990627963527,2.37215948104858,-0.128431189224968,-1.6935674965871,1.70990627963527,-0.0357958843435411,-0.0108636777919788,0.0374080851034119,-0.0024284742465185,-0.151068269637625,0.151132259333805,0.0097471309445135,0.117508436463374,0.120101259565608,15.4368344634379,0.855321886929218,0.670650237054454,0.176383843781614,0.240215723771939,0.136364139732866,0.41886078672652,0.159423088456924,0.0350079968888519,,,,,1.76767167051157,-93.7767495596924,2.0174634454567,AttemptLanding,AttemptLanding,1,0.47999525981586,0.155865119253622,0.177103958219883,0.899818297135035,0.339393715674282
54,2.61985330649142,3.0,-0.560854767846078,-2.52804251512785,2.61985330649142,-0.0177686187276634,0.0098697822375281,0.020325757375933,-0.0255067158336771,-0.340555919177468,0.342486645333941,0.022103588780957,0.2023013017258,0.204318061852279,15.3980946896016,1.64255708155447,1.25830854973703,0.0631917152544931,0.240328144753861,0.123411769257257,0.451130623633309,0.0019056475224339,0.0113711393293481,,,,,3.0,-101.106544404973,2.19675381140645,HoldLanding,HoldLanding,0,0.739491160768168,0.0892593948916849,0.0585375511455526,0.94561162669832,0.345150324774552
55,1.63583805934102,2.35317444801331,-0.145985241244574,-1.61200350342014,1.63583805934102,-0.0494872167040249,-0.0326648955100727,0.0592956998086294,-0.0033304240834414,-0.139324989955676,0.139456630743816,0.0089961510423894,0.137436154523836,0.139698439138393,15.4312153799462,0.992771003957511,0.830492712772203,0.175865204624264,0.240172512851656,0.15651681782056,0.401534536686255,0.159481860751289,0.0356542292222748,,,,,1.6954412846166,-94.4207914550518,2.33446452123439,AttemptLanding,AttemptLanding,1,0.464163170318616,0.172271565749514,0.187208940712927,0.897741754199277,0.330436969857529
56,1.7114041086038,2.48394632339478,-0.0895155431816414,-1.69760800282327,1.7114041086038,0.0042642093681357,0.003323453408976,0.0054063688458087,-0.0015412055534643,-0.150834076499301,0.150876045463063,0.009738451700506,0.11832077797993,0.119559748757677,15.3950243318333,1.80950648856769,1.46966587489214,0.0214499745102929,0.0505909070279022,0.111344411683888,0.375131076068282,0.0001887774914069,0.0064913865530836,,,,,1.73280982852964,-92.1431804697514,2.21013077724706,AttemptLanding,AttemptLanding,1,0.480286378712547,0.174813165949702,0.107332304878235,0.963510087031955,0.350513594807161
57,1.60708972304857,2.3057816028595,-0.187133282769327,-1.58395765465565,1.60708972304857,-0.0427606705416611,-0.0216138186705023,0.0479127551148317,-0.0038627908922496,-0.132221242865468,0.132372554365997,0.0085361798640591,0.113937863724054,0.116187642557053,15.48105381974,0.762124262298234,0.520002547323995,0.176762417689961,0.240183137867978,0.0984288599560103,0.326755909329727,0.159447152976826,0.0345346747579072,,,,,1.65239533729994,-95.8334835366937,1.91002585432992,AttemptLanding,AttemptLanding,1,0.451794787991028,0.165989678061845,0.183017271708471,0.901544937650845,0.356253840019551
58,1.64912165833168,2.32528591156006,-0.101140351373011,-1.63482814920291,1.64912165833168,-0.0354024939770276,-0.0087339895811458,0.036463943201429,-0.001691353874886,-0.140923112544306,0.140966982262945,0.0090948273427961,0.113921783169604,0.116318484142881,15.3743228205034,1.16965599215932,0.833112718620917,0.177060474599156,0.240211901723225,0.141327375241143,0.449823058625009,0.159760994771967,0.0351560245057986,,,,,1.68060545220575,-92.4282145747537,2.11176771602159,AttemptLanding,AttemptLanding,1,0.463029472383692,0.15882201322998,0.179082103414506,0.895733722830006,0.337187833226159
59,2.53383138179779,3.0,-0.51717378612247,-2.4467462459639,2.53383138179779,0.0066014134522946,0.0031835147694344,0.0073289443888833,-0.0232595576607067,-0.313748595682086,0.315540670554489,0.020361851330077,0.209840906767736,0.21234663278082,15.4556087770821,1.62014404922674,1.31889185607896,0.0329390109420067,0.04747678164529,0.101385945505654,0.399392619465074,0.0232299569160736,0.006152083483171,,,,,2.78982386220964,-100.41262924442,1.63806013034395,AttemptLanding,AttemptLanding,1,0.718157695035575,0.106231578900126,0.0763004939027158,0.960438069558738,0.354939579775265
60,1.65571025966787,2.55593299865723,-0.0973051872745944,-1.63146098453246,1.65571025966787,-0.0487536533041202,-0.0250416375128675,0.0548087795870717,-0.0023968572598359,-0.144254764221451,0.144386443842607,0.0093177439267032,0.165625656896443,0.168089754436023,15.3497394039474,1.24533437361769,1.0147746722378,0.177030727933726,0.241103154259017,0.154098912771669,0.442611282511718,0.156683274167095,0.0418706017569803,,,,,1.72864210057146,-91.9462754292346,2.39249771934301,AttemptLanding,AttemptLanding,1,0.475140686798637,0.212598392530235,0.212421719625247,0.89372663638713,0.331511594323703
61,1.59239889286002,2.24960207939148,-0.186106655341562,-1.56479901448376,1.59239889286002,-0.0430797248747977,-0.010366220792951,0.0443093808218584,-0.0044154619914073,-0.130445804907842,0.130651087758355,0.0084281973478324,0.131933876750511,0.134136158522952,15.3700325343827,1.0223242680271,0.808319474138669,0.176485301603994,0.240191034998859,0.138791742670024,0.468327572361738,0.159555797170994,0.0357405367243347,,,,,1.6541677253945,-95.777639022521,1.96889772146125,AttemptLanding,AttemptLanding,1,0.451466936467263,0.155994103453585,0.177506708512553,0.897373719795272,0.338314781035545
62,2.60218897223473,3.0,-0.538131059448332,-2.51233475517633,2.60218897223473,0.0070986415119655,0.0042211735799916,0.0082588750873118,-0.024484451558129,-0.329151904624309,0.331028575621471,0.0213723209634949,0.200832726612697,0.20342016864925,15.3448112121645,1.90616908920871,1.81373154789918,0.0224406285954338,0.0732972434510055,0.128413693263592,0.461960251765063,0.0004716121758214,0.0066440330411375,,,,,2.96888331606625,-100.576107342626,2.16279264100996,AttemptLanding,AttemptLanding,1,0.734601092992444,0.0910216083465271,0.0572385824343516,0.95955189498215,0.342927247438404
63,1.55105165640513,2.12682557106018,-0.0863727153505766,-1.53869940575846,1.55105165640513,-0.0352664548240909,-0.0161954505059229,0.0388074149222728,-0.0013859998074377,-0.125269826189478,0.125313336570612,0.0080813332222627,0.107114816727419,0.109163566292108,15.4708132670663,0.755768726435521,0.539043202804785,0.176734972541308,0.240170986113204,0.121624861902274,0.358731149659211,0.15878872908019,0.0373583758565414,,,,,1.60300708299886,-92.1234906695166,1.74081130886249,AttemptLanding,AttemptLanding,1,0.43544648829979,0.136663823533136,0.1661559265478,0.901458991428172,0.345944505821211
64,2.68083361195929,3.0,-0.637434268805793,-2.5668996465054,2.68083361195929,-0.0281213565621438,-0.0060554478586962,0.0287659372116505,-0.0279377112915948,-0.338209963914212,0.340600688413358,0.0219775579237697,0.202129911009416,0.204223173709925,15.4354293456256,1.45253088486365,1.21433831029552,0.0638026582008696,0.240348804436468,0.109026604583188,0.412273711945824,0.0018535202822476,0.0075823376986777,,,,,3.0,-102.201792877698,1.52042836553166,HoldLanding,HoldLanding,0,0.75573359793113,0.0770861924646285,0.0498327159794972,0.947144698651886,0.351543731296361
65,1.51077641232484,2.1567485332489,-0.153473229365488,-1.48712333771815,1.51077641232484,-0.0468260376575596,0.0001723719279504,0.0468263549167426,-0.0033663332790896,-0.117293247990236,0.11743022030624,0.0075759354932464,0.115896609860852,0.117853252300496,15.3666862692049,1.05460549240673,0.878105133291928,0.1771897584995,0.240158946017946,0.153620954086844,0.4966333094386,0.159484172653434,0.0344329912465326,,,,,1.55228808798252,-94.2268777224065,2.40219424466185,AttemptLanding,AttemptLanding,1,0.42644436041339,0.15392855894265,0.175760077604239,0.896219537262618,0.331724020405847
66,1.56828311085701,2.41484332084656,-0.12772554171663,-1.54083886936302,1.56828311085701,0.0044133821946742,0.0047926836812606,0.0065151944917162,-0.0033857514645671,-0.12869353637526,0.128868282917412,0.0083203863139572,0.166527747604467,0.167566229934527,15.4204569328884,2.078945250682,1.77408697735991,0.0236717151402447,0.0547409777208917,0.120799576001081,0.40559544374387,0.0002098474816523,0.0068319505519371,,,,,1.60696450398557,-93.5145725727472,2.10865347579793,AttemptLanding,AttemptLanding,1,0.451722075548775,0.19167049957113,0.117579910945329,0.957890317780977,0.346311299555075
67,1.68064045014025,2.36796116828918,-0.123931896017986,-1.66071103836571,1.68064045014025,-0.047407402299904,-0.0175581020671184,0.0505544136651222,-0.0027202741066463,-0.145553834644645,0.145647123631652,0.0093921502918921,0.119367323445081,0.121814669174514,15.4655446395493,0.751625230638592,0.4691283641573,0.175948118394334,0.240193470763326,0.106238063922177,0.385397870674853,0.15960244890376,0.0337976997530555,,,,,1.70472744872138,-93.0615211949791,2.15195265395058,AttemptLanding,AttemptLanding,1,0.472533720538968,0.16391547075545,0.181573776825749,0.902434305415151,0.352783082701255
68,1.58163172249891,2.40700197219849,-0.149148258146867,-1.55517563250058,1.58163172249891,-0.0504619432325221,-0.0196933161992514,0.0541685740787588,-0.003872938880865,-0.130963016606678,0.131138521200494,0.0084580824381515,0.156792124620461,0.159003185276703,15.4494744549297,0.872295129687833,0.683646485721735,0.176803548462275,0.240195005194553,0.132937565640622,0.414457632856938,0.158386664211599,0.0348271412200615,,,,,1.6346567991892,-94.1375227104005,1.82292256858045,AttemptLanding,AttemptLanding,1,0.453569096388384,0.195639211430176,0.200442014830152,0.899372970219216,0.340916637493057
69,2.63292370359103,3.0,-0.390833712252589,-2.57213495717218,2.63292370359103,0.0067441205631962,0.0044453526695817,0.0080773957763554,-0.0160935071727704,-0.343851223589399,0.344691194773775,0.0222600522945747,0.194338156712675,0.197174683006989,15.3302412180081,1.92660198441413,1.93115518705241,0.0224727989184201,0.0736672153545127,0.117976164390081,0.486640173246917,0.0002436867572016,0.0066240141159765,,,,,2.97762147861884,-97.4745863886534,2.15040369369529,AttemptLanding,AttemptLanding,1,0.741547924225672,0.0840730225843503,0.0529608511818428,0.95845265133641,0.347566149159964
70,1.65579237053994,2.59906125068665,-0.0902020949517044,-1.63058209008497,1.65579237053994,-0.0548472917001885,-0.0384896280652221,0.0670050511188873,-0.0025060582600272,-0.145551680541859,0.145692183265904,0.0093966131076281,0.178876681232894,0.181325929268028,15.4761973241479,0.97698020615277,0.486130879788033,0.17789560596862,0.240223783471363,0.139837933917767,0.311848432863876,0.159436825895785,0.0374271864711032,,,,,1.74106956136438,-91.9626622500687,2.27008801172126,AttemptLanding,AttemptLanding,1,0.477809817997591,0.224519757404804,0.219182551941612,0.899556324197584,0.337849807147659
71,1.60061118148622,2.37170100212097,-0.18957523105419,-1.57926025265318,1.60061118148622,-0.0315571433398501,-0.0118810663768263,0.0337196238713067,-0.0035394478244221,-0.131355440495292,0.131474085749308,0.0084798840534955,0.111910175490159,0.114000028676708,15.420933422099,0.869750923484337,0.712950120686188,0.176432883420181,0.240169375227808,0.14298138242228,0.420059721093777,0.159425454523157,0.0382853482886768,,,,,1.67774962146967,-95.9395937551425,1.6349995982476,AttemptLanding,AttemptLanding,1,0.449629654131667,0.179677140685892,0.192583986809629,0.899348050085713,0.336452718923431
72,2.62177196304003,3.0,-0.600963977033918,-2.51926589756084,2.62177196304003,0.0081961884279123,0.0019452519732087,0.0084238655013667,-0.0278393631908894,-0.330362493487149,0.332623286543127,0.0214651923551774,0.197973317037307,0.200564660550809,15.4310662794611,1.54231340808114,1.44094711672371,0.0326154197388558,0.0560340382359571,0.101719512059461,0.42460745412692,0.016188287581042,0.0057612982130685,,,,,3.0,-102.28205700878,1.70690809745316,AttemptLanding,AttemptLanding,1,0.739252122254171,0.0866456836579096,0.0612772222072338,0.960252386007105,0.354791327973573
73,1.67147454599134,2.37883830070496,-0.163517093236762,-1.64654641341546,1.67147454599134,-0.0452638934686088,-0.0131090969564929,0.0471239692189898,-0.0037556487948585,-0.143896136395562,0.144044023004683,0.0092908147126001,0.13185074514831,0.134289153807586,15.435515359506,0.977180022426963,0.680793656268741,0.176516114765905,0.240221170644629,0.134714357502486,0.382352618527245,0.159566399537602,0.0375314129133971,,,,,1.730743683828,-94.7490683234343,2.04817216513785,AttemptLanding,AttemptLanding,1,0.472584376359208,0.167796239167379,0.185243929808879,0.898715006570153,0.340126952221117
74,2.63514154765373,3.0,-0.590860869024713,-2.53480736209738,2.63514154765373,-0.0261108399749914,0.0026921315389711,0.0262492578261316,-0.0258569174662762,-0.338559232731614,0.340585518023554,0.0219786034736506,0.201347699960665,0.203355497238224,15.4107796069782,1.51536662270516,1.2041290572206,0.062796274923415,0.240339630484686,0.109239927357289,0.43153327870472,0.0018950705352437,0.0093598327747063,,,,,3.0,-101.440236798872,2.07692545970363,HoldLanding,HoldLanding,0,0.743375512155305,0.0869055157127024,0.0563891385532796,0.947234396481733,0.351448921174538
75,1.65132023904148,2.40295243263245,-0.157587373135483,-1.63377753318143,1.65132023904148,-0.0456122012560202,-0.0166260573488782,0.04854790094729,-0.002945634240198,-0.141275598322326,0.14136187636122,0.0091174613813782,0.115524058196751,0.11798552996994,15.4643838287731,0.93141495228674,0.611743791204106,0.176017421097164,0.240217200130713,0.155788268801145,0.41837478679299,0.159338665738392,0.0335650466258018,,,,,1.72844746755899,-95.0560971705178,2.05579243723767,AttemptLanding,AttemptLanding,1,0.463949169738382,0.178017692064972,0.189833271511893,0.899866470752561,0.330760769421713
76,1.76892786979675,2.54766631126404,-0.225059419727541,-1.74287985691011,1.76892786979675,0.0033036214000895,0.0033999495772979,0.0047406298614527,-0.0049156687480558,-0.158936713391779,0.159108884747268,0.0102704282266826,0.121356789647622,0.122608103705555,15.4178810892767,1.85785361437403,1.552708925702,0.0264899519653571,0.0543514952922074,0.116548080210218,0.411980373328034,0.0030161871402586,0.0062207061491083,,,,,1.80133462105751,-96.2777836497926,2.02447919732771,AttemptLanding,AttemptLanding,1,0.496235719353579,0.176085264804739,0.109253761464048,0.959957746916724,0.348200853239903
77,1.69051049112463,2.59821748733521,-0.147890832082565,-1.65975620908678,1.69051049112463,-0.0668913550584174,-0.0305921702898429,0.0735549744381304,-0.0042916732731482,-0.149360572232231,0.149577765435858,0.0096472853289827,0.171282454794926,0.173699711715233,15.4521205213411,0.986203091560198,0.640373525436827,0.176285701771652,0.240229647703627,0.103826082178575,0.376616472779748,0.159532450150359,0.0382882256371662,,,,,1.75923009576763,-93.8331549635916,2.00030789321191,AttemptLanding,AttemptLanding,1,0.48554273997628,0.217719152794371,0.215457793995347,0.89907690426634,0.3538550745873
78,1.76452576100421,2.72891807556152,-0.212525770674733,-1.72563945281926,1.76452576100421,-0.0642957737451118,-0.0314253057068478,0.0715646306512613,-0.0067259087614321,-0.161722666348102,0.162123623253749,0.010456573243117,0.180562658776477,0.183156152622751,15.4608718282565,0.930473582683387,0.722349472421169,0.176911859007984,0.240275005895317,0.140169090870817,0.386495762800489,0.159520305606478,0.0338876649269474,,,,,1.84421771642335,-95.6415120879709,2.35882507331971,AttemptLanding,AttemptLanding,1,0.507171433459006,0.230108453061461,0.221285772685918,0.898557603634472,0.337702626279637
79,2.61632988651594,3.0,-0.396967668027554,-2.55385510365753,2.61632988651594,0.0067259340725934,0.004520441555684,0.008103862104406,-0.0164326739075792,-0.339649807520533,0.340561425559262,0.0219806326481976,0.199589510861065,0.202253612592904,15.4178881964188,1.78136464442827,1.22664087896145,0.0296144894591435,0.0483110441285599,0.104489147128451,0.396234030929227,0.0092345291864191,0.0045325806693166,,,,,3.0,-97.5958361626102,1.85021373622469,AttemptLanding,AttemptLanding,1,0.738138692256164,0.087811483586389,0.0584393364982762,0.96155842615808,0.353560379054022
80,1.77405493437838,2.5079288482666,-0.2290965686568,-1.74808590827544,1.77405493437838,-0.0381159212053979,-0.0095876961824193,0.0393032742582915,-0.0048390952933327,-0.161103375826583,0.161264665370085,0.010400984326491,0.121085637638958,0.123723792522465,15.4443255023815,0.954473715121601,0.644052576413571,0.176740569973371,0.2401926279269,0.12841973639978,0.353420021437462,0.159564394535476,0.0366325550839499,,,,,1.84269174465958,-96.4089816842801,2.24308454463977,AttemptLanding,AttemptLanding,1,0.497826074338729,0.172327230905536,0.187634776347192,0.899069865579824,0.342924561600098
81,1.80186723932928,2.7285361289978,-0.205245403507693,-1.76444665833174,1.80186723932928,-0.0684198287140917,-0.0197153926723886,0.0712037194919768,-0.006715722472565,-0.170237202322174,0.17062793683551,0.0110044768365036,0.185767647792473,0.188482011205644,15.4599490574846,0.8987090760299,0.675185573150704,0.177078195967762,0.240252067986192,0.14033503587547,0.393977651730943,0.159522698923376,0.0362461445900794,,,,,1.90149022471625,-95.3637271300002,2.16910532029408,AttemptLanding,AttemptLanding,1,0.518194332728937,0.221554515415613,0.217012102763221,0.899094586915414,0.337628872944235
82,2.5949879582723,3.0,-0.399829895867217,-2.53164174211569,2.5949879582723,0.006561105044622,0.0062889756440818,0.0090884164769457,-0.0169096919237825,-0.334144991360764,0.335137310289517,0.0216329763003297,0.202292038469327,0.204997972886378,15.4281034580888,1.77227408405763,1.61208161278602,0.0178803130403262,0.0506738042511788,0.113479377129371,0.407716983721024,0.0001246907419465,0.0050227151132907,,,,,2.91783086718893,-97.7855854258006,2.32590466583578,AttemptLanding,AttemptLanding,1,0.732996383449888,0.092793919076173,0.057558211412614,0.964468477290351,0.349564721275835
83,1.70253742552128,2.32612490653992,-0.315224987017104,-1.65479893009453,1.70253742552128,-0.0540218928777656,-0.0248560214834299,0.0594658449370856,-0.0087623455969613,-0.144692929095527,0.145238295111803,0.009367008748978,0.126032180527685,0.128450689232571,15.4606203572066,0.911378793891954,0.563112789232467,0.176999437502843,0.240191796053385,0.108061944253562,0.373786444307136,0.159505254101965,0.0354349853742707,,,,,1.75027764965131,-99.5200046041142,2.22108783891454,AttemptLanding,AttemptLanding,1,0.479700117985522,0.151209254800992,0.174502226152921,0.899914990238315,0.351972469220639
84,2.60214263031268,3.0,-0.431522591589028,-2.52941249473588,2.60214263031268,-0.0218712576207114,0.0086504790431208,0.023519836257657,-0.0191330430860712,-0.342816599746251,0.344056944386099,0.0222036981582831,0.209680329273499,0.211755221719764,15.4146703679503,1.5989403386717,1.17604728184516,0.0625722010114161,0.240326797678271,0.106883417319217,0.479002381767599,0.001949708796419,0.0086304836043468,,,,,2.95681470906161,-98.270421652992,2.16218001768688,HoldLanding,HoldLanding,0,0.736255745760668,0.0938298781602175,0.0603028218132914,0.946910425333088,0.352496258969237
85,2.03410862011163,3.0,-0.4363152115222,-1.972757853022,2.03410862011163,-0.0430566265802897,-0.0213031172868853,0.0480384835170023,-0.0131102695008145,-0.205388284405678,0.206125039938442,0.0132961520930504,0.140416701807659,0.143874228423076,15.4370567612228,1.07866690473682,0.807891534604543,0.17730892400679,0.240284174548381,0.158138677462743,0.375449275585143,0.159595926244275,0.0362095187403146,,,,,2.10680641889481,-101.731697741666,1.68039131036609,AttemptLanding,AttemptLanding,1,0.571203811047718,0.226132615786333,0.219778189970784,0.896522578830351,0.329716143349892
86,1.9754514092207,2.96720027923584,-0.568536705194498,-1.86351027509865,1.9754514092207,0.0036539853654716,0.004524367944759,0.0058156267375618,-0.0237748758730544,-0.187930476914213,0.190668954179159,0.0123175120570338,0.210778051986228,0.212271913589732,15.3417958419115,2.03600870146414,1.9918671454658,0.0335584925869525,0.073300012896081,0.124996723850338,0.518716501030982,0.0213212737407408,0.0066007211185875,,,,,2.01104491577433,-105.279667622794,1.63731433717176,AttemptLanding,AttemptLanding,1,0.569241425176799,0.224209693988627,0.146402200280669,0.95157315776636,0.344445900510961
87,2.01259813178964,2.98464345932007,-1.15341335077366,-1.61471478041676,2.01259813178964,-0.071155185238734,0.0185234765215407,0.073526726901193,-0.0769813344721108,-0.143813047229549,0.169919526588854,0.0109608949230036,0.189909160068361,0.192553724534541,15.4203712937485,1.00735978324635,1.04207175075211,0.177053469906077,0.240345432371366,0.164409461908023,0.434513386350033,0.159535395774486,0.0376487453001983,,,,,2.06469467336038,-124.238920485483,1.9184294514828,AttemptLanding,AttemptLanding,1,0.575203580050813,0.232190098626231,0.223909132356391,0.895370588708402,0.326929128040879
88,1.93001677055617,3.0,-1.08404770924547,-1.56463751267422,1.93001677055617,-0.0783865275912142,0.0021534341783829,0.0784161015772196,-0.0681785533687223,-0.134233709583328,0.156577907876345,0.0100984797517578,0.192423164222336,0.1947672865794,15.4610962670436,0.823213916218055,0.918308807402234,0.175810596190201,0.240266980691979,0.151793575617045,0.482864145666366,0.156705725435383,0.0400798861992577,,,,,2.00959748573364,-123.70580417537,2.34628139922859,AttemptLanding,AttemptLanding,1,0.553624596130858,0.255122511914019,0.237295000303262,0.898411309076454,0.332536188614647
89,2.6174295548598,3.0,-0.244995173495657,-2.57062571019407,2.6174295548598,0.0038993055038717,0.0045779549814622,0.0060135060675798,-0.0101583302254854,-0.343812041922227,0.344315012947976,0.0222329769217054,0.207135634369699,0.209937407481833,15.4136322318052,1.90757593890317,1.8488000796511,0.0314319124765804,0.0587257219411623,0.149195131625575,0.424086966773298,0.0125690977178968,0.0070160398089512,,,,,3.0,-94.0907171926139,1.7611316839892,AttemptLanding,AttemptLanding,1,0.739968696125646,0.0871808262689353,0.0604460486170147,0.954769660758783,0.333691052610856
90,1.9233011161389,2.67871737480164,-1.05582406605741,-1.58527505709369,1.9233011161389,-0.0656139651928194,0.0043104712099567,0.0657553997050918,-0.062286770965568,-0.13404409871214,0.151636540635162,0.0097856324321939,0.156086888684276,0.158527303640732,15.3652091679699,1.25826192769309,1.23181341955802,0.176948917935609,0.240269758107107,0.172531416262653,0.458006524216617,0.156680608040413,0.0396835406372798,,,,,1.99637079272466,-122.311062912018,1.71651985571042,AttemptLanding,AttemptLanding,1,0.544585758365186,0.182023814811716,0.193280493096325,0.891960663303794,0.323319370549932
91,1.87958835987818,2.74157977104187,-1.1256066065801,-1.47179516426885,1.87958835987818,-0.0676887658637543,0.0094841756878043,0.068349971562798,-0.0732314297395315,-0.119567430056053,0.146962486742893,0.0094832068930749,0.191593114284492,0.193860487957287,15.356049395725,1.20302045183193,1.27486721289149,0.176498328113563,0.240282682860767,0.185592247318331,0.534019053549257,0.156725719097024,0.0414279065749485,,,,,1.94546366280019,-126.251978914843,1.76800964247929,AttemptLanding,AttemptLanding,1,0.539995660225638,0.206478895631677,0.20860790583322,0.892281718577534,0.317514556747409
92,2.6120023282369,3.0,-0.471341038081373,-2.53711328422865,2.6120023282369,0.0041018921303,0.0059624287829714,0.0072371317550963,-0.0203358237818887,-0.335271613417778,0.3366077099389,0.021747261466723,0.196627424309688,0.199256046028373,15.33927530816,2.34442579484741,2.20180877776869,0.016151182097864,0.0796579170761723,0.144856130273563,0.512726750054718,0.0003080596999841,0.0056110879374675,,,,,3.0,-99.2513675644137,2.41638397120817,AttemptLanding,AttemptLanding,1,0.736385163402181,0.0886262836351324,0.0553530812169191,0.956203994451941,0.335619497656194
93,1.69874471023276,2.49257469177246,-1.02238988809975,-1.34382198927236,1.69874471023276,-0.0459384246976272,-0.0050890007317885,0.0462194417117701,-0.0565730765956014,-0.0955516093414271,0.113242195296364,0.0073036939758734,0.11570947291162,0.117582170435858,15.4556311173923,0.845456213909124,0.82185919190298,0.176027827858512,0.240189228826396,0.130929735787027,0.403484115919758,0.156674216373501,0.0396197125826895,,,,,1.74681180591764,-126.657123786368,2.33231403485693,AttemptLanding,AttemptLanding,1,0.476515023482574,0.187085310160257,0.196291339362931,0.898885750739363,0.341809006316877
94,2.64635146116193,3.0,-0.248646407031741,-2.60292410859426,2.64635146116193,-0.0175966542496543,-0.0023715344845281,0.0177557432002488,-0.0098987139779108,-0.353402289033059,0.353865755753239,0.0228387121067356,0.200007841248409,0.202112779689053,15.4362320261827,1.57972536869427,1.38083767188677,0.0620875714401711,0.240315253842337,0.120699007561258,0.421818877522948,0.0019102920310537,0.0061129303206608,,,,,3.0,-94.2734617915732,2.14988546689858,HoldLanding,HoldLanding,0,0.746116278914327,0.082826140825277,0.0527675869286021,0.945694647532492,0.346355996639441
95,1.77694978559909,2.90189599990845,-1.1227384347132,-1.34586724601066,1.77694978559909,-0.0768758453886779,0.0167638027161745,0.0786824039142852,-0.0729991359098906,-0.101477948577468,0.131306050223334,0.0084692622664333,0.182978310292003,0.184971988471095,15.4296576116577,0.872423793810122,0.884811360683711,0.177047751706923,0.240256899781366,0.127294043996734,0.416368384605455,0.159476205779797,0.036160570803068,,,,,1.86493072097439,-128.583435678336,1.75100854549296,AttemptLanding,AttemptLanding,1,0.510847673853977,0.267538005603891,0.244550415516087,0.897669276504087,0.343424869334785
96,1.73196366945903,2.44495916366577,-1.06233358036169,-1.3529018042825,1.73196366945903,0.00633090140356,0.0045574079420706,0.0078006589293499,-0.0608715996148458,-0.0962654973577655,0.116572187016174,0.0075250354343814,0.12005554719048,0.120984633442968,15.4227898697419,1.71735913987398,1.72234947192041,0.0287996223888138,0.0498708236944221,0.1203992366064,0.492218536612443,0.0082009250287789,0.0073798906346194,,,,,1.76269102467469,-127.19753908103,1.90185018495961,AttemptLanding,AttemptLanding,1,0.486053905211,0.161854107000232,0.103440916362893,0.95857390685578,0.346489228174933
97,1.73331744654649,2.61163854598999,-1.06137298159708,-1.35003286796727,1.73331744654649,-0.0425548492292089,0.0135820975841441,0.0446697724160972,-0.0624613573464047,-0.0980713021125019,0.119972301448434,0.0077396745312591,0.136655478257687,0.138605837486897,15.3785227202344,0.981312085306542,1.04740316110955,0.177348121619987,0.240229271966655,0.130278330491658,0.460358393400107,0.159461927342365,0.0354636865918803,,,,,1.81622668042125,-127.513201967813,1.5736637380319,AttemptLanding,AttemptLanding,1,0.48993915324311,0.205811705651072,0.207254877131772,0.895386033682452,0.342098519781485
98,1.84718615343782,2.85739803314209,-1.17416582392854,-1.39204150413501,1.84718615343782,-0.0700203586917852,0.0119497336382001,0.0710327161619925,-0.0790130176608825,-0.1082477327747,0.141105830242829,0.0091060726778417,0.197351110697083,0.199633074782715,15.3497820147572,1.15735681304388,1.32035056415518,0.177409300405994,0.24027423064382,0.173499170999976,0.532446942288255,0.15950247985974,0.0356195448656573,,,,,1.91962505408224,-128.853168090004,1.5,AttemptLanding,AttemptLanding,1,0.532509589206627,0.24032033756316,0.228034755356,0.891827648976153,0.322889257333344
99,2.62939313570658,3.0,-0.157586937254532,-2.59097061830549,2.62939313570658,0.0044363815542602,0.0050530672129219,0.0067242077268097,-0.0057566465166735,-0.348952519261189,0.349252091601731,0.0225560046202012,0.197659171924901,0.200532351864573,15.3671859394022,2.0709762182346,2.08470823529506,0.0268196948007472,0.0674583694371324,0.136939891536089,0.494050100782206,0.0005084245352459,0.0070070008057806,,,,,3.0,-92.2002194325483,2.00604379457606,AttemptLanding,AttemptLanding,1,0.741277973228004,0.0846193158826005,0.0535455562826808,0.953938346179036,0.33913782598396
100,1.63746298079523,2.44134283065796,-1.03321781464305,-1.25172272107062,1.63746298079523,-0.0565632964594382,0.0101201376971918,0.0574614974863031,-0.0591570690338501,-0.0840558366715431,0.10607518137436,0.0068421159859076,0.134032381413835,0.135771580286098,15.4493770693112,0.881801671938456,0.926409539442432,0.175427652376549,0.240202458708846,0.141326306854702,0.367385854514952,0.156844084305551,0.040671262241989,,,,,1.68546986904653,-128.540481584722,1.83045511477524,AttemptLanding,AttemptLanding,1,0.463811110935947,0.191407574091604,0.199342576274718,0.898078800008018,0.337188308064577
101,1.66133201042811,2.27051520347595,-1.06611720775058,-1.25880740899088,1.66133201042811,-0.0417535582640507,0.0083832908587589,0.0425868429603796,-0.0613853124489435,-0.0837868707580691,0.106562700644554,0.0068740554450168,0.113932367565671,0.115720410613036,15.4415920336229,0.869152642153324,1.02511875278314,0.174726354954415,0.240203635795996,0.144379275585575,0.475469266450079,0.156800001612872,0.039322270814513,,,,,1.69807149429304,-129.55767099295,2.01007320298421,AttemptLanding,AttemptLanding,1,0.466165951570103,0.144873806311834,0.170912180961735,0.897753261562577,0.335831433073078
102,2.61856656193733,3.0,-0.141438696723223,-2.58237234984944,2.61856656193733,0.0062599517486157,0.0018428957895264,0.0065255850914728,-0.0049401527658947,-0.346426171748094,0.346689650003633,0.0223875379850661,0.195264731868762,0.198094815609632,15.4159414433302,2.17043882881828,1.79770802690674,0.0178558221213034,0.0508702337863796,0.134115529321596,0.449551091948386,0.0001999130373856,0.006700607910518,,,,,3.0,-91.8482151525671,2.35147966235684,AttemptLanding,AttemptLanding,1,0.737903379638548,0.0870188808308703,0.0547367634320941,0.959893792215795,0.340393098079291
103,1.69279169549747,2.42597556114197,-1.06566780097344,-1.29446507907556,1.69279169549747,-0.0522327550921631,0.0120571903252631,0.0536063106644872,-0.0624470382014219,-0.0901027929708187,0.113505212774579,0.0073225844923993,0.126802095238406,0.128593743942536,15.3740654825387,1.08252134588306,1.04588277054134,0.177228787081424,0.240222622121956,0.147644021989494,0.427329423248997,0.159574574393106,0.0343783055309949,,,,,1.75398132014352,-128.600052606655,2.49996111933188,AttemptLanding,AttemptLanding,1,0.477129867587834,0.174794193391834,0.188299751109974,0.89466243125881,0.334380434671336
104,2.6796566146176,3.0,-0.352593406971076,-2.62118873041198,2.6796566146176,-0.0213833557408508,-0.0134089142496384,0.0252397877188762,-0.0142662439531696,-0.349785459628231,0.350573724646248,0.0226360896599284,0.203921426388256,0.206145862470564,15.3337784548633,1.7936203561802,1.53413934812491,0.0629928605553002,0.240284516026183,0.132172682225795,0.496828932765056,0.0018949647008617,0.0116621362614712,,,,,3.0,-96.2939600424606,1.8742814664913,HoldLanding,HoldLanding,0,0.755804269725474,0.0767045561261665,0.0511057170317694,0.942356886331381,0.341256585677424
105,1.72635733351416,2.41164660453796,-1.1049860581772,-1.30731564214391,1.72635733351416,-0.0394749482035944,0.0187489877105076,0.0437012136655863,-0.0673507476646008,-0.0916834691683809,0.117419027624691,0.0075733040546898,0.133946171314621,0.135875115661094,15.4392442672457,0.79808700429005,0.988662465071274,0.176549732110093,0.240210284689842,0.151224749784678,0.454422052663382,0.159511006121556,0.0353393181449931,,,,,1.78074250763471,-129.221424924807,1.55813936917404,AttemptLanding,AttemptLanding,1,0.487536978735993,0.162201975152381,0.181065626733532,0.897686388114257,0.332789000095699
106,1.85077190995216,2.57997035980225,-1.08143860724038,-1.48700551594754,1.85077190995216,0.0049437598965604,0.0011279649767583,0.005070805350596,-0.0632851787564634,-0.116765011689958,0.135525393850474,0.0087493635995613,0.13147962730685,0.132547518297493,15.4115675036781,1.74644286368213,1.76496466019307,0.029525328868716,0.0523175398244973,0.113333374714489,0.46836422203614,0.0081452570761816,0.0046464210259044,,,,,1.88415857146299,-124.959215831678,1.88039821505022,AttemptLanding,AttemptLanding,1,0.520048679646742,0.164999298863878,0.104309301220191,0.957647705020908,0.949629611238005
107,1.69260876032771,2.38023471832275,-1.01510854997513,-1.34050661673998,1.69260876032771,-0.0314753882426238,0.0132105089251544,0.0341352839608152,-0.05564599230828,-0.0958234552034537,0.113206215173933,0.0073061128255577,0.12097994773739,0.122838838779641,15.3522300770714,1.11626551459617,1.30695793915376,0.176334656258512,0.241808525435655,0.153938424272821,0.493964761572347,0.156775942622184,0.0402550389552248,,,,,1.72726488943798,-126.550224489005,1.76718147153304,AttemptLanding,AttemptLanding,1,0.475930103843317,0.160973975941701,0.18090077826971,0.892793059019852,0.331582922545413
108,1.67222687054654,2.49506711959839,-1.01603623610524,-1.30088783692986,1.67222687054654,-0.0618024552218782,0.0099927414352272,0.0626050984572628,-0.0594092765268607,-0.0938062512404992,0.116026171731598,0.0074822640343723,0.167763338099058,0.169604221234361,15.4602600535078,0.637139149691694,0.785610728877216,0.176594052676112,0.240239065064016,0.146883442648706,0.458739595220955,0.159637387120247,0.0377574540601072,,,,,1.72684939224008,-126.925173742408,1.92809629804396,AttemptLanding,AttemptLanding,1,0.479848009725948,0.196616657420498,0.202649927578105,0.900524224616046,0.334718469933908
109,2.60898757775625,3.0,-0.304079032734573,-2.56028955690708,2.60898757775625,0.0066115161762832,0.0044682165751681,0.0079797935757676,-0.0119399338710202,-0.34229572676542,0.342851340196779,0.0221382588643745,0.196096515327848,0.198810939296101,15.3805250767203,1.8344853364746,2.00513777472751,0.0178554560301417,0.0721354389029991,0.126296367412018,0.523214002657681,0.0001066131636815,0.0056949532128117,,,,,3.0,-95.4171668207032,2.33095399184955,AttemptLanding,AttemptLanding,1,0.735492208594219,0.0894407571604021,0.0557827300019303,0.960903804682627,0.343868281150214
110,1.60607085260404,2.36234474182129,-0.929358111449515,-1.29150775521374,1.60607085260404,-0.0460992169729694,0.0125121559490607,0.0477670582306941,-0.0479405068895976,-0.0902058041343315,0.105038144972513,0.0067756268676725,0.132576986952721,0.134221739360224,15.4059465766042,0.94165287969421,0.934671111119628,0.177285176961263,0.240173603403138,0.13522410510639,0.402319952514738,0.158807480762641,0.0363422000128737,,,,,1.65985778043302,-125.136897277648,2.38046338326441,AttemptLanding,AttemptLanding,1,0.455129908566456,0.178918919082841,0.191147799470105,0.89661486587726,0.339900397730493
111,1.54667306189634,2.23889565467834,-0.918920968632602,-1.22917415947166,1.54667306189634,-0.0318711820169757,0.0125455301815285,0.0342514608549013,-0.0461179361087467,-0.0804339472088085,0.0950383756842205,0.0061323132175835,0.104874212796795,0.106423612404323,15.340819928908,1.02216722163719,1.19375313839053,0.177341320484469,0.240160620125397,0.174785530305189,0.49114484907113,0.159491950512911,0.0369721826254066,,,,,1.59306398738573,-126.486183134521,2.15551671476221,AttemptLanding,AttemptLanding,1,0.433730872319889,0.162029517866015,0.181547452104283,0.893918536928976,0.322317542086583
112,2.63379011750221,3.0,-0.248936988350798,-2.58989886327965,2.63379011750221,0.0057202077102069,0.0043812590948706,0.0072052902442787,-0.0095098658455418,-0.348507712590776,0.34893907839082,0.022527749046307,0.198466747256731,0.201374541408564,15.3862374992332,1.81865709487421,1.62081852626649,0.0324790995359125,0.0542760686720354,0.121932052333099,0.433942907169348,0.0236350439103059,0.0054665706732781,,,,,3.0,-94.1056534981467,1.52172972939242,AttemptLanding,AttemptLanding,1,0.742618939615636,0.0837181934401199,0.0627232239053999,0.956735998923081,0.945807976740845
113,1.73419247273685,2.41590094566345,-1.00457523875783,-1.40072538215666,1.73419247273685,-0.0397426132254141,0.0039418268884206,0.0399376176706015,-0.0547245719653567,-0.103953992807142,0.119669295280154,0.0077195665391133,0.115994840914777,0.117907957192634,15.4265636850197,0.952882649095586,1.05299031150439,0.176937004688797,0.240237886048525,0.164216836454431,0.405430023167951,0.159501344371874,0.037194119988001,,,,,1.77528590773906,-124.910768203071,1.52099700027442,AttemptLanding,AttemptLanding,1,0.486032917501687,0.160706302981429,0.180838402717448,0.895771067250887,0.327014739353586
114,2.68304373229422,3.0,-0.413597855139812,-2.61365814518263,2.68304373229422,-0.0203046426970689,-0.0119660155468362,0.0235682846877484,-0.01791227626469,-0.347422084964973,0.348578598941781,0.0224962205603066,0.206344565923768,0.208558563255421,15.4235585830419,1.61680854783311,1.29638347269761,0.0627660098540585,0.240469608988516,0.117235848273081,0.415193752435424,0.0018510093265165,0.0079782305085617,,,,,2.9979851142919,-97.9705526263991,1.8441148396074,HoldLanding,HoldLanding,0,0.757190041262877,0.0756360124265539,0.0491054529981035,0.945727629197372,0.347895178545297
115,1.87655128346009,2.66520309448242,-1.06459268876332,-1.53097841256353,1.87655128346009,-0.0473266463320622,0.0131809462840172,0.0491278820832146,-0.0618235196021757,-0.124345087327864,0.141401329986185,0.0091206954073763,0.134843439536117,0.137206188804746,15.4471314740177,0.906879304871309,0.946935158115546,0.176671807041421,0.240232281118731,0.156784593949346,0.43076340507798,0.159585496303376,0.0351452819672072,,,,,1.89315516909655,-124.179562229341,1.95847812892556,AttemptLanding,AttemptLanding,1,0.527854913350305,0.186453435861948,0.195579051296644,0.897098411412964,0.330317958244735
116,1.67253555297852,2.44330167770386,-1.01559384183432,-1.30877923603017,1.67253555297852,0.0046010836203924,0.0017164269240131,0.0049108137683403,-0.0566741608716847,-0.0913114626674987,0.110944663121803,0.0071595808404824,0.133138372114818,0.134006776323349,15.3894838708059,1.68740385516533,1.18358119756966,0.0322363108713633,0.0733968625945222,0.109439449881131,0.501598427963406,0.0246813004068996,0.0093974339760429,,,,,1.69700248239393,-126.66944677606,1.59835486646374,AttemptLanding,AttemptLanding,1,0.472810836058941,0.174322693920731,0.118980331918511,0.961324104864258,0.351360244497275
117,1.62027473230751,2.15319418907166,-0.962701219848654,-1.28972075054352,1.62027473230751,-0.0382412182470917,0.0104720135369739,0.0396491341713822,-0.0500479519594172,-0.0880123076189047,0.103371019513165,0.0066671334669533,0.107156457642571,0.108893032223864,15.4622808904435,0.629648763817392,0.984071740967549,0.175556484947191,0.24018072252506,0.138732111611242,0.40598979577092,0.15964142151813,0.0350748278607077,,,,,1.6721231422542,-125.43586516234,2.4184306549535,AttemptLanding,AttemptLanding,1,0.453851868393443,0.127175885703352,0.160011757177397,0.899542524988808,0.338341283728337
118,1.68753543516406,2.54742288589478,-1.05373879072222,-1.28896233572969,1.68753543516406,-0.0598547364727902,0.0173385438372259,0.0623154441581103,-0.0643043702384815,-0.0918978977496334,0.117629484789437,0.0075872343208237,0.175851529009854,0.177782109331643,15.4356147426394,0.775797455854483,1.02309514057868,0.177160166930762,0.240235680518593,0.155449011713498,0.502264527787334,0.159540585081308,0.0355360883155561,,,,,1.78141492798702,-127.597402747289,2.31077515257456,AttemptLanding,AttemptLanding,1,0.48556587124341,0.204899174510065,0.206768645341772,0.897285760419787,0.330911550349556
119,2.57698208491008,3.0,-0.353923892058752,-2.52057061937506,2.57698208491008,0.0080007934634937,0.0065619743084562,0.0103475699016882,-0.0145073662468285,-0.331912152569017,0.332662701286759,0.0214694704940876,0.205726143400356,0.208346034339808,15.4331737979434,1.72005993374733,1.4281821726006,0.032296144614732,0.0554815334349094,0.110452664084605,0.471766131213882,0.02431832298403,0.0080560112714576,,,,,2.88139783872518,-96.8469577847742,1.62063731975283,AttemptLanding,AttemptLanding,1,0.728864429510648,0.0970760853772093,0.0719832534189497,0.959115739714186,0.350909927073509
120,1.70135395543105,2.62895631790161,-1.01885439357817,-1.33668308320926,1.70135395543105,-0.0684632010702274,-0.0033871060987318,0.0685469356609502,-0.0595870742464162,-0.0984327823234264,0.119741029752352,0.007723713730781,0.16938101940536,0.17124822404414,15.4426635047425,0.88184467331611,1.00941176774182,0.176289723516191,0.240256874394128,0.147687812933661,0.357638861490347,0.159599870573707,0.0361641100624165,,,,,1.76744363452008,-125.864521808831,2.18350715816084,AttemptLanding,AttemptLanding,1,0.487944032923775,0.221277469760384,0.216850343144009,0.896995266205021,0.334360972029484
121,1.70582060911218,2.44468259811401,-0.988227206835777,-1.37242794442729,1.70582060911218,-0.0496723805983653,0.0073381468363567,0.0502114906500572,-0.0539108360758799,-0.101044612289025,0.117558990871427,0.0075850189180652,0.144761208115607,0.146680930350536,15.3831175471028,1.13256291026544,1.10261724436816,0.176790041529103,0.240226412035364,0.150799504138075,0.512443468139334,0.159567544876669,0.036015961589308,,,,,1.76448514358837,-124.664357217421,2.4721877615725,AttemptLanding,AttemptLanding,1,0.484221681833354,0.175449387477924,0.189285254626033,0.894042849449042,0.332977998160856
122,2.63025762756666,3.0,-0.386652808649732,-2.56922884162887,2.63025762756666,0.0052660216462258,0.0063402338809183,0.0082419384639334,-0.0160310977051312,-0.342857384787298,0.343717795754348,0.0221860838730322,0.189727868022553,0.192530395878319,15.4020881899988,1.63363861763292,1.67333124863594,0.0280022447470969,0.0695836117211952,0.110517595530811,0.477393014005946,0.0069681597745766,0.0054461252353467,,,,,3.0,-97.1526305433791,1.91988861947168,AttemptLanding,AttemptLanding,1,0.739908113193439,0.0847030558492237,0.0558992025858357,0.96001554296291,0.950881068652973
123,1.61975782906928,2.24304580688477,-0.932071441028929,-1.31077823327311,1.61975782906928,-0.0384970792289576,0.0004256508582027,0.0384994323050837,-0.0472034750558255,-0.0909430809486815,0.104600561610243,0.0067469205853824,0.111126553695768,0.11276914131103,15.4319631582261,0.896716721292199,0.947050700477423,0.176446809083981,0.240180953337458,0.156070425162138,0.377101883516157,0.159602743388051,0.0346301900173027,,,,,1.66518818535526,-124.488998271363,2.43489336295498,AttemptLanding,AttemptLanding,1,0.454489249347347,0.147298024264416,0.17190616354549,0.89728985142982,0.330635366594605
124,2.64501956183101,3.0,-0.539749063128056,-2.55641784229699,2.64501956183101,-0.0230977357720524,0.002846002260959,0.0232724112774103,-0.0236956724174567,-0.344242750916471,0.345939381687559,0.0223164826806837,0.200616401354901,0.202616742458264,15.4547036164032,1.30917157504752,0.966423799589396,0.062338156968674,0.240366439257092,0.0964878618805999,0.432225021619256,0.0018984711463006,0.0105038570061312,,,,,3.0,-100.530616564359,2.12964218722898,HoldLanding,HoldLanding,0,0.745861898313254,0.0841372073222157,0.0551456737131067,0.950951243572087,0.357116505830845
125,1.50873927530405,2.16613101959229,-0.787559826466462,-1.27129498975017,1.50873927530405,-0.0284161962856131,0.0172189894635939,0.0332261013284714,-0.0347968436825623,-0.0863188017248412,0.0949753908174772,0.0061274478618178,0.120909677569376,0.122418284662502,15.3666952135305,1.02111922295485,1.01684420730541,0.177359776277033,0.244037717347351,0.160923757505591,0.490941232366415,0.159387707577873,0.0334888217972412,,,,,1.59718321662841,-120.692341177793,2.42004888461921,AttemptLanding,AttemptLanding,1,0.426814130346913,0.154004594375073,0.17541949115158,0.895307542052296,0.328478329997515
126,1.55246552954549,2.43066668510437,-0.870346935367312,-1.26005439603059,1.55246552954549,0.005578779150113,0.004533065940691,0.0071882865571977,-0.044233655897153,-0.0870853374686405,0.101415976212085,0.0065477476001991,0.169076807644576,0.169829344133647,15.3752369137083,1.90693922429443,1.75318669087787,0.0224782298063019,0.0679781789500927,0.125682033536702,0.494539642235411,0.0257926692411322,0.0040045140052859,,,,,1.57811714801433,-123.111297136965,1.96276951847625,AttemptLanding,AttemptLanding,1,0.447956676705528,0.198913112536233,0.132267462984367,0.96000275290621,0.944141318428132
127,1.50281607983064,2.09226369857788,-0.74945106181224,-1.29184528232039,1.50281607983064,-0.0368373673698433,0.0097022347356919,0.0380936345549655,-0.0308674398381102,-0.0884240665817347,0.0948370517407987,0.0061172775804919,0.106838543700484,0.108361518575627,15.4485960001116,0.842025661196558,0.923256765156551,0.176549653228649,0.240163406828288,0.134895272404662,0.374947802015444,0.159592589741316,0.0369090892178334,,,,,1.53181850141805,-119.504479623187,2.00578846410567,AttemptLanding,AttemptLanding,1,0.422423258336628,0.139609547219874,0.168117255205257,0.897855097178615,0.340046545597928
128,1.6490835024386,2.35314393043518,-0.877641317740384,-1.38415499018353,1.6490835024386,-0.0381817377988634,0.0024166838709543,0.0382581424310341,-0.0421961042078602,-0.101634868927185,0.111738311410941,0.0072088568819973,0.11184021048754,0.1136689606822,15.4220640050353,1.06238918364666,1.03038638872756,0.176963665384111,0.240219745853946,0.187771955027592,0.422449337113363,0.159499557345176,0.0355757742344526,,,,,1.67347133841587,-121.814224359451,1.64239583085854,AttemptLanding,AttemptLanding,1,0.462489392786734,0.165427589078253,0.183081890776528,0.895074930667861,0.316545797765515
129,2.61755791385969,3.0,-0.515132108660414,-2.53396699706465,2.61755791385969,0.0044572322738869,0.0040155228122542,0.0059992785398841,-0.0227137970721597,-0.33419198230821,0.335740683354841,0.0216679730560857,0.19476599929869,0.197467035575999,15.413181254254,1.55411457545052,1.41452041256916,0.0320198525836232,0.0740595107257236,0.112937443358735,0.480975881841975,0.0239381063806435,0.0056934555756568,,,,,2.98812679975473,-100.15154225882,1.58547761394969,AttemptLanding,AttemptLanding,1,0.737508850811116,0.0871493371138829,0.0649991081417839,0.960665084516605,0.349805580729451
130,1.62408739044553,2.35109925270081,-0.902333631894299,-1.32993018037565,1.62408739044553,-0.0518257612338863,0.0121878840024433,0.0532395909444166,-0.0459002484256995,-0.0948973421147118,0.108540451751808,0.0070005483229326,0.134069753340855,0.135752306435407,15.4522899780433,0.852935060868957,0.839384278268739,0.177307052780444,0.240211955862941,0.140276997699423,0.385685335847763,0.159580563243961,0.0340569103356816,,,,,1.67291748571223,-123.514973806059,2.27415201172316,AttemptLanding,AttemptLanding,1,0.460240432072555,0.173338260680581,0.187311982214599,0.898049678802268,0.337654667689145
131,1.48535095631671,2.14399838447571,-0.747190276886401,-1.26794835947665,1.48535095631671,-0.0414794848821691,0.0084131108335395,0.0423240841600562,-0.0317545551438531,-0.085710285230157,0.0932119435976791,0.0060149151318712,0.11416068254867,0.11568250209186,15.33589757185,1.06597102090433,1.17072888589925,0.176886566456695,0.24015348924257,0.155147473222869,0.518754538356066,0.159475771501533,0.0379629753158147,,,,,1.54515709711904,-119.107877075441,1.77847800320126,AttemptLanding,AttemptLanding,1,0.419230088769494,0.155955086765119,0.178255891023079,0.893982646075339,0.331045567456503
132,2.63204235871633,3.0,-0.454070202121816,-2.56204315036274,2.63204235871633,0.0063243941673473,0.0010518228831549,0.0064112629770978,-0.0189430960968919,-0.341127115854443,0.342233096782986,0.0220985223680902,0.191214073399186,0.193970865359945,15.3728069665321,1.91127518223353,1.93345803394874,0.0201238579606753,0.071411660329837,0.122935227061297,0.482706860315516,0.0004619189485677,0.0059997457523864,,,,,3.0,-98.8062245222683,2.26767099442109,AttemptLanding,AttemptLanding,1,0.740672135396343,0.0839658675012939,0.0527665435393914,0.959729452892516,0.34536212130609
133,1.60775419968326,2.38300824165344,-0.843536243515202,-1.34431006997644,1.60775419968326,-0.0670327981067723,-0.0034734841176729,0.0671227317228599,-0.0424188642529207,-0.0985002974161815,0.110610312282261,0.0071342184200198,0.155129314035721,0.156828016807633,15.4466185775821,0.880828144597693,0.854473035124476,0.176660422529057,0.240158885262353,0.155720274747516,0.365193185474427,0.159476551264432,0.033436111316546,,,,,1.68330103474598,-120.509023497779,1.67061425769106,AttemptLanding,AttemptLanding,1,0.460100056610396,0.186737993592482,0.195079849317415,0.898035279466226,0.330790989001104
134,2.68704339337636,3.0,-0.632615021839499,-2.57866901900003,2.68704339337636,-0.0282016205031047,-0.01157653567989,0.0304852025964877,-0.0282581889325116,-0.33983340908557,0.342212481664539,0.0220844364929116,0.199128770531429,0.201204529869461,15.4360981382271,1.60247040325782,1.25846526434353,0.0620550964081592,0.240399804388491,0.115873939232877,0.408642530371397,0.001846936608107,0.0075342986995771,,,,,3.0,-102.269542710179,1.98469262898073,HoldLanding,HoldLanding,0,0.756785810874255,0.0760041902996747,0.0491631198761834,0.946493671550481,0.348500471452055
135,1.64967744853221,2.4108989238739,-0.858899846503751,-1.3908897606206,1.64967744853221,-0.0564218059033383,0.0032824961295079,0.0565172094342442,-0.0418050179064243,-0.103132753473122,0.113669823777297,0.0073333933870625,0.135153129784594,0.136930009732953,15.3799835736897,1.08519128642732,1.04245381076454,0.177242585959698,0.240192417074141,0.162935421876467,0.491250607293859,0.159471746570066,0.036961099766526,,,,,1.71044333906111,-120.370167332204,1.96489874565246,AttemptLanding,AttemptLanding,1,0.467299988221846,0.181636320348159,0.193298523932914,0.894661495542215,0.327584256943792
136,1.61493250966072,2.5412335395813,-0.755462304644598,-1.40220973759702,1.61493250966072,0.0059329472513802,0.0013984070844005,0.0060955233951943,-0.0347406891731412,-0.106968073830559,0.115208571304652,0.0074367814049768,0.173447691144503,0.174317183844072,15.408970258626,1.64747925634354,1.68341496668135,0.0316340073719052,0.0484882394200412,0.114293747865918,0.422078343680419,0.0211932362075557,0.0046911980409135,,,,,1.66149639163359,-116.91481150861,1.68689003316079,AttemptLanding,AttemptLanding,1,0.465512106011673,0.209535244354582,0.136846252901692,0.958011684561709,0.349202778726259
137,1.46748263981878,2.01351261138916,-0.703918093760127,-1.27650293843725,1.46748263981878,-0.0350698245889716,-0.0085784769981828,0.0361037790862617,-0.0275795223157357,-0.0862799024597208,0.0916928082712844,0.0059135012469528,0.101835546147637,0.103176312070893,15.4449884511946,0.680666091316262,0.849481918228294,0.176595131545827,0.240173780882028,0.120468305262268,0.36877540101502,0.15959027765964,0.0341201453932933,,,,,1.50463962214456,-118.009747287404,2.38312820410346,AttemptLanding,AttemptLanding,1,0.411963966365852,0.129475769769151,0.161021799752225,0.899679842723522,0.346458530994547
138,1.5920982960941,2.21226668357849,-0.716305541693888,-1.41003842238682,1.5920982960941,-0.0339176442969131,0.0066605695803149,0.034565442016357,-0.0287596135463214,-0.105259723175626,0.110246882793103,0.0071099983462522,0.107569280816483,0.109337763877021,15.4565094590411,0.752086308170739,0.763772127727049,0.176544006480658,0.240189817402674,0.135195754523231,0.415145588473045,0.159468647660508,0.0359216181216614,,,,,1.62198882751374,-116.427624599585,2.4517186744491,AttemptLanding,AttemptLanding,1,0.446427098400498,0.145874884886986,0.171462292037668,0.899817680477617,0.339912997989675
139,2.6253400460879,3.0,-0.524420089231467,-2.53970082400209,2.6253400460879,0.0077569928500752,0.0053084005245401,0.0093994709534662,-0.0233506040222541,-0.335329149799641,0.336992779892012,0.0217535429908053,0.196310626710375,0.198923950584129,15.4200960051271,1.76548593472491,1.65458934476203,0.0211725840738521,0.0481398519927361,0.11900282412156,0.398064844197202,0.0003319493317608,0.0059012054966483,,,,,3.0,-100.33835635475,2.20807385036692,AttemptLanding,AttemptLanding,1,0.739875469073599,0.0860217259716912,0.053906461527225,0.962541687909962,0.347109855945973
140,1.5936920809097,2.44887232780457,-0.758144711236816,-1.37817710653621,1.5936920809097,-0.0620996180531523,0.0017037598614322,0.0621229857622187,-0.0345465128670037,-0.103564754341692,0.111780087647984,0.0072122833150785,0.162026547845856,0.163775313982068,15.3353963315652,1.1158879101605,1.14340970609281,0.17670161640168,0.240190868509877,0.146134021002959,0.4532610074333,0.159448415642686,0.038332631658573,,,,,1.62484937329115,-117.662804067615,1.5,AttemptLanding,AttemptLanding,1,0.457739617705668,0.203804769607751,0.207087963057446,0.893897567671456,0.335051546220907
141,1.52665245776274,2.13597512245178,-0.757148651331331,-1.31410582027692,1.52665245776274,-0.0362662462505344,0.0020634712559523,0.0363249023498831,-0.0319471452305848,-0.0916952050783989,0.0983726547332388,0.0063452743872845,0.109516773094658,0.111065689494731,15.4282563447361,0.859752216060528,0.90296962785401,0.177138207373515,0.240173931277959,0.150227769531455,0.431280032541521,0.159651787011087,0.0350500809462809,,,,,1.58700801541868,-119.377240163094,2.45473252830578,AttemptLanding,AttemptLanding,1,0.42932045996901,0.143757164985847,0.169956132754679,0.8975809389682,0.333232102430464
142,2.61280387441317,3.0,-0.619329383289559,-2.50441698701416,2.61280387441317,0.0079902255103259,0.0048978839941003,0.009371924632941,-0.029327524362532,-0.326565570149274,0.32910374890637,0.021242737114688,0.195548934416762,0.198111989140488,15.4123466024764,1.68760586847093,1.60597244637803,0.0217751575904451,0.049041377679356,0.109805890568004,0.439296385022722,0.0001517469424428,0.0064032305692864,,,,,3.0,-102.460692774955,2.16594123185845,AttemptLanding,AttemptLanding,1,0.73637009767161,0.088837314439742,0.0556982792291159,0.963234305873821,0.351197381969776
143,1.44671959374227,2.09029865264893,-0.628742230630328,-1.29134148831394,1.44671959374227,-0.0358408903381662,0.0111428195788625,0.0375330767243979,-0.0222505590908197,-0.0881821224163196,0.0918355633804804,0.0059238936676122,0.0964655744654316,0.0980044276374079,15.384253229381,0.89867649282875,0.874497060548023,0.176846381982707,0.240144997069318,0.146275696186751,0.452353622660994,0.15951007706667,0.0360118275327408,,,,,1.50542716708844,-115.316950545559,1.80390941756817,AttemptLanding,AttemptLanding,1,0.405392777192086,0.151686352320138,0.175000388989175,0.897644731089258,0.334988579472555
144,2.61387308504222,3.0,-0.531398606747618,-2.52727983633535,2.61387308504222,-0.0171357915614143,0.0104771855249506,0.0200849886472578,-0.0244634680048014,-0.341861990298039,0.343642968553194,0.0221791824978203,0.200447802006581,0.202511118880375,15.4058278633002,1.54998917881716,1.37011802484814,0.0622874644232394,0.240366012885183,0.115190275629139,0.41015771907264,0.0019197578134737,0.0080584888735731,,,,,3.0,-100.955060334027,2.20202070857041,HoldLanding,HoldLanding,0,0.737535046453999,0.0905608037841654,0.0581200675557667,0.94591256833101,0.348804321942605
145,1.63838700129061,2.34504079818726,-0.742692465916737,-1.45063768953652,1.63838700129061,-0.0361839943807366,-0.001371781328763,0.0362099880331259,-0.0305429331278602,-0.112111097220884,0.117168072202722,0.0075597369903851,0.113441402093036,0.115302761601153,15.3645817943836,1.08335769253158,1.08842655034247,0.176577095721445,0.240206099378676,0.14627522894818,0.451580410978189,0.159487398183135,0.0341907586347639,,,,,1.68254359450145,-116.590495520199,1.98270508206013,AttemptLanding,AttemptLanding,1,0.459963752664394,0.165635602107818,0.182697652485998,0.894647433088124,0.334988787134142
146,1.74172277112802,2.43045592308044,-0.823494560734886,-1.52148844473676,1.74172277112802,0.0029870629640928,-0.0005809650769057,0.003043035585076,-0.0374565753404456,-0.121505327289187,0.128667245932488,0.0083039487163361,0.117662302489148,0.118739804120425,15.4180532963743,1.41799910675066,1.64085418876987,0.0301852661085889,0.0637924115917671,0.11258807285661,0.474384143804515,0.0147299926544817,0.0056553390568482,,,,,1.779143412243,-117.297381887505,1.79261592806114,AttemptLanding,AttemptLanding,1,0.488207366458223,0.15552284904656,0.101916859759691,0.960873519623758,0.349960856508173
147,1.43763760482373,2.16200637817383,-0.700815406583634,-1.23954738548497,1.43763760482373,-0.0290022171089724,0.0119093035192464,0.0313521946209433,-0.0279599997676565,-0.0825563039095407,0.0887963691480073,0.005727510609488,0.118541752287977,0.119905375476251,15.4404363397231,0.835912264398518,0.893028230138911,0.176651106028371,0.240150627796681,0.128833489066073,0.44513150348483,0.159591446357894,0.0348734662403656,,,,,1.48754464037965,-118.732441752547,1.6502666785718,AttemptLanding,AttemptLanding,1,0.407351103048245,0.168730876350945,0.184849317976229,0.898089914528735,0.34274067152619
148,1.6942015079414,2.63779759407043,-0.774108485575782,-1.4827813035052,1.6942015079414,-0.0643146451194733,-0.0088351365081029,0.0649186661443425,-0.0365459864609045,-0.119853820569186,0.127989777618841,0.0082561162152268,0.163218172210032,0.165236435422533,15.4212862445118,1.00947647328778,0.823480024919112,0.177667701346687,0.2402093132967,0.167783392447391,0.418558175911242,0.15953718010093,0.0348955689579867,,,,,1.75445964810256,-115.915142708198,1.58753605673917,AttemptLanding,AttemptLanding,1,0.484834355868879,0.22421087483883,0.218121236084393,0.896764348269317,0.325429603356715
149,2.5637162677447,3.0,-0.592760487515966,-2.46141384949695,2.5637162677447,0.0049168721160137,0.0041737682777367,0.0064494940143762,-0.0275166349741639,-0.316591953897923,0.318913957046958,0.0205937747161744,0.205963132851372,0.208489090314959,15.3682093202713,2.06982270489726,1.93688324789173,0.0157235230349303,0.0702047994997399,0.129987748497711,0.485787400186093,5.04044017884146e-08,0.0076523159040378,,,,,2.89228411426449,-102.374592577792,2.44201119942992,AttemptLanding,AttemptLanding,1,0.725355489461578,0.0993462469934115,0.0623904309267443,0.960656977424907,0.342227667334351
150,1.48383784737136,2.15801239013672,-0.628819246260398,-1.32786169183899,1.48383784737136,-0.0410903413910599,-0.0002203287158634,0.0410909320942818,-0.0233485116565146,-0.0942217862358793,0.0982948537656424,0.0063403569725963,0.121897048929343,0.123466441576397,15.3589128176594,0.843800437562382,0.91208849802267,0.176158420631667,0.240172953424822,0.142690977319353,0.446726563912535,0.157149913673677,0.0386551130855637,,,,,1.57055207434036,-114.528428258895,2.03932836599159,AttemptLanding,AttemptLanding,1,0.420383380947642,0.159222609672824,0.179434376639271,0.898124519475998,0.336581787858066
151,1.48054195530463,2.08577680587769,-0.653516997990548,-1.31646782471142,1.48054195530463,-0.0540815331588673,-0.0074144873366593,0.054587423929685,-0.0244340056189983,-0.0916212354129117,0.0958013442884504,0.0061796769859287,0.100138947261367,0.101749441083547,15.3987106904406,0.85524623528052,0.907898296150411,0.174753767737983,0.240153741875052,0.132421732766763,0.459329452587771,0.159186916858233,0.0360576009428712,,,,,1.53043490962982,-115.371127707452,2.19819252746869,AttemptLanding,AttemptLanding,1,0.415161076297943,0.146185535766047,0.171572917173827,0.898769837669766,0.341145896548106
152,2.62262557347616,3.0,-0.648362844541372,-2.50814078982032,2.62262557347616,0.0073303484936916,0.00266330183106,0.0077991785261202,-0.0309474959375059,-0.327426558857016,0.330143838374052,0.0213101335114714,0.197738342682004,0.200309240179958,15.4368720132336,1.84628844496415,1.54189818634335,0.0170073224356858,0.0465563017289579,0.115890642119004,0.451584600420101,0.0004180433516105,0.0078230056057958,,,,,3.0,-103.235441300153,2.35533629406328,AttemptLanding,AttemptLanding,1,0.739428667629633,0.0863390953643204,0.0548339835749509,0.964874872393312,0.34849304794711
153,1.48759662456253,2.16271543502808,-0.700603120082899,-1.3008684187691,1.48759662456253,-0.0358060898243312,-0.0036137733894133,0.0359879900330389,-0.0274391985148997,-0.0897649948176828,0.0949750832226206,0.0061290141800812,0.109486661427465,0.110985628577075,15.3418657620371,1.16651072230369,1.17804792271763,0.176769953080033,0.240137123910909,0.15093092221239,0.459144405759048,0.159561944581911,0.0372046602023221,,,,,1.53053947457772,-117.277382087191,1.52698604419419,AttemptLanding,AttemptLanding,1,0.418889558932089,0.158499530527472,0.179545105476965,0.893193491249102,0.332919590127827
154,2.67891423228909,3.0,-0.666600437316925,-2.55954754024436,2.67891423228909,-0.0279429529500142,-0.0081162548197262,0.0290978042447439,-0.0293864721772312,-0.336365509468762,0.338928453567933,0.0218690553681902,0.19602764525308,0.198057441004408,15.4296702910134,1.47381977807402,1.18143676300843,0.0635333821640457,0.240327385732289,0.107417699497424,0.427949231292927,0.0018931622221383,0.0118511071732403,,,,,3.0,-102.931426400997,1.68173869211273,HoldLanding,HoldLanding,0,0.753988616811306,0.0775788951798245,0.0516982360574981,0.947370578952329,0.352258800223367
155,1.61874881812504,2.23667430877686,-0.772495534035521,-1.41062413190395,1.61874881812504,-0.0435703886010957,-0.0060204721452419,0.0439843704934165,-0.0330796404597142,-0.105563569315891,0.111864017658275,0.007216906510906,0.106943163025578,0.108676935854776,15.3634144431829,1.02433402324181,1.03139610498048,0.17742081478048,0.240172392568807,0.168674237768269,0.491802438694165,0.159377496341727,0.0379505210330329,,,,,1.68981233095603,-117.495671617653,2.24599884585702,AttemptLanding,AttemptLanding,1,0.453401738670967,0.147097036653784,0.172892854277373,0.895137427316585,0.325033672102992
156,1.61184692045053,2.28356289863586,-0.705021132560416,-1.43809410711404,1.61184692045053,0.004283131190662,0.0010465318984615,0.0044091316391007,-0.027895695449244,-0.108900701923536,0.113407443893964,0.0073203264272131,0.117291019255049,0.118148865331256,15.44096086232,1.78405202859035,1.65142367350977,0.0241158602787743,0.045798757532631,0.119835281174969,0.403293662650838,0.0005252905821657,0.0059130570104617,,,,,1.64682358488304,-115.230680905002,2.0717904847143,AttemptLanding,AttemptLanding,1,0.453455618519725,0.151944435892202,0.0935503265655428,0.960949046486969,0.346739875033347
157,1.6513055893215,2.68442344665527,-0.73188749683794,-1.45710516094152,1.6513055893215,-0.0610474985598219,-0.0147559787618747,0.0628055410742743,-0.0330294056893129,-0.11643407171779,0.123301100791977,0.0079524821690459,0.163216891490164,0.165079472558193,15.4507802964688,0.753554063406626,0.858578295321265,0.175694753711364,0.240210587809372,0.145805856599416,0.402786148976314,0.15673671137667,0.040232773941258,,,,,1.69535374865113,-115.407012304463,1.93539592343038,AttemptLanding,AttemptLanding,1,0.473364051664038,0.24396586709705,0.230670380485086,0.89948586889717,0.335197397066926
158,1.64153911386217,2.25575733184814,-0.763225227717619,-1.44049328163427,1.64153911386217,-0.0360555812207347,-0.0003659412668252,0.0360574382087214,-0.0325039557266622,-0.109883633217385,0.115902761972464,0.0074753838324436,0.115598416809794,0.117503728341417,15.4551526404197,0.896026770300459,0.782266096721227,0.176471536119999,0.240197582096849,0.170563750573268,0.445055505309309,0.15952839630118,0.0356592668456626,,,,,1.65925020896733,-117.23842078182,2.45336046449644,AttemptLanding,AttemptLanding,1,0.461244509364863,0.144809629385109,0.170754293223952,0.898577645127687,0.324193888634103
159,2.56220333417257,3.0,-0.730183363711014,-2.41951123904832,2.56220333417257,0.0049772404235167,0.0017753838770507,0.0052844025342872,-0.0378446218034433,-0.307127972560978,0.311493012557071,0.0201037767990772,0.212213019582991,0.2145815268716,15.4091320609696,1.49385368854296,1.58697946587713,0.0315256050851641,0.067066339336356,0.101679259150793,0.499462476283322,0.0239053176953552,0.005935300902732,,,,,2.88835322200788,-105.56852442763,1.56969285778653,AttemptLanding,AttemptLanding,1,0.726170527820338,0.0994730569424585,0.0724667110452123,0.960030651244117,0.354809218155203
160,1.51556305506745,2.37906718254089,-0.670561940739495,-1.33453083267074,1.51556305506745,-0.0653058733398412,0.0025100553892182,0.0653540929914594,-0.0281650921243472,-0.0977642562466214,0.103955849546452,0.006705135678917,0.149534862844884,0.151160467250956,15.4482125166788,0.895927755475805,0.715848981574211,0.175450118224315,0.24018557268754,0.127363265851675,0.404156704519064,0.156752850296525,0.0427946292552704,,,,,1.56544004446909,-115.546181583882,1.96508422782073,AttemptLanding,AttemptLanding,1,0.434382241468178,0.206270012396626,0.208991624268651,0.899610980811021,0.343394104065922
161,1.66237808611928,2.39148688316345,-0.77182908375501,-1.45342063400466,1.66237808611928,-0.0513383822350254,0.015547147437578,0.0536408732586948,-0.0345140073911748,-0.112989492260054,0.120152432689938,0.0077497123624779,0.137760100604437,0.139701574451846,15.4620827592673,0.751116773277103,0.929985320080616,0.17603684048802,0.240200826754286,0.171109181796377,0.414775924360703,0.159496331467275,0.0362117194267431,,,,,1.70136515468512,-117.053321105748,1.89329563222437,AttemptLanding,AttemptLanding,1,0.471241137855511,0.173883639432366,0.188385340062681,0.898772920451037,0.323951474757166
162,2.5662004784743,3.0,-0.711635267488171,-2.4329439315741,2.5662004784743,0.0049665129031109,0.0050095330957482,0.0070541953654661,-0.0353527988633547,-0.309447885629268,0.313119632459833,0.0202104057463173,0.206758292789495,0.209180920123147,15.4445575861154,1.69098608388863,1.59788737868338,0.0257279762102982,0.0495172299542816,0.110324434848944,0.420010580755216,0.0008388139303608,0.0074671482337719,,,,,2.85921158454158,-105.062668776886,2.02309443765158,AttemptLanding,AttemptLanding,1,0.726156311617776,0.0988981614936182,0.0624270297179049,0.961294863260357,0.350966917844914
163,1.65430727215851,2.27801394462585,-0.753870806426365,-1.45997976217924,1.65430727215851,-0.0389373756695496,-0.0019373864741535,0.0389855446336443,-0.0320019498692646,-0.113018603916677,0.118709014502316,0.0076594956462194,0.123684340277523,0.125661639572981,15.341174629993,1.18953939393947,0.982276163459725,0.176690997030879,0.240211500451156,0.158151274651338,0.47498106255641,0.159520260266432,0.0380091355490385,,,,,1.71874998102098,-116.787170824054,1.79973648545523,AttemptLanding,AttemptLanding,1,0.466280933823533,0.147481351154653,0.173208207980554,0.89459023639071,0.329710544599405
164,2.43220886978034,3.0,-0.731250070666937,-2.2882216978233,2.43220886978034,-0.0107859155210375,0.0175089413989567,0.020564508322327,-0.0385127695605725,-0.287326911142665,0.291899226426278,0.0188411321229455,0.223446983654974,0.225154207283795,15.4183597555706,1.69492663377935,1.34766145510669,0.0627419968757219,0.24043346240862,0.128607611709912,0.478945043978895,0.0019376623810227,0.0100953176593313,,,,,2.64390369362176,-106.697557678757,2.28764834875149,HoldLanding,HoldLanding,0,0.693619873398182,0.131523164158518,0.0834461063789584,0.94472295229232,0.342841061462261
165,1.61200807086464,2.56826162338257,-0.700086904234242,-1.42838660271942,1.61200807086464,-0.0636507809957721,-0.008778941905789,0.0642533403206165,-0.0303437885565171,-0.111663422569752,0.117889301729048,0.0076034832967006,0.163449415532858,0.165240929933273,15.4440064918201,0.781579202145788,0.917564369938046,0.177073854487787,0.240226392823759,0.144678053365571,0.416464067839436,0.159514546709374,0.0368593326861387,,,,,1.65443912380199,-114.70021335318,1.96678567092465,AttemptLanding,AttemptLanding,1,0.462917004883893,0.226936828375312,0.220460844822293,0.898112658975448,0.335698642948635
166,1.66781154791514,2.38444113731384,-0.730358407428207,-1.4867958816728,1.66781154791514,0.0038370638852551,4.41373101484615e-05,0.0038373177300917,-0.0297901348386703,-0.115655609461856,0.120551729105669,0.0077793126825089,0.109031648344573,0.110003538936679,15.4070202631502,1.39963064779749,1.60518305975588,0.018184251140595,0.074640169545501,0.107566295118485,0.475370038957788,0.0002621682016966,0.0061399013750111,,,,,1.6985678915868,-115.061450151433,2.28836488275402,AttemptLanding,AttemptLanding,1,0.46675045389804,0.161945165865225,0.0995163101289839,0.967298623870355,0.352192757725118
167,1.51880841480719,2.0851423740387,-0.705028108834602,-1.33372919853066,1.51880841480719,-0.0344992299709848,0.0007233808216292,0.0345068130722615,-0.0276543046770608,-0.093786181351924,0.0988873580478151,0.0063776469401007,0.102910837442289,0.104471958836681,15.4429296239876,0.761169009600395,0.812601353532802,0.175786535783642,0.240159284582642,0.113742558904861,0.412428129089885,0.156814695492021,0.0419359282495322,,,,,1.53242316823457,-117.234742424214,1.51522614884383,AttemptLanding,AttemptLanding,1,0.425909969049254,0.133751389890337,0.165195682607253,0.899741393540704,0.34944775159784
168,1.68604433212151,2.4075939655304,-0.836112446601723,-1.44343740078057,1.68604433212151,-0.0464124740201592,0.0138122206412447,0.0484241177897376,-0.0398733147426062,-0.111702096567263,0.121169447709201,0.0078160418464604,0.13805053693737,0.139921717899395,15.4502157332521,0.917527125602513,0.931316870811135,0.176640140480418,0.240233798332148,0.160624234313665,0.425359541557242,0.159557992597692,0.0373664910589672,,,,,1.76822611766951,-118.998443980142,1.73246043030041,AttemptLanding,AttemptLanding,1,0.477596165478947,0.171226422445119,0.187238331774357,0.897153298359398,0.328611451416149
169,2.46046300967534,3.0,-0.784087929527811,-2.29855950706053,2.46046300967534,0.0068803748101979,0.005798695965171,0.0089980238066642,-0.0411251285535466,-0.279132886169747,0.284368217146469,0.0183545772508083,0.221009612025355,0.22313767084702,15.4358051692591,1.5962784180444,1.46075774710985,0.0263644717505805,0.050036092735549,0.109215693240301,0.440325944082968,0.0070985658273232,0.0048316991002427,,,,,2.66549340284327,-107.193726307889,1.94982695386038,AttemptLanding,AttemptLanding,1,0.700751003416162,0.123045460520936,0.078739175949036,0.962798194255641,0.9514596918932
170,1.74571739735247,2.69913196563721,-0.767869152706807,-1.55528351466338,1.74571739735247,-0.042553535259367,0.0032899663064039,0.0426805253173794,-0.0329416821718298,-0.128159351333844,0.133532270122113,0.0086128075007918,0.120093237303533,0.122141759570763,15.4465073417326,0.972493279517563,0.889152724231281,0.176096624567151,0.24023707156219,0.153484150030493,0.369103749263867,0.159785362027345,0.0379080138883509,,,,,1.77840570795084,-115.675983280215,2.4491763637469,AttemptLanding,AttemptLanding,1,0.489952991208143,0.22234304083892,0.218206273282986,0.897324469115541,0.33178482220867
171,1.64653766074148,2.19912648200989,-0.785214829406768,-1.43398152113761,1.64653766074148,-0.048900081785042,-0.0027194437626563,0.0489756406079803,-0.0343447766282477,-0.108304847233614,0.115087804197017,0.0074232409970911,0.107121255316216,0.108959212989726,15.4037869127856,0.851576082845128,0.90623611432835,0.175943246095471,0.240186081715588,0.141395285264794,0.478517036990952,0.159573882412361,0.0375235726506521,,,,,1.68221562017466,-118.331726157389,2.38964058202062,AttemptLanding,AttemptLanding,1,0.460868552129007,0.133311352230188,0.164553472364045,0.898216995403044,0.337157650993425
172,2.42429112871488,3.0,-0.842039291036143,-2.23928573661479,2.42429112871488,0.0073325244225534,0.0058066240178467,0.0093532238769302,-0.0461005449362667,-0.266109686570753,0.272819643895697,0.0176192342297718,0.221647348370711,0.223700268950754,15.3464544204348,1.98269765604295,1.92903613190846,0.0295335316300963,0.0695596872502995,0.127924143105419,0.510165150813246,0.0115624778297907,0.0072343504267656,,,,,2.5789773418386,-109.450212225276,1.81532853378022,AttemptLanding,AttemptLanding,1,0.691217688114119,0.131249253749923,0.0865191041678764,0.954498182993905,0.34314482528648
173,1.54676374772779,2.10435605049133,-0.715486940657222,-1.36035815437414,1.54676374772779,-0.0339422600749521,-0.0017327686067453,0.033986460628318,-0.0286168728043049,-0.0987327755507394,0.103880761725244,0.0067000450532275,0.113740330148926,0.115407821731584,15.4541340415587,0.708130843128168,0.876369596399939,0.176410250654777,0.240168563169965,0.14575112498887,0.371390752681227,0.159518142924744,0.0345523052697831,,,,,1.60572032516396,-117.151648626796,2.33412738122676,AttemptLanding,AttemptLanding,1,0.435551897073727,0.131689119236989,0.162474898596748,0.899345228362033,0.335221722227169
174,2.31817195546684,3.0,-0.750749550994372,-2.16119025013007,2.31817195546684,-0.0236446579481194,-0.0013266645734874,0.023681847233147,-0.0363143022691618,-0.253477871251019,0.258091676374196,0.0166647253401111,0.236331701446876,0.237786596559528,15.4081196631794,1.84740155794998,1.70351924436782,0.062927603398546,0.240327018677052,0.143504310365332,0.43617719916104,0.001921585947736,0.0087951665391075,,,,,2.36078838964489,-107.709824257803,2.05383940231696,HoldLanding,HoldLanding,0,0.665736507436396,0.157752982012704,0.0987040697844738,0.940636106282516,0.336220306504297
175,1.67320854791859,2.58161401748657,-0.832724697069581,-1.42391919749158,1.67320854791859,-0.0754551134731214,-0.0127313527704392,0.0765216406816202,-0.0422940329570124,-0.111660336590436,0.122967756327074,0.0079329364496893,0.179570712805686,0.181466065975273,15.3248141046379,1.04991824582727,1.0570600353193,0.175697318738399,0.240211917599507,0.136651344482375,0.488191835437835,0.159602577742695,0.0368690337944404,,,,,1.70036876942666,-118.357386427334,2.32443360273959,AttemptLanding,AttemptLanding,1,0.482482159306678,0.218420198111093,0.215393519243206,0.895596511278934,0.339266069118944
176,1.74186524818574,2.64922046661377,-0.887921335942831,-1.47030940087883,1.74186524818574,0.0057509635098581,0.0041652037906549,0.0071008805024029,-0.0470269612521464,-0.117792971907766,0.130697732823716,0.0084409363057544,0.183550259818553,0.184484328144553,15.3848304255069,2.13633325440836,2.05992168359411,0.0275269887987009,0.0511481033661743,0.147731709441668,0.435908205265392,0.0180734347316127,0.0087748852102968,,,,,1.79740384781532,-119.424856454763,1.87131921086094,AttemptLanding,AttemptLanding,1,0.501394265145107,0.205456752238415,0.134497556350742,0.953265931087773,0.33434146247037
177,1.92620278612987,2.55362248420715,-0.979147334894467,-1.64304727108137,1.92620278612987,-0.0473957297332346,-0.0048966908746988,0.0476480091763357,-0.0526009267810205,-0.142202351695045,0.153936635759591,0.009928877518639,0.117805453554736,0.120211230592976,15.4330759731922,0.906348910253323,0.896666489121396,0.175917287050492,0.24026398498668,0.138569207026625,0.382129060603607,0.156801033679037,0.0410289105809693,,,,,2.00389774569212,-119.82849383685,2.04898176672919,AttemptLanding,AttemptLanding,1,0.537696322419895,0.149904900416383,0.174551892399249,0.897874806908238,0.338413685765945
178,1.82039478441485,2.73839592933655,-0.979199382620235,-1.50538496820326,1.82039478441485,-0.0687985296034251,0.006356030930601,0.0690915103669337,-0.056694586786494,-0.125201764102503,0.142265881740149,0.0091755242533591,0.175633119517631,0.177708697854719,15.4343430082289,0.866456309927246,0.834786137286756,0.176469257786834,0.240263121411317,0.125333299384111,0.450896928131819,0.15952661095448,0.0368702770385348,,,,,1.88108853169074,-121.75609313085,2.18008983212634,AttemptLanding,AttemptLanding,1,0.520980348748237,0.219217034507987,0.215838310153119,0.898398466164187,0.344296311384839
179,2.49388533910116,3.0,-0.649773076147423,-2.37343180087078,2.49388533910116,0.0056815270030237,0.0049846980566036,0.0075582381413657,-0.0315764963050376,-0.296656074387184,0.299841083139348,0.0193598963006706,0.215170906253278,0.217412720154613,15.4196132777618,1.89656454878217,1.86220702189085,0.0317437312646096,0.0559842796664807,0.132413980537615,0.461888245576511,0.0231722248748629,0.0053225431828351,,,,,2.73243854491602,-104.018907315581,1.5,AttemptLanding,AttemptLanding,1,0.708518634457898,0.115261475694824,0.0813911222762481,0.95459492916955,0.341149341983282
180,1.79753196642206,2.74109649658203,-0.888244338801052,-1.53232536731884,1.79753196642206,-0.0777399659291387,-0.0023411781396244,0.0777752108177478,-0.0473893458606025,-0.128950566365621,0.141474775986809,0.0091246820061653,0.179192967697082,0.181319663680565,15.4399737361242,0.949168222629227,0.877493905378749,0.176168638058224,0.24027134582746,0.149873688018166,0.428449105445835,0.15684464492417,0.0399787812016966,,,,,1.85620598441334,-119.444845846151,2.24904725518928,AttemptLanding,AttemptLanding,1,0.515605790448661,0.226560807935915,0.220182954457757,0.897563335679397,0.333389471991926
181,1.80770131925336,2.80069637298584,-0.872821053760303,-1.55275723496989,1.80770131925336,-0.0682073340670928,0.0047541065811566,0.0683728158695032,-0.0460920467577694,-0.132956871800685,0.144775002699434,0.0093381040286885,0.188518091695264,0.190731077536289,15.4442332288083,0.932422463309607,0.895019841780884,0.176690946409232,0.240282501057562,0.134452362902162,0.489895103030688,0.159299714710861,0.0354905467574545,,,,,1.8944468966032,-118.434379956689,1.67700768132883,AttemptLanding,AttemptLanding,1,0.520199900641488,0.235958903332549,0.225280868570704,0.897296051541102,0.340243394265706
182,2.43328325867653,3.0,-0.44652765356501,-2.36114989752858,2.43328325867653,0.0043037913724363,0.0058487520184791,0.0072615783650059,-0.0188110973916496,-0.296025133191737,0.297277286768404,0.0191846050317711,0.220821593655405,0.223056654870134,15.4309466519304,1.44731372108415,1.45901016507388,0.0236230722372501,0.0450285069529568,0.102569690099782,0.43030612528241,0.0004510350309532,0.0078119193600129,,,,,2.61222307005049,-99.3162222201901,2.09314166454185,AttemptLanding,AttemptLanding,1,0.693486866621101,0.128842556164699,0.0803466916616719,0.965353061918705,0.354413471066763
183,1.79040650419287,2.52903437614441,-0.953773367082328,-1.50162685192721,1.79040650419287,-0.0408967794510146,0.008269676937018,0.0417245027065342,-0.0497300998418461,-0.119417741041777,0.131361481015129,0.0084725148220723,0.119025753891326,0.121176410617927,15.4392627695738,0.81231762544202,0.909823035444866,0.176723318166793,0.24022364776583,0.145882755798142,0.394798065415716,0.156796286065777,0.0410685987037977,,,,,1.87171872539055,-121.350351106356,2.33121761627718,AttemptLanding,AttemptLanding,1,0.501677016575017,0.173840763351961,0.188925732154923,0.898107235723921,0.33516321964527
184,2.55596251441324,3.0,-0.297790813545834,-2.50499088037418,2.55596251441324,-0.0290847072825897,-0.0160649211682483,0.0332265238906503,-0.0101536782542912,-0.322091128170196,0.322577460045915,0.0208143523970135,0.220003527997025,0.22197631735139,15.4013058406537,1.46146469797596,0.966955745879558,0.0624892673043343,0.24023770893888,0.112193352956183,0.423993723785198,0.0018885759803933,0.0095237881460115,,,,,2.70378156394852,-95.0700514349474,1.86872371131161,HoldLanding,HoldLanding,0,0.72598526731381,0.105999963636973,0.0679025409740394,0.949674920003254,0.35013628757503
185,2.06550818803359,3.0,-1.18465308557837,-1.65547256700056,2.06550818803359,-0.0829220202642284,0.0002269777743869,0.0829223309103837,-0.0820636656873078,-0.151520191184827,0.17973514105621,0.0115930314014563,0.207422281913558,0.210200024530723,15.4467104739726,0.923510580426542,1.0074080010843,0.176239979210911,0.240326082598088,0.144978492517791,0.408187179801526,0.159564682485006,0.0367409783303002,,,,,2.15708888634091,-124.745911655981,2.22949969836113,AttemptLanding,AttemptLanding,1,0.592842188381769,0.225463085026013,0.219555843432083,0.896708507254102,0.335565114436537
186,2.06845649600029,2.9438853263855,-1.12430024787518,-1.72086476313482,2.06845649600029,0.0014224099803361,0.0005699642324026,0.0015323541948186,-0.0686956209932928,-0.155121689983358,0.172390254684277,0.0111269496089939,0.141863533412709,0.143219385194671,15.3934475452385,1.51945484447585,1.72215147738393,0.0292108242376176,0.0729237100420481,0.11698949506307,0.553773599598968,0.0102757590059694,0.0055453899410912,,,,,2.10837557196529,-122.363616262261,1.84793933927619,AttemptLanding,AttemptLanding,1,0.580232275972345,0.197252418439055,0.12493496049921,0.959924823923721,0.348004668860858
187,2.00890416839496,2.80990266799927,-1.0910266342786,-1.66219893040665,2.00890416839496,-0.0554464418544455,0.0114827419695182,0.0566229748199169,-0.0667852286338215,-0.147868632294031,0.166631906365187,0.0107477980471733,0.162413524353665,0.165130690575811,15.424374900729,0.943806765468592,0.920492923105457,0.17744090755465,0.240342659768322,0.137786481319443,0.456244490883563,0.159540840814295,0.0345224309057998,,,,,2.09849345512064,-122.244984043751,2.35644316048049,AttemptLanding,AttemptLanding,1,0.568733916353818,0.190605541127954,0.197823976277154,0.896631477241022,0.338761563858025
188,2.01174073722087,3.0,-1.14293315249334,-1.61856467430112,2.01174073722087,-0.0752907452069517,0.0120254041348461,0.0762450435007056,-0.0767937745768458,-0.145187030027075,0.171515358895766,0.0110639093171932,0.208525806048075,0.211214217965337,15.3660514130094,1.03499198360158,1.09283487640023,0.176661130914273,0.240303567125157,0.164191877420654,0.533352059309701,0.159536794478899,0.0367570386693579,,,,,2.08252249604559,-123.526280590972,2.39228133413701,AttemptLanding,AttemptLanding,1,0.578707040185299,0.236336592100434,0.226073393130649,0.894950794928564,0.327025832257487
189,2.49744095404943,3.0,-0.772902251797286,-2.34162138023992,2.49744095404943,0.0055227670263227,0.0075735664599014,0.0093733592990764,-0.0402034620729442,-0.288733673150715,0.293605120601308,0.018954166967982,0.213587720884291,0.215797139077962,15.4252418310168,1.708661379691,1.9396370837798,0.0190339881268461,0.0585117817825097,0.12555714704626,0.486110785913955,0.0004275586093801,0.0106077862846908,,,,,2.71977714743149,-106.924123588306,2.28187482192126,AttemptLanding,AttemptLanding,1,0.709143682228773,0.114794234543709,0.0729239436056356,0.961817803723592,0.344196823534996
190,1.98494443439302,2.76203060150146,-1.07729711849212,-1.65064545814968,1.98494443439302,-0.0462865313900433,0.0046835058518449,0.0465228784060673,-0.064036425616185,-0.144672231942009,0.161109015056063,0.0103915071174898,0.143544124100442,0.146051663660221,15.4505518322011,1.02309881693152,0.876286275092489,0.175984589282926,0.240263603769615,0.136712536307049,0.407876256273344,0.15952802828254,0.0376259853753383,,,,,2.06580628279313,-122.281189709167,2.45923069862212,AttemptLanding,AttemptLanding,1,0.558528848570183,0.183373581973846,0.194607671587782,0.897083965349777,0.339238872752423
191,2.01829854404034,2.74116730690002,-0.972065713424895,-1.75251100251809,2.01829854404034,-0.0513364092201314,0.0034839955073163,0.0514544957832821,-0.0525892817833716,-0.16230328020104,0.172856578490945,0.0111497554569161,0.145618626200368,0.148398663165016,15.4272965805036,0.890956088309156,0.97377188378194,0.176011048273692,0.240281196434029,0.15704090832267,0.467821345212812,0.159701207367804,0.0341139294412504,,,,,2.07634549688122,-118.754548572983,2.32670616164613,AttemptLanding,AttemptLanding,1,0.567892677710428,0.172078795870363,0.186630657159273,0.897343041796724,0.33020404074548
192,2.48536736687024,3.0,-0.967074005098952,-2.2571793522564,2.48536736687024,0.0076577396479554,0.0038741197792032,0.0085819450347506,-0.0572594800698317,-0.26865858061284,0.27813045489974,0.0179570946537509,0.211357302064898,0.213440500065113,15.4014894320397,1.78553319222657,1.87817659310546,0.0242510815290415,0.0523691960512607,0.128209457911058,0.455781935356415,0.0004043400114261,0.0050548784428982,,,,,2.68099720733185,-111.612146549017,2.05985250611136,AttemptLanding,AttemptLanding,1,0.705452731178421,0.117365699043899,0.0724372637136839,0.959088168065013,0.343018018706197
193,2.03419232773943,2.94893884658813,-1.04639922525046,-1.71262804707761,2.03419232773943,-0.0669171507921248,0.0058865964256514,0.0671755691275814,-0.0651619790767474,-0.161163859166647,0.179168618129818,0.0115566201251896,0.207328468094567,0.210095681533551,15.4444520394054,0.964151087854986,0.941219522820002,0.176242260041696,0.240314059186852,0.156942178826155,0.403530023992109,0.159437118204053,0.0356855274369199,,,,,2.11900443077325,-120.570247299149,1.5,AttemptLanding,AttemptLanding,1,0.584470423703891,0.218133487747682,0.21471758950424,0.896908100895277,0.330247920521709
194,2.5270467314987,3.0,-1.01693680185236,-2.27621522741738,2.5270467314987,-0.0332239733172904,-0.00865710338745,0.0343333342693224,-0.0581162985592416,-0.270128842858466,0.280269796066235,0.0180876660020466,0.225001972612031,0.226609421495028,15.3922298233454,1.59070972363228,1.34071980406075,0.0618074125939784,0.240321286873077,0.113956733869782,0.531615502152658,0.0018549971880194,0.0073646437771461,,,,,2.61715863552686,-112.220792726245,1.86397212930569,HoldLanding,HoldLanding,0,0.719201012698659,0.112708930028835,0.0711278534945749,0.94606363312828,0.349352562724541
195,2.03284060063005,2.90347790718079,-1.02355554479276,-1.7421020519808,2.03284060063005,-0.0434264091327436,0.0062580712313138,0.0438750095806329,-0.0573195476632049,-0.159617571996114,0.171752026974184,0.0110804887085168,0.132794827283833,0.135599788917339,15.4254747812829,1.0904491446893,1.09632684889482,0.176781497917803,0.240265010675079,0.202454579815373,0.464028125211383,0.159568740775511,0.034878677231226,,,,,2.08957514186263,-119.371133784789,1.90153216674035,AttemptLanding,AttemptLanding,1,0.569210784618149,0.203937145730364,0.2059648831397,0.894427439662938,0.310020186748723
196,1.93819610317548,2.71647357940674,-0.908710566535804,-1.69045441244133,1.93819610317548,0.0049898519136859,0.001741015652975,0.0052848611736184,-0.0471919502690833,-0.151341790347608,0.161210508698109,0.0104125490480238,0.16111109610724,0.162331312537526,15.4079449066459,2.07122389526357,2.26474640484429,0.0189871290040337,0.0630656060682214,0.142477440722457,0.499780630524231,0.0002350307179995,0.0076754381869002,,,,,1.98818975952798,-117.123132335998,2.3196939769063,AttemptLanding,AttemptLanding,1,0.549318556687633,0.176081323367196,0.108544320548807,0.956438097425707,0.336676693012241
197,1.90645726951393,2.89608120918274,-0.86972779093494,-1.66597613689957,1.90645726951393,-0.0821835691381641,-0.0040700450128106,0.0822842895253627,-0.0463367128768558,-0.152044842860338,0.162714248757052,0.0104937340652316,0.180387488277046,0.182834869245407,15.4588839925291,0.913233368573717,0.700262998686296,0.174887005238355,0.240290844256861,0.111872113073699,0.432570551662936,0.15671215879758,0.0381681116887964,,,,,1.96491164649544,-115.571452830696,2.17840383869377,AttemptLanding,AttemptLanding,1,0.544955579052796,0.237750839505132,0.22617966539894,0.89987902592378,0.350279060856134
198,1.82761369270532,2.55471467971802,-0.794066159412974,-1.62707126101371,1.82761369270532,-0.0483680995021264,-0.0036873700389639,0.0485084502664417,-0.036545092314809,-0.14174503708705,0.148252735746392,0.0095624974709486,0.152920007845007,0.155279310622746,15.4395228351603,0.945916858714067,0.82924074913136,0.176224184736813,0.240222144888465,0.146865745766049,0.445007652941216,0.159530950460655,0.035246995206748,,,,,1.88489007794024,-115.359098105949,1.72971071412223,AttemptLanding,AttemptLanding,1,0.518419513512635,0.172490937960037,0.187214296591293,0.897940240712808,0.334726335215089
199,2.47701514883584,3.0,-1.12093085870576,-2.17542062235959,2.47701514883584,0.0034491136173678,0.0014624848005098,0.0037463644426609,-0.074214532429748,-0.250437976454176,0.266143214797992,0.0171875680262629,0.214741357737462,0.216775724279028,15.3880566656678,1.99415113237006,2.06239157769775,0.0232741560960483,0.0553587019908972,0.137026941032407,0.465805379520479,0.0063362510417684,0.0038297335129019,,,,,2.68563096804021,-116.007396076949,2.09837892387114,AttemptLanding,AttemptLanding,1,0.703892517878695,0.118358424993091,0.0752237969383021,0.956490086372872,0.33909913731893
200,1.88471834691579,2.96540117263794,-0.844011950979951,-1.65598045002815,1.88471834691579,-0.0886823190493701,-0.0167182496316079,0.0902444102574726,-0.0451059397457733,-0.151210609663748,0.161263812517245,0.0104029697681813,0.198240814357245,0.200602172407967,15.4462452421416,0.992354476883075,0.921864028407004,0.175640209276447,0.240281062122246,0.175987658672561,0.449059245590407,0.160084177354899,0.0334430657993368,,,,,1.97177383483815,-114.893051128023,2.12229949037293,AttemptLanding,AttemptLanding,1,0.542711993659137,0.259698444334687,0.239128704705779,0.897139607105926,0.321783262812195
201,1.79727487709071,2.47639274597168,-0.754543980498569,-1.61666343743877,1.79727487709071,-0.0495772305913214,-0.0024839311867431,0.0496394168705226,-0.0327055638080363,-0.137891156929816,0.143058529555542,0.0092300368170204,0.121126824910191,0.123568147129981,15.3334155129848,1.10049259164504,1.06719029982673,0.177305721448029,0.240227113971348,0.157558862938084,0.470364264156857,0.159230250340018,0.0341507798265364,,,,,1.87135485490829,-114.338554000358,1.92175449976127,AttemptLanding,AttemptLanding,1,0.503986929983519,0.161902080257814,0.180328713697275,0.894315345128707,0.329973838694185
