scenario_id,mean_wind_speed,max_wind_speed,wind_velocity_x,wind_velocity_y,wind_velocity,wind_acceleration_x,wind_acceleration_y,wind_acceleration,wind_body_force_x,wind_body_force_y,wind_body_force,mean_wind_body_risk,mean_wind_gust_risk,mean_wind_risk_raw,min_thrust_margin_n,mean_abs_roll_deg,mean_abs_pitch_deg,mean_abs_vz,max_abs_vz,mean_tag_error,max_tag_error,stability_std_z,stability_std_vz,mean_imu_ang_vel,max_imu_ang_vel,mean_imu_lin_acc,max_imu_lin_acc,wind_speed_cmd,wind_dir_cmd,hover_height_cmd,gt_safe_to_land,label,success,onto_wind_condition,onto_gust,onto_temporal_pattern,onto_drone_state,onto_tag_observation
1,2.0340141694288,2.71309781074524,-1.25787787920113,-1.58033178389185,2.0340141694288,-0.0626357255087033,0.010861265175679,0.0635704427483248,-0.0857548138303776,-0.131262691536034,0.160589038489236,0.010360802804256,0.130196737944317,0.132834152541719,15.3779507953326,1.03032845430755,1.0415329824622,0.176601520288884,0.240263295544029,0.122179626747281,0.415225030474742,0.160081171334467,0.0365002500724353,,,,,2.0716688985117,-127.374480982322,2.31472368639318,AttemptLanding,AttemptLanding,1,0.56897060902269,0.164448400466725,0.183089045747956,0.895420328566653,0.345697943667875
2,2.31149659872869,3.0,-1.35423815402773,-1.83381541154613,2.31149659872869,0.0062597980601691,-0.0220089290384357,0.0228818274876155,-0.103499072990559,-0.182209179680079,0.218943830027098,0.0141350166872141,0.230106025776066,0.231851012495016,15.3889181180589,1.6268067467386,1.71130664976095,0.0309393193364984,0.0963195604091268,0.191893292600733,0.426366410974011,0.0108871828606834,0.0080173415083521,,,,,2.42882567996652,-126.095851442396,1.59133896787116,AttemptLanding,AttemptLanding,1,0.66276929549332,0.159108266992108,0.103219105045474,0.958302306502111,0.314714092177452
3,1.66679828573059,2.46513533592224,-1.03627889364231,-1.28364561143774,1.66679828573059,-0.0376778160968598,-0.0030287006384112,0.0377993499069217,-0.064139338953853,-0.0958259492338066,0.119406014612168,0.0077042626184784,0.156667010121322,0.157777359087443,15.304609172305,0.906338665748416,1.07771520975866,0.176295243371649,0.242668492847262,0.246896837787847,0.506003258469838,0.124417229825147,0.0049830922606742,,,,,1.87319628751653,-127.297520073929,2.47615256510041,AttemptLanding,AttemptLanding,1,0.47603501467898,0.18655571710939,0.169042010403924,0.896263383578048,0.29026807209429
4,2.34478194905578,3.0,-0.646444665075489,-2.22248501101399,2.34478194905578,-0.0060624853712143,-0.0018038080575635,0.0063251444556404,-0.030948157201696,-0.265686842963441,0.26898740822854,0.0173530085588807,0.227236568248074,0.228062599287524,15.4369380699303,1.08906883085114,0.987615631493245,0.0658613339055671,0.246181814394365,0.336845013608138,0.679534433657954,0.0506063361435151,0.114347669165401,,,,,2.46779887999601,-105.553838771394,1.59126547578646,HoldLanding,HoldLanding,0,0.670887706272378,0.148583671279318,0.153222878325864,0.950752526557368,0.25029110506305
5,1.71200075223274,2.59890103340149,-0.99419655280142,-1.37873666688829,1.71200075223274,-0.0443193737463602,-0.006879574250364,0.0448501441595881,-0.0588647855787936,-0.110839594141309,0.12811575324729,0.0082618246641755,0.148155159586693,0.149338550546599,15.460660830496,0.626696813617676,0.750524140485918,0.17397759554445,0.244453078527321,0.236925705717135,0.503105329609089,0.115885854620912,0.0047684477087569,,,,,1.88084050141636,-125.058018224367,1.88255908448584,AttemptLanding,AttemptLanding,1,0.48640124403805,0.207775089692227,0.1779038590763,0.902190180445532,0.29469968634794
6,1.88140681766024,2.63360905647278,-1.03342477473931,-1.55736611692962,1.88140681766024,0.0044363705472665,0.0019145159647845,0.0048318479914075,-0.058049785015743,-0.127291837235362,0.142349948111158,0.0091910675988522,0.129920319372066,0.131061185802876,15.3291393858542,1.86666724808509,1.86748922263464,0.022759325046108,0.0655256815571801,0.127573771823547,0.407723929278428,0.0002199666562123,0.0071490981715926,,,,,1.9161886291726,-122.783489357006,2.13923625855564,AttemptLanding,AttemptLanding,1,0.527920721869972,0.170131342531247,0.104776240539462,0.959280536635577,0.343300545856201
7,1.91297464757352,3.0,-1.08099518524834,-1.54215536155999,1.91297464757352,-0.0885806819905706,0.0071135867852667,0.0888658558663907,-0.0687570261997451,-0.130563398416928,0.154362522144179,0.0099583088278056,0.194003405386921,0.196370070676532,15.4231004122927,0.999704587637108,1.10096594786845,0.176387763711809,0.240284738897923,0.165503336843701,0.413199835378872,0.158884789644521,0.0365013892721631,,,,,1.96867067391655,-123.586570068552,1.5,AttemptLanding,AttemptLanding,1,0.549400586821579,0.260872777871462,0.240412361249714,0.895300849650837,0.3264429614028
8,1.87934641016496,2.69825172424316,-1.08963817799998,-1.51397238376864,1.87934641016496,-0.0460600289213456,0.0036491071233647,0.0462043531177852,-0.0650794081699616,-0.121859715019544,0.141338399072321,0.0091155259866452,0.144228367638521,0.146530750663165,15.4624462902122,0.875256316821902,0.832064942361334,0.176537835590824,0.240258743553757,0.137081183550003,0.466098470523943,0.158661509946366,0.0349501277181034,,,,,1.96461919299708,-125.030810267647,1.66743113249403,AttemptLanding,AttemptLanding,1,0.53046519284329,0.192724493739189,0.19886006023838,0.898316415168148,0.339075029533332
9,2.61960245733676,3.0,-0.799805540324967,-2.46261819537475,2.61960245733676,0.0117358409735698,0.0016122759438134,0.0118460709552121,-0.0417936568491181,-0.316029737936788,0.32074128995755,0.0207133545696485,0.199021658997204,0.201466427268359,15.3958804133672,2.11234832413369,1.93966278861053,0.0300079400209408,0.0639435881617017,0.131743348356483,0.54508673562647,0.0168657155885462,0.0054840248493223,,,,,2.98365709536118,-106.900241715489,1.78448942389044,AttemptLanding,AttemptLanding,1,0.738853940743474,0.0877612267743518,0.0621468005138195,0.953158799817968,0.341447400730452
10,1.86629542064022,2.50035524368286,-1.11089060937421,-1.48388331774229,1.86629542064022,-0.0450951001089685,0.0113545396734347,0.0465026195502307,-0.0664897690788187,-0.116102769878927,0.136709665239405,0.008817680978485,0.120714204768063,0.122940229659432,15.4561407819943,0.864067763677424,0.966265919289176,0.177185820149767,0.240221002977463,0.142637128914269,0.376241008960477,0.159198418061389,0.0370570911955997,,,,,1.92399487038037,-126.353098118705,2.29612458950857,AttemptLanding,AttemptLanding,1,0.522266824769279,0.151188940435469,0.174943522622319,0.897025896701807,0.336605720482547
11,1.85221807054571,2.57434129714966,-1.15728933915427,-1.42063556496328,1.85221807054571,-0.0594734187754684,0.0155616958995039,0.0614756368011822,-0.074178217909626,-0.108538728213403,0.136527176368609,0.0088083391553017,0.150563630386466,0.152799505408588,15.3863207099014,1.04583502634228,1.15146158937584,0.176631901005769,0.240240458520538,0.178511672992209,0.52788413961532,0.159208078938446,0.0357857414432748,,,,,1.90759543141243,-127.844704273722,2.47796722523415,AttemptLanding,AttemptLanding,1,0.524484719893907,0.173748259399438,0.188021098722991,0.894419576087902,0.320661478670129
12,2.62974814666952,3.0,-0.790682473099006,-2.47510732872558,2.62974814666952,0.0065165532312449,0.0043506365059533,0.0078354006931734,-0.0413159183844007,-0.318577084499371,0.323195828021392,0.0208685615063759,0.192668797926869,0.195172494545498,15.3943013089093,2.00231950241458,1.83833144677703,0.014562333659769,0.062251502699635,0.133372265575383,0.49880514922346,0.0003363765976364,0.0058703148297111,,,,,3.0,-106.299635778902,2.47498946281385,AttemptLanding,AttemptLanding,1,0.740300671354306,0.0847431571264394,0.0531300549240011,0.962542289997896,0.340723437522052
13,1.9540936995197,2.74082732200623,-1.02560608827431,-1.64850294319284,1.9540936995197,-0.0537182008039616,0.0036635790416303,0.053842983841992,-0.0576989364794411,-0.144132472678218,0.157556906658217,0.0101633947305272,0.139672937946872,0.142304516295714,15.4381688974842,1.01165372630909,0.983949524183992,0.176334005621066,0.240263447845911,0.168661860866806,0.416593362279262,0.158371656239541,0.0359469729198634,,,,,2.02726066309477,-121.319262228342,1.85333121383343,AttemptLanding,AttemptLanding,1,0.549552556464396,0.186886278763834,0.195590796547744,0.896153257364164,0.325039172948086
14,2.67397901445043,3.0,-0.749804771720184,-2.52619691352922,2.67397901445043,-0.0295752828547191,-0.0045805671564855,0.0299278958734442,-0.0357527076534628,-0.328944359728552,0.332727789390705,0.0214760013676647,0.20589293076822,0.208036208790489,15.3943845586964,1.68164471456415,1.50777513264979,0.063462928605588,0.24021006025977,0.123475264104651,0.426345497660117,0.0018560868320299,0.0089664856913595,,,,,2.96211416560549,-104.652706865072,1.66083196263714,HoldLanding,HoldLanding,0,0.754668312278212,0.078841502658785,0.0513903693275767,0.943208808326239,0.345122104842377
15,1.73296060498129,2.35115742683411,-0.921185418281549,-1.45383520125526,1.73296060498129,-0.0538076372240719,0.0028055707245582,0.0538807298644685,-0.04721288437573,-0.112651281256793,0.124169290271923,0.0080079893246999,0.123770098056483,0.12570219553717,15.4620164803411,0.802812798502809,0.766771495430571,0.176703628563907,0.240196260402798,0.153632045175891,0.443911894270529,0.158252668169048,0.0348051352835748,,,,,1.78867162897179,-121.8764556945,2.332388643469,AttemptLanding,AttemptLanding,1,0.487263267102444,0.14897241872537,0.172374383251856,0.899315737694284,0.331719091032937
16,1.75647273749412,2.87641620635986,-1.007193215341,-1.40837839520012,1.75647273749412,0.0068293291657531,0.0027027243081622,0.0073446889341984,-0.0598016344487775,-0.10872961961581,0.129428746208193,0.0083589183548739,0.192036087508208,0.193009118957946,15.3999120990361,2.07432105627245,1.94989198151914,0.0261216614299758,0.0534928700757824,0.129582844713836,0.429619659240915,0.0084362938074876,0.005152140815312,,,,,1.79698325918466,-123.928221238646,1.98601264884409,AttemptLanding,AttemptLanding,1,0.506994553790021,0.253333806799395,0.157623253745099,0.955320352559507,0.342407624571629
17,1.85743863150577,2.57199120521545,-1.02121646413863,-1.53632112667229,1.85743863150577,-0.0526538803475887,0.0147365924389957,0.0546772189524234,-0.0570669782907652,-0.125086041177769,0.13999715538509,0.0090295663461756,0.123761839598593,0.125996984343561,15.4448058387156,0.883065804355049,0.849254869253201,0.175211760165315,0.240237759646423,0.136614443122893,0.43119191133434,0.155502493358209,0.0398316601426637,,,,,1.90606506718967,-122.683382350962,2.36737860993381,AttemptLanding,AttemptLanding,1,0.520516365270252,0.170798485892622,0.186075550857766,0.89878302891042,0.339282469723159
18,1.80379080691853,2.67945194244385,-1.03770468249384,-1.45979580999996,1.80379080691853,-0.0442699425524194,0.0124040291693651,0.0459748600131525,-0.0586454650003994,-0.112929035932721,0.1299293549244,0.0083820058434363,0.119217031494396,0.12127464010708,15.408774932294,0.975324868915086,1.10560950161591,0.176865316063013,0.240264982203188,0.176899148357053,0.460625765227976,0.158345575334551,0.0358962666864513,,,,,1.87952489310621,-124.36494621675,2.30263362021387,AttemptLanding,AttemptLanding,1,0.505265809866357,0.205452479828941,0.206700487043147,0.895217143342893,0.321378156285754
19,2.61970711113218,3.0,-0.778074003748175,-2.46786380804618,2.61970711113218,0.0074044010209625,0.0003851689507987,0.007414412289581,-0.0405474745428034,-0.317213380446346,0.321780894854599,0.0207815850298477,0.199034678134044,0.201522936322839,15.4015954080273,2.09155416480335,2.02317777027142,0.0297739021251893,0.0507278088222818,0.14016273148002,0.443048373664208,0.0205354064482103,0.0074472160305178,,,,,3.0,-106.031594526481,1.72934250433964,AttemptLanding,AttemptLanding,1,0.73889315023315,0.0869252089150149,0.0639900512158766,0.952783012304675,0.337705452675547
20,1.90524223446846,2.59728932380676,-1.03229986522398,-1.57939354793327,1.90524223446846,-0.0705020578452437,-0.0107854801630826,0.07132227381935,-0.0596739632969552,-0.133360381600679,0.149756019860867,0.0096584207156887,0.150324197501743,0.152660179267714,15.4670965908568,0.911255177716221,0.79175570123837,0.17632929135452,0.240249058132075,0.169813215427861,0.412155289876729,0.157385252265398,0.0355818764378482,,,,,1.95533603544456,-121.682915799118,1.91077997215617,AttemptLanding,AttemptLanding,1,0.538596631711799,0.168786345301332,0.18415967234686,0.898454554559525,0.32452745980984
21,1.98029826551476,2.670729637146,-1.08948590094892,-1.63839758579705,1.98029826551476,-0.0491268304780586,0.0105425448613333,0.050245305501839,-0.0647901981839993,-0.141822461433769,0.158699014390188,0.0102353915000521,0.137255404693615,0.139768201223469,15.4613691564981,0.937093902566947,0.838375171330667,0.175543538186873,0.240318934604374,0.156259147017381,0.466891960417192,0.15612730302476,0.041225209575085,,,,,2.01006102178809,-122.843348050567,1.51645873580313,AttemptLanding,AttemptLanding,1,0.556033177715296,0.164558697959032,0.183116116530899,0.898278116754511,0.330551490214497
22,2.62128694759165,3.0,-0.740174172410391,-2.48218428046105,2.62128694759165,0.0035416846476512,0.0054913061925637,0.0065343686645227,-0.0373582883551426,-0.320319283014212,0.324142375232093,0.0209342290935367,0.190831885981837,0.193466563635701,15.4059196099813,2.09202552755232,1.99356632264773,0.0299715502062739,0.0548644923916276,0.132614289421116,0.449990323411926,0.0151336674190982,0.005672745070706,,,,,3.0,-105.373889448931,1.78595020168256,AttemptLanding,AttemptLanding,1,0.737703165418246,0.0864084043803751,0.0606339334260608,0.952913146073863,0.341060315812837
23,1.74575641680331,2.61630034446716,-0.851172090342308,-1.49783255799187,1.74575641680331,-0.0851143960528538,0.014027921691663,0.0862626396676422,-0.043187587823582,-0.122827477091075,0.133472118420707,0.0086090434893773,0.180612797613115,0.182306602350933,15.4122818146524,0.955019739355939,0.892437978353819,0.187065611822255,0.240230917143824,0.157408738700997,0.399680001517859,0.154188445654681,0.00485902758095,,,,,1.75191981509009,-118.497538474994,1.93516027206123,AttemptLanding,AttemptLanding,1,0.501996364951071,0.211687200996767,0.197307437787153,0.891951454878296,0.330040560577335
24,2.52009955867032,3.0,-0.554786237811488,-2.42722831072983,2.52009955867032,0.0049452307722582,0.011711480890014,0.012712753125427,-0.026039893007448,-0.323276280176213,0.325361838656049,0.0209860767442605,0.194609623208009,0.195763754433687,15.4490919523338,1.11735528848888,0.742062014188657,0.0502495094495822,0.246048182705784,0.305015827679354,0.655848492848282,0.0066320809935433,0.0101500643433184,,,,,3.0,-102.185830974197,1.56269752856626,HoldLanding,HoldLanding,0,0.711179299865488,0.110308270705507,0.0728234864644697,0.960265537897028,0.264437409920287
25,1.7444690993043,2.41963529586792,-0.940384839016794,-1.45411550839141,1.7444690993043,-0.0453118268351109,0.0017180975235496,0.0453443878582069,-0.048512262539555,-0.112169315880714,0.124448974889227,0.0080308325821238,0.124865927630504,0.126947807219248,15.3386182620608,1.15292328873657,1.21847413896842,0.177680578669344,0.240208721981877,0.169421496500766,0.495152713697999,0.158654560329664,0.0352366582165369,,,,,1.79680657025774,-122.144595008979,2.14529053715208,AttemptLanding,AttemptLanding,1,0.490581321258331,0.160225532000818,0.179461787385345,0.892527302304789,0.324701557110771
26,1.84474121128835,2.60790467262268,-1.02928443283251,-1.51526483433251,1.84474121128835,0.0072474709136826,0.0044022788503793,0.0084797342954348,-0.0576816816682023,-0.120236510552112,0.135926773523587,0.0087750413378984,0.125631085991253,0.126745732581373,15.4103807108991,1.71154817404952,1.89280504358374,0.0259736266000249,0.0504423646523729,0.12548463597801,0.452107481379048,0.0060647193693986,0.0064398718896445,,,,,1.89015622586425,-123.159855511628,2.01039060227497,AttemptLanding,AttemptLanding,1,0.517280136193168,0.173266396754387,0.108997040479711,0.95869326856144,0.34422905067644
27,1.71703847062668,2.70863628387451,-0.826066618012009,-1.47833886250533,1.71703847062668,-0.0722274644170481,0.0025733623360994,0.0722732925071828,-0.0416868993604752,-0.120764410971834,0.131040703256553,0.0084518646263384,0.18202965190121,0.183960986755826,15.4267320817009,0.800726172824154,0.950032158005588,0.176747503868598,0.240276537971793,0.148745082963094,0.466495673711085,0.156277084930169,0.0413737673316516,,,,,1.77620387229689,-117.832865156267,2.29684887965109,AttemptLanding,AttemptLanding,1,0.494669122851613,0.23635961160708,0.226317255457853,0.897870289752039,0.333891074238625
28,1.72160231181093,2.39358305931091,-0.968622179473751,-1.40782852972083,1.72160231181093,-0.041158405834167,0.0116319271775202,0.0427705050317753,-0.0516547286235242,-0.105349263817362,0.119825623482875,0.0077288666027243,0.127300072331484,0.129267609211128,15.4093708031022,0.874296497419375,0.932390454910053,0.176988523880346,0.240230729503962,0.138202889182166,0.496082509858419,0.158892587634469,0.0367885777171556,,,,,1.77693740749085,-123.63065316624,2.37192932652013,AttemptLanding,AttemptLanding,1,0.484947471658474,0.159036927443321,0.179418748927955,0.897310340577239,0.338576493696815
29,2.62488894518403,3.0,-0.51809791351262,-2.5395186449004,2.62488894518403,0.0070942444746104,0.0052081848825237,0.0088007666959242,-0.0233147606403491,-0.335269243402049,0.336915431557508,0.0217575329502682,0.195169463262833,0.197951761474042,15.3902422242281,2.03010773195305,1.90261361335133,0.0236072777411557,0.0501404225135876,0.133486074053406,0.442939355111019,0.0039962477027176,0.0053012019626678,,,,,3.0,-100.208461528465,2.079780047789,AttemptLanding,AttemptLanding,1,0.739560737677215,0.0860134612278471,0.0553118966314115,0.957296407702031,0.340672855976264
30,1.85680735511268,2.63015913963318,-0.940450314315199,-1.58697260867274,1.85680735511268,-0.0520106100078621,-0.0049699327380829,0.0522475241979081,-0.0485711079802981,-0.13293629393846,0.143419274573909,0.009249853692499,0.113775997616507,0.116099384356774,15.4464258769588,0.889832290651262,0.770326100400175,0.1754818790218,0.240221321759793,0.137221961077697,0.357208109098,0.155140400846335,0.0383462475219684,,,,,1.90894849737311,-119.745808657761,2.17473634521544,AttemptLanding,AttemptLanding,1,0.518368504901402,0.183582864286729,0.193045097845064,0.899214958845124,0.339012461743246
31,1.89878211955766,2.68136310577393,-0.954651995468598,-1.62092712925709,1.89878211955766,-0.0580844659085057,0.0109628861410021,0.0591099826798904,-0.0517331038741468,-0.140369008588218,0.152551922154434,0.0098411634040714,0.152050815662223,0.154407044795576,15.3707821759732,1.03632832001146,1.06845254284733,0.177277487417508,0.240262563378296,0.154961702494207,0.533623177550969,0.159992443676752,0.0366096195135864,,,,,1.95935225919259,-119.13516242978,1.69347512141877,AttemptLanding,AttemptLanding,1,0.537223307507826,0.186917552056639,0.196570872893238,0.894823692368784,0.331128132224797
32,2.61527882092773,3.0,-0.64447037528508,-2.50102000690947,2.61527882092773,0.0058438318761096,0.0032789336867879,0.0067008788318091,-0.0310434665377832,-0.326601502976415,0.329434341674635,0.0212716645864736,0.198122537563214,0.200672857153648,15.3943559040433,1.99964205293911,1.80839433965766,0.0277861493144807,0.06944403227378,0.124156786480209,0.509385934405799,0.0090755458299496,0.0067189877170492,,,,,3.0,-103.01941117063,1.94472668298181,AttemptLanding,AttemptLanding,1,0.737542257011456,0.0877907597437601,0.0591513000314233,0.956186639400928,0.344819206008796
33,1.87093874570486,2.50995516777039,-0.823322246175962,-1.66647360280236,1.87093874570486,-0.0479961790325306,0.0133508090669928,0.049818443416731,-0.0382315290623562,-0.147120730404058,0.153390395869534,0.0098935214901457,0.12110354864981,0.123588868558647,15.4174802212225,0.960761770692268,0.787316177444542,0.176952741027759,0.240240966114292,0.129963110024129,0.382643177242999,0.158399277275212,0.0365386847241498,,,,,1.93692079365451,-115.089103932968,2.11625383484941,AttemptLanding,AttemptLanding,1,0.523634772566358,0.152912076257811,0.175433718988815,0.897788731322188,0.342238617767054
34,2.63250132742382,3.0,-0.560242786391524,-2.53898181127153,2.63250132742382,-0.023275604903029,0.0051810772249719,0.023845279298281,-0.0251354381087513,-0.341179432280666,0.343100845819726,0.0221472541290271,0.202004947898408,0.204106373336587,15.3716482199584,1.7523658114917,1.36989094383654,0.0628487952636612,0.240300810200637,0.115764429250636,0.471037864830261,0.001888903613538,0.0087557999380349,,,,,3.0,-101.157933097739,2.11819115146642,HoldLanding,HoldLanding,0,0.742821628647003,0.0870588358676582,0.0562587414879175,0.944043585004876,0.348549142555273
35,1.80232309489637,2.50087380409241,-0.796019232359957,-1.59684392041661,1.80232309489637,-0.0564674062202333,0.0052226862261261,0.0567084157480828,-0.0370205616534293,-0.135725006659181,0.14267374543669,0.0092035411501142,0.141154326594389,0.143434750585679,15.4202939568588,0.96724315912875,0.952973108357534,0.176672665779483,0.240219298963061,0.195021699269558,0.396847506492512,0.158664228257776,0.0374039339803052,,,,,1.86137587595629,-115.841095627455,1.88595855360993,AttemptLanding,AttemptLanding,1,0.5093064420895,0.167570452456257,0.184661136793281,0.896576253580009,0.31332368921353
36,1.98140126965118,2.76296305656433,-0.885720246727283,-1.75914714632886,1.98140126965118,0.00544033943573,0.0027700248520852,0.0061049431493773,-0.0435756256666483,-0.162080403125181,0.169331427118463,0.010930920456821,0.137873467365179,0.139218412997466,15.4007610042386,1.82847358898437,1.76035929614871,0.0190386596476497,0.048934844724039,0.121172595805092,0.445021069875658,0.0002381306712459,0.0058317839815516,,,,,2.00134863438598,-116.022448666907,2.28062292177955,AttemptLanding,AttemptLanding,1,0.556217354506474,0.176970641632846,0.108408869554159,0.962282697507272,0.346145512975515
37,1.77826124671343,2.54260849952698,-0.804363212521046,-1.56854791819884,1.77826124671343,-0.0581761984733379,-0.0079334794880506,0.0587146503489251,-0.0370395986317168,-0.131796874733107,0.138825708271178,0.0089534663554878,0.134746048164527,0.136805837952322,15.4622791540777,0.950449079376257,0.717791821543031,0.176161335004344,0.240254480831577,0.151720039727806,0.403350839943536,0.158949043068412,0.036359168161483,,,,,1.84847057739295,-116.145839673518,1.68233374616723,AttemptLanding,AttemptLanding,1,0.501564166714046,0.182742484447017,0.193511025504811,0.898811725419176,0.332568871232086
38,1.9459689591555,2.75901579856873,-0.769381216028747,-1.76701353028007,1.9459689591555,-0.0707675576420141,-0.0107813256145638,0.0715841057541619,-0.0351488881093481,-0.165916028792123,0.171357795851055,0.0110533667452506,0.154029304491647,0.156648853100691,15.4007352058366,1.08267217525661,0.921598814172849,0.176095656350915,0.240237439420449,0.137240162757764,0.506878924166059,0.155555897806806,0.0410246156457823,,,,,1.9993932608471,-112.620106358339,2.18874635054533,AttemptLanding,AttemptLanding,1,0.550254826394938,0.196059291589572,0.201689571587558,0.896204328336168,0.33900437210766
39,2.61780797558086,3.0,-0.634373101375438,-2.50780568809146,2.61780797558086,0.0076284100763178,0.0021198702847643,0.0079174800483925,-0.0299497759484082,-0.328055153948086,0.330643217902031,0.0213484512444603,0.19315781068112,0.19566087945031,15.4150651841789,1.79672584049113,1.87654283201199,0.0298663063598029,0.0479769545504645,0.126170695268481,0.445383592922554,0.0216864379982931,0.0062850452110957,,,,,2.9987372183553,-102.731971335258,1.69270958117926,AttemptLanding,AttemptLanding,1,0.737214302711624,0.0874447435031785,0.0643907339758904,0.956205450107574,0.343924135436231
40,1.86813744983158,2.94045042991638,-0.303769729743147,-1.81662846399795,1.86813744983158,-0.0766943525513368,-0.0245664265052896,0.0805328071316811,-0.0107623159691591,-0.179731989176497,0.180442527650842,0.0116390085044988,0.186026147604945,0.188964691461839,15.4333394528084,1.0618574655276,0.76873435285311,0.17632931632563,0.240243378096158,0.128739794155397,0.362616036997878,0.158626070339197,0.0365158739607517,,,,,1.96262077332345,-97.9255988407311,1.94388326779262,AttemptLanding,AttemptLanding,1,0.535962924914121,0.256034768493223,0.237399836424335,0.897452120407051,0.342782313708712
41,1.88938298001385,3.0,-0.275779111434198,-1.84286601631462,1.88938298001385,-0.0686878595744369,-0.0217967986573639,0.0720633227420664,-0.0089829861967606,-0.184787358035307,0.185314033477889,0.0119516560198042,0.185188472630327,0.188079343272055,15.4577150951828,0.978721453122146,0.587443376558369,0.175647618314649,0.240260207909768,0.107978575539735,0.444045369850705,0.154691463201734,0.0414821420109531,,,,,1.94919332297993,-97.076725643542,1.92107951223799,AttemptLanding,AttemptLanding,1,0.541451329991439,0.263100438666262,0.24169643989946,0.899870610038043,0.35200952198234
42,2.62049650069463,3.0,-0.629964414381759,-2.50982672321085,2.62049650069463,0.0110688633426204,0.003113093097081,0.0114983078898027,-0.0300776461472064,-0.327362650064594,0.330021327123609,0.0213068832503647,0.196622628754338,0.199233448997828,15.4089184039661,1.94663717927716,1.63905584423233,0.0240205826332085,0.0494299302425003,0.117826184018764,0.417423624549511,0.001694609395055,0.008132012990171,,,,,2.97766096785849,-102.83550377438,2.09083203821563,AttemptLanding,AttemptLanding,1,0.738645756651467,0.0874963104568383,0.056208041638028,0.959816406355821,0.347632807102772
43,1.82877285013328,2.49425768852234,-0.248104417271305,-1.79852977103522,1.82877285013328,-0.0490900403947637,-0.0219787162392069,0.0537856489547454,-0.005830005816745,-0.171661239535002,0.171888207647558,0.011087988079301,0.128020945407008,0.130762026968491,15.404360938754,1.07454158356757,0.78981431804593,0.177206681578923,0.240249844910704,0.162584714201306,0.403301322094813,0.159773001562318,0.037285528746239,,,,,1.87761184680711,-96.9149867627548,2.35934557253938,AttemptLanding,AttemptLanding,1,0.513825165429239,0.159594790945909,0.180325471573672,0.896748148555004,0.327740127021642
44,2.45252598962694,3.0,-0.581659431814675,-2.35089336804858,2.45252598962694,-0.0142638882715708,0.0162972716763819,0.0216577831902911,-0.0277766276172333,-0.303372461689707,0.305903451670456,0.0197453183269895,0.222299877031203,0.224074259105926,15.4051874812059,1.72350508390408,1.4204141121672,0.0626960311551753,0.240575441215682,0.131149356103862,0.453785638712877,0.0019308415932204,0.0095939765240069,,,,,2.70268226585959,-102.84402520654,2.20684736812285,HoldLanding,HoldLanding,0,0.698821782388369,0.127152245918826,0.080638218106507,0.943949762167567,0.341711397287173
45,1.69756638681566,2.35085129737854,-0.243742742900074,-1.66234444007935,1.69756638681566,-0.0552631997910378,-0.0165989904412448,0.0577022333607002,-0.0063723248771483,-0.146062474996496,0.146407808755042,0.0094442289863484,0.121872878562672,0.124170851019603,15.4526207730035,0.975649892634457,0.807465943737353,0.176084184213129,0.240200379857477,0.158729585304193,0.41251227977901,0.159069541975471,0.0373827424194934,,,,,1.74484723470437,-96.8322370152764,2.41074104041112,AttemptLanding,AttemptLanding,1,0.477518540021431,0.157567847659442,0.178832007323165,0.897947712036228,0.329453517642581
46,1.70234965090011,2.42974090576172,-0.231854280069271,-1.66835087364173,1.70234965090011,-0.0036701550190946,-0.0081265073894865,0.0089168469884576,-0.0060522951628581,-0.146470344029869,0.146765838574252,0.0094751526435704,0.135058236259225,0.136153393388242,15.4063334089665,1.74409202423022,1.71990879192169,0.0268384101737896,0.0850634266224606,0.166730148623573,0.423989119871808,0.0121972455351927,0.0083540495192935,,,,,1.71876069037497,-96.5690723186371,1.72081594116941,AttemptLanding,AttemptLanding,1,0.481190585584343,0.16529778762508,0.107637506779523,0.95936364564334,0.325897711722856
47,1.68298149236383,2.4886462688446,-0.153464342253427,-1.66545026865414,1.68298149236383,-0.0360735819577995,-0.0371854140512332,0.0518078983691457,-0.0030726251549874,-0.155796132917621,0.15587236994923,0.0100525006529562,0.14099134519333,0.142654758479776,15.458062213835,0.710231687924664,0.671126187630036,0.175363041485649,0.242393355496912,0.228518451771033,0.495877466173959,0.135293483940934,0.0050281148758608,,,,,1.8330973949862,-93.5355183886098,1.86440962923084,AttemptLanding,AttemptLanding,1,0.477326016326311,0.190772689409184,0.176422456361996,0.901464953092103,0.298436243657319
48,1.69318190861393,2.44964718818665,-0.203218376801724,-1.6646557670689,1.69318190861393,-0.0510823414727165,-0.0074497540947779,0.0516227125053293,-0.0049573042559646,-0.147790281112736,0.147988842020683,0.0095444819458844,0.136093514845244,0.138498309315413,15.460268488166,0.921072084550102,0.548964824187056,0.176689013275367,0.240227970511837,0.119032157856785,0.364971027845309,0.159052729370753,0.0371803250754737,,,,,1.76093856199151,-95.8152911333806,1.53192478500644,AttemptLanding,AttemptLanding,1,0.479214837493463,0.179668851863172,0.192011531269723,0.900105203365096,0.347096818730318
49,2.62611090379415,3.0,-0.679964660012188,-2.50291673314977,2.62611090379415,0.0060227375876186,0.0014008792888801,0.006183512822929,-0.0332438407666761,-0.32620876630149,0.329363917476429,0.0212657794350256,0.198827069881983,0.201325145587618,15.4205669492416,1.96260615455516,1.84191788787482,0.0307120385534204,0.0527790177483456,0.131890281002819,0.406891989216499,0.0240592300799121,0.0115926991758828,,,,,3.0,-103.690253195533,1.58685316642129,AttemptLanding,AttemptLanding,1,0.740561270129297,0.0852586906638529,0.0660637325179876,0.954751291818483,0.34138209733208
50,1.66113524420841,2.2361261844635,-0.144876858922681,-1.6451448227565,1.66113524420841,-0.0387383333701683,-0.0189092258669089,0.0431070446120361,-0.0025023306571423,-0.142230554945869,0.142286540678915,0.0091788768717146,0.109975408031366,0.112354182343235,15.4301829566618,0.986716740920383,0.774925387947671,0.176197555621008,0.240168021725321,0.134328671870909,0.358446714924468,0.158611978346115,0.0367706968319354,,,,,1.72627812567413,-94.411640590645,1.84468402741173,AttemptLanding,AttemptLanding,1,0.465440234924224,0.137275919736268,0.166230926924374,0.898059748319818,0.340298368057374
51,1.5979773353886,2.20539593696594,-0.134079476023912,-1.58216545767561,1.5979773353886,-0.037658449581282,-0.0206350316922021,0.042941394455748,-0.002375021117235,-0.132192302881117,0.13225270025468,0.0085298583238227,0.110895945019791,0.113135227401273,15.418779388685,0.839040858471922,0.72773171191837,0.176610999670815,0.240147139058814,0.117607387199274,0.441959892235998,0.159080847483028,0.0367563611236676,,,,,1.64198518080473,-93.7945426045898,2.07960746799545,AttemptLanding,AttemptLanding,1,0.448754334917214,0.144541774338457,0.170793612983935,0.899384144254383,0.347730050133656
52,2.61557574096731,3.0,-0.640372292494566,-2.50486459707023,2.61557574096731,0.0044409846420384,0.0034132765358428,0.0056011428566817,-0.0301169472387577,-0.327396964490312,0.329992079283201,0.0213058880747682,0.197190845889419,0.199725621909476,15.4188881479548,1.93374000421633,1.8398246266231,0.0204142291467534,0.0473122716058419,0.128476463046635,0.367621354157483,0.0004877252757832,0.0078328980538555,,,,,3.0,-102.899260755177,2.21577992523771,AttemptLanding,AttemptLanding,1,0.737431988639844,0.0875223344727475,0.0555784940379239,0.960143449041456,0.342899349757051
53,1.71250155688943,2.54025459289551,-0.161493181945125,-1.68121110381741,1.71250155688943,-0.0665369037880292,-0.0356363309479738,0.0754791868605576,-0.0049042262744375,-0.153713231805611,0.153967240914949,0.0099323642811803,0.163167523376966,0.165750630237293,15.3867098180859,1.1214929144306,0.842804039231303,0.176478324082278,0.240214854897515,0.160659836586102,0.408471025665519,0.158205475167637,0.0344311068184125,,,,,1.76767167051157,-93.7767495596924,1.624210034787,AttemptLanding,AttemptLanding,1,0.48981720788464,0.200082284025803,0.202883317413854,0.896327076180089,0.328595628183955
54,2.69278270295523,3.0,-0.593507660773338,-2.59146155890693,2.69278270295523,-0.0307110829196891,-0.0082020699696907,0.0317874907139227,-0.0254634555245398,-0.344132870983314,0.346070569366672,0.0223366138109271,0.20065371078563,0.202708725361589,15.4043074116146,1.58386677692909,1.34931216823869,0.0631606879973566,0.240280794598018,0.120889158170887,0.403604131442193,0.0018528149867332,0.008394941503803,,,,,3.0,-101.106544404973,1.8312254416346,HoldLanding,HoldLanding,0,0.758617132527045,0.0749515984659596,0.0488471384083957,0.945373250003575,0.346271485257383
55,1.65346723392203,2.47563409805298,-0.162327134068972,-1.62852409160514,1.65346723392203,-0.0519174640181142,-0.0163678544585281,0.0544364742580537,-0.0038235950146807,-0.141271556261295,0.141420297059609,0.0091227501962152,0.13603203454598,0.138365719661661,15.4165592093025,0.944081504829415,0.831472746451297,0.176387811926166,0.240232398002941,0.147362155278007,0.432907845695143,0.15906685517827,0.0360925584606931,,,,,1.6954412846166,-94.4207914550518,1.85118477874412,AttemptLanding,AttemptLanding,1,0.468597739644874,0.194967564710107,0.200801485618274,0.897855310633997,0.33450570876533
56,1.7014403472776,2.48672962188721,-0.104749217928226,-1.68247554173583,1.7014403472776,0.0022902734200929,0.0040975857461262,0.0046942050749451,-0.0022953810824473,-0.150178894891754,0.150259269245065,0.009704178446453,0.143771971560387,0.144985836703364,15.384317540899,2.12649275456021,2.05315739335695,0.0170019569315,0.0670912175984071,0.143991009871081,0.448741836052599,0.0002334570957841,0.0086981135211605,,,,,1.73280982852964,-92.1431804697514,2.37952689812534,AttemptLanding,AttemptLanding,1,0.482714593281366,0.177550691050902,0.109797123711109,0.958658913229187,0.336003995612853
57,1.60162931439039,2.33693528175354,-0.200081258371504,-1.57556422247492,1.60162931439039,-0.0399132845237027,-0.0081723624780166,0.0407413523332515,-0.0044000032172357,-0.132640439604619,0.132810837569863,0.0085674663018524,0.132410284173827,0.134540645939589,15.3870087649399,1.05873909763661,0.801713557289413,0.176963802343481,0.24019407170008,0.138805454775043,0.410482406376772,0.157294813946709,0.0356746567741329,,,,,1.65239533729994,-95.8334835366937,2.29327918617294,AttemptLanding,AttemptLanding,1,0.454009279692022,0.172913090584472,0.186629263012542,0.896900256539555,0.338308686766648
58,1.62540657898864,2.40321922302246,-0.105188438847704,-1.60007715689515,1.62540657898864,-0.0610281147654148,-0.0243050690611084,0.0656899320587706,-0.002591800698542,-0.13963279848511,0.139776055583464,0.0090173556118666,0.167115564694672,0.16943922619768,15.4000371919955,1.09011527860695,0.839087207756817,0.176829996869341,0.240214474813358,0.164039211827042,0.418009802018776,0.156192443551305,0.0427564599651352,,,,,1.68060545220575,-92.4282145747537,1.70611350430584,AttemptLanding,AttemptLanding,1,0.467329599636507,0.187050999118384,0.197197266895296,0.896426982029614,0.327093683632426
59,2.52749090449866,3.0,-0.517340646776663,-2.44157425498194,2.52749090449866,0.005680631068813,0.0066006029267823,0.0087084745126233,-0.02303800856678,-0.312705129259074,0.314434354423434,0.0203118534136636,0.208503524157386,0.210996669400778,15.3374149302116,2.25670123281953,2.1007369979447,0.0146833865971872,0.0739330225172087,0.136303147042875,0.481618810874245,1.49402006932931e-06,0.0077574275771305,,,,,2.78982386220964,-100.41262924442,2.47884227280574,AttemptLanding,AttemptLanding,1,0.716196908413131,0.107911100148449,0.0675682068533096,0.958421292031116,0.3394208235365
60,1.66372080711094,2.34713864326477,-0.0714165345205509,-1.65134348128812,1.66372080711094,-0.0420721997641207,-0.0154785166373837,0.0448291698594324,-0.0011680913207397,-0.144148792196173,0.144184220934679,0.0093014681465706,0.114431557906842,0.116773485712272,15.4143500442357,1.14268808867551,0.761239056899959,0.176531450332382,0.240159024750474,0.148717654196848,0.394384660510585,0.158675524162743,0.0362595195544163,,,,,1.72864210057146,-91.9462754292346,1.66161850706912,AttemptLanding,AttemptLanding,1,0.467013579038705,0.161987694275508,0.180900351586715,0.896774847261431,0.333903264801401
61,1.61522481852287,2.25519037246704,-0.196854134625348,-1.5869795104282,1.61522481852287,-0.0485278582911915,-0.0146076464944259,0.0506787565596875,-0.0046654670616092,-0.134241176270712,0.13444863013716,0.00867525022317,0.131374676897903,0.133545029143207,15.371207244546,1.14789781873913,0.967837190438915,0.177025925757102,0.240213148236535,0.142614349365589,0.457018464337059,0.156766958160367,0.0392638333218159,,,,,1.6541677253945,-95.777639022521,1.84993877015756,AttemptLanding,AttemptLanding,1,0.457435624101406,0.153283355006715,0.175921974202428,0.894863404906478,0.336615844726405
62,2.60238007279144,3.0,-0.536239205502247,-2.51448126451449,2.60238007279144,0.0054817862249958,0.0078970004704376,0.0096131470729748,-0.0239533250325432,-0.329619659757743,0.331342770040803,0.0213922181587625,0.201136398512536,0.203760083569846,15.4166877138736,1.97134478789986,1.74750619123112,0.0293129478835066,0.0465351024843257,0.133262464134885,0.41036339642478,0.0226311677525321,0.0064044398988538,,,,,2.96888331606625,-100.576107342626,1.74690190202523,AttemptLanding,AttemptLanding,1,0.73472003612502,0.0912268939186378,0.0671233203660327,0.956123982650789,0.340772238162273
63,1.55103136115783,2.32439041137695,-0.0723428513511559,-1.53893434666084,1.55103136115783,-0.0354227630320002,-0.0140345002983924,0.038101697330261,-0.0012242708314959,-0.125434122202321,0.125469307186658,0.0080925453251204,0.11171041853195,0.113825375282159,15.4420548278449,0.946825892650019,0.649889940523629,0.175977790863466,0.2401754969701,0.123553520472672,0.393688895301326,0.155441801100869,0.0405870621302141,,,,,1.60300708299886,-92.1234906695166,2.13410005081606,AttemptLanding,AttemptLanding,1,0.436373438031853,0.180991097476517,0.192438835103344,0.89946548016476,0.345087324234368
64,2.67570654541613,3.0,-0.618971552946744,-2.56937225675023,2.67570654541613,-0.0246877974945317,-0.0100997104757275,0.0266737979452594,-0.0283257315741864,-0.338209717494807,0.340594199353935,0.021989134309433,0.205778119844567,0.207789281350658,15.3930417620971,1.85837553670126,1.58373967239416,0.0626334339958426,0.24028370366889,0.127536170587687,0.407063826797286,0.0018934490398907,0.0084002324980054,,,,,3.0,-102.201792877698,2.01328051198446,HoldLanding,HoldLanding,0,0.755079601714433,0.0778562235713347,0.0506098970486936,0.941638092073472,0.343317257516583
65,1.51220091855204,2.10967612266541,-0.123354434338483,-1.49737189457232,1.51220091855204,-0.0382508309422866,-0.0201211257987641,0.0432202009618775,-0.002081651334986,-0.118103275205887,0.118158073330535,0.0076209514496913,0.110157212289348,0.112121004974323,15.4593481419461,0.864016925629592,0.67393658330202,0.177164162573778,0.240162434467015,0.151645414330949,0.400597092881653,0.158936451675192,0.0369906530355148,,,,,1.55228808798252,-94.2268777224065,2.02746473036583,AttemptLanding,AttemptLanding,1,0.425677779275408,0.142355624435185,0.169502944186232,0.899333998285791,0.332602038075134
66,1.57780892234981,2.16553544998169,-0.114164374281294,-1.5637642443673,1.57780892234981,0.0010758134808238,0.0017483741612128,0.002052848473005,-0.0019747451554825,-0.127945256532289,0.127993521495399,0.0082631985227525,0.10551440755806,0.106577179117403,15.3888676048062,1.68520197404416,1.76772167777186,0.0293605268732801,0.0496527274186528,0.123481245044905,0.409918457804416,0.0187353345085746,0.0056598757136272,,,,,1.60696450398557,-93.5145725727472,1.76986543477792,AttemptLanding,AttemptLanding,1,0.44206448178343,0.132614824270557,0.0899538465226159,0.958189622156234,0.345119446646709
67,1.65529148361167,2.66698479652405,-0.116499551667836,-1.62715015005081,1.65529148361167,-0.0651642320417053,-0.0318271255108912,0.0725213282825903,-0.0033550450040344,-0.144716272661156,0.144901132541171,0.0093465100784477,0.1761654460203,0.17855624136878,15.4083797325991,0.976491060099369,0.679320002858191,0.175899908359946,0.240198178872157,0.13185738585692,0.367430079862565,0.15884256185615,0.0361716724614124,,,,,1.70472744872138,-93.0615211949791,1.57336888258569,AttemptLanding,AttemptLanding,1,0.477122310570202,0.240926572257092,0.228305972953058,0.899040101753932,0.341396717396925
68,1.60602016336966,2.11803245544434,-0.124822225163617,-1.58985628753523,1.60602016336966,-0.0401814636318994,-0.0048045100849862,0.0404676826215487,-0.0024146790760446,-0.133770548860766,0.133841290005823,0.0086330379237717,0.117235567946639,0.119452875615437,15.4380121396051,0.910868775114068,0.745626270403476,0.175871083618064,0.240184051248496,0.146123632224409,0.441171449110763,0.156384073988259,0.03970891052166,,,,,1.6346567991892,-94.1375227104005,2.06038263490902,AttemptLanding,AttemptLanding,1,0.45216261868833,0.122621840864086,0.15751674122818,0.899049139976187,0.335056163455818
69,2.60971739539335,3.0,-0.395802143869971,-2.54948563449622,2.60971739539335,0.0083963086645143,0.0027945250195747,0.0088491451154802,-0.0160953345055572,-0.338429000730999,0.339288926544729,0.0219073798677543,0.191552560762006,0.194243691452534,15.3683569164339,1.88458832676167,1.92539617989175,0.0284352256719929,0.0519107825197138,0.125817304722801,0.419943877551124,0.0117186244538168,0.0063378966268046,,,,,2.97762147861884,-97.4745863886534,1.87818360986385,AttemptLanding,AttemptLanding,1,0.734773377062066,0.0894359293076686,0.0611745248021053,0.955846794611727,0.344081197900977
70,1.62435560283207,2.51655626296997,-0.0887093100236329,-1.60635480717927,1.62435560283207,-0.0525262657072209,-0.0222770802460332,0.0570550339009081,-0.0018976389106071,-0.144723652007887,0.144795413917135,0.0093383431537394,0.145416419811944,0.146686559134305,15.4688073840175,0.836354439525132,0.613713103592435,0.173388958850621,0.242409644728943,0.241521394846869,0.547352551551226,0.138453328766074,0.0047517441528821,,,,,1.74106956136438,-91.9626622500687,1.65723204559157,AttemptLanding,AttemptLanding,1,0.462498805915412,0.211205238079528,0.189985862597323,0.901912132735908,0.292657157845836
71,1.58150036381437,2.36689305305481,-0.232608438637361,-1.54831288842092,1.58150036381437,-0.022240425124053,-0.0337968919658026,0.0404582057961885,-0.0056958810059742,-0.13583814978004,0.136086695503016,0.0087764204354536,0.132004195818881,0.13369354687259,15.4649601089865,0.624149261572313,0.673070865592842,0.155163048761702,0.241229570598994,0.218953625475364,0.476215164623206,0.196922938828602,0.0455154734931758,,,,,1.67774962146967,-95.9395937551425,1.62048972137257,AttemptLanding,AttemptLanding,1,0.448472139725016,0.184130692808401,0.214550803101332,0.912226031762852,0.302687277566505
72,2.61604269770874,3.0,-0.616137937236178,-2.50999690952596,2.61604269770874,0.0073297326271777,0.0019531480552391,0.0075854971960708,-0.0287465901800113,-0.327849932486144,0.33020037233174,0.0213265074578819,0.197232532192026,0.199812569233344,15.3527481057564,2.16919617169152,1.9653268056585,0.0302797879368519,0.0705311901196631,0.14267431633741,0.45623365987076,0.0230841407528897,0.0078035281407869,,,,,3.0,-102.28205700878,1.68656480758353,AttemptLanding,AttemptLanding,1,0.737573899902333,0.0877810675014793,0.0657659052099328,0.952374568352395,0.336589192738929
73,1.63101037370192,2.69824266433716,-0.16986246370595,-1.60311204782783,1.63101037370192,-0.0556418798640493,-0.0342808816921518,0.0653544003445568,-0.0043536294738589,-0.141109684978261,0.141299070539673,0.0091146404127101,0.168066679032507,0.170378897954176,15.3961030156899,1.04483169102886,0.783389836361869,0.176878584794196,0.240225531217794,0.15578907239684,0.405193293846121,0.158733124880459,0.0366642459689459,,,,,1.730743683828,-94.7490683234343,2.03572153647565,AttemptLanding,AttemptLanding,1,0.469011879244681,0.252108905456097,0.235145851855701,0.897196109887689,0.330760412268071
74,2.68701564713222,3.0,-0.618965143652119,-2.57722553102683,2.68701564713222,-0.0334461341092941,-0.0082364577953847,0.034445364330662,-0.0266466979243909,-0.341076634216689,0.343205078807449,0.0221543652837342,0.198863585584152,0.200933217155829,15.4107908959437,1.73916079995092,1.39491389228765,0.0634228029129349,0.240295499788004,0.134552920100618,0.424519167654938,0.001853157266635,0.0092290833564676,,,,,3.0,-101.440236798872,1.72416167736558,HoldLanding,HoldLanding,0,0.756724149333092,0.0767364628558714,0.0502215334768034,0.943663725961658,0.340198702177503
75,1.67684844055691,2.43076014518738,-0.165093784068605,-1.65838391847442,1.67684844055691,-0.0412893912479695,-0.0095443533614859,0.0423781607755317,-0.0031320298790193,-0.145604549209016,0.145687247152522,0.0093994508969408,0.113693813344037,0.116093753098471,15.4003961984748,1.20124763441568,0.807937701872199,0.177943015435098,0.240188662992425,0.168361833759661,0.478264224870678,0.159080220857224,0.0372059211187753,,,,,1.72844746755899,-95.0560971705178,1.62820617308286,AttemptLanding,AttemptLanding,1,0.470378334768204,0.177399463017369,0.190671424052782,0.895242036068761,0.325172518329039
76,1.7617691388497,2.66921925544739,-0.233450085703287,-1.72876249859874,1.7617691388497,0.0054102718669152,0.0038181585706563,0.0066218861772618,-0.0060776867930915,-0.158364967667165,0.158625784413275,0.0102416391546894,0.147697392091074,0.149006916261101,15.3705183481204,1.74648114524678,1.99158437737389,0.017184493639475,0.0590625766425959,0.128214044336691,0.394854943533519,0.0003986332171724,0.0056411096049444,,,,,1.80133462105751,-96.2777836497926,2.35806937621182,AttemptLanding,AttemptLanding,1,0.499606486945473,0.205390288700311,0.125462656122546,0.962037238359672,0.343015980294804
77,1.69974858248794,2.53629112243652,-0.151107420170641,-1.66514276285923,1.69974858248794,-0.0756934705399616,-0.0281702602874361,0.0807654941608478,-0.0047236474959989,-0.151355065312573,0.151636290729675,0.0097799040010415,0.17523447631712,0.177669614474151,15.4491855170839,0.858055145340527,0.590753318316478,0.175623823382608,0.240229038980724,0.130006531417118,0.375396015587782,0.155505413237164,0.040023537674249,,,,,1.75923009576763,-93.8331549635916,1.72815647437183,AttemptLanding,AttemptLanding,1,0.48880021155828,0.203029078751254,0.205484977944774,0.900804593237105,0.34221931937017
78,1.7728782996938,2.82998085021973,-0.217518465236112,-1.73566025425368,1.7728782996938,-0.0732703482161098,-0.0413433600717801,0.0841297649452015,-0.0067118999476871,-0.164699663338815,0.165042332794044,0.0106480066348183,0.18396937315366,0.186679601947966,15.3699709073476,1.17038705725707,0.878534332693309,0.175705989231474,0.240265853159166,0.172581006256032,0.410893643971108,0.158289664507054,0.0362640453619882,,,,,1.84421771642335,-95.6415120879709,2.02066872148836,AttemptLanding,AttemptLanding,1,0.510103466974607,0.253271864108286,0.235501006054284,0.896048337320367,0.323297330552875
79,2.61538781170861,3.0,-0.412117175412573,-2.55052424988526,2.61538781170861,0.0066240128489989,0.0030547916351876,0.0072944703822906,-0.0172565879372683,-0.339694899941281,0.340681499617035,0.0220025021975963,0.197946827765709,0.200608003436498,15.3899508966039,2.1763799235919,2.02306373325166,0.0184229571009942,0.0558348982822174,0.139251574158147,0.398340468277533,0.0001717253381886,0.0059965556049617,,,,,3.0,-97.5958361626102,2.30097248748703,AttemptLanding,AttemptLanding,1,0.737558350476262,0.0878750619356494,0.0549819252084495,0.957792892717161,0.338110411485268
80,1.79899158348908,2.5383312702179,-0.220117198915203,-1.77390669115625,1.79899158348908,-0.0454004065609609,-0.0103867984551297,0.0465734097747634,-0.0047677722848234,-0.166436134674121,0.16658896033527,0.0107450543652209,0.13012522963943,0.132900848860539,15.436104307531,1.00309378810397,0.667616766413726,0.176724055960763,0.2402813082676,0.128833155213006,0.397243545131652,0.158380376328165,0.0362150137917252,,,,,1.84269174465958,-96.4089816842801,2.21698699825453,AttemptLanding,AttemptLanding,1,0.50631125870253,0.174889887972689,0.188494307075951,0.898510960519837,0.342740819905331
81,1.84942816407889,2.5614218711853,-0.192005365052464,-1.82559951088896,1.84942816407889,-0.0532019797052209,-0.0232275918652177,0.0580514570739776,-0.0043273532671726,-0.176049078187255,0.176183332654092,0.0113650469636301,0.132455396635265,0.135312486001495,15.4290136441714,1.05770628816766,0.788500060121301,0.175722230461265,0.240246522765825,0.155717198244294,0.442533475773844,0.154654396198285,0.0385100479287957,,,,,1.90149022471625,-95.3637271300002,2.10157095977312,AttemptLanding,AttemptLanding,1,0.520243340954668,0.170841351229173,0.185243751729031,0.897632977747097,0.33079235633587
82,2.57657317931835,3.0,-0.401111185688571,-2.51342167086391,2.57657317931835,0.0062027483936253,0.0076053532503266,0.0098140453278388,-0.0166223041891664,-0.329823146455925,0.330776598783954,0.0213546518457952,0.199967138738201,0.202605617168901,15.407717967587,1.88028277725853,1.65428945795124,0.0290339923339865,0.0493352227988134,0.127890420572441,0.365569027718151,0.0212867868422531,0.0056660463530711,,,,,2.91783086718893,-97.7855854258006,1.67056341657216,AttemptLanding,AttemptLanding,1,0.727607304585341,0.0970702762968073,0.0697633404222227,0.957711364842073,0.343159813078915
83,1.68816593490742,2.374267578125,-0.311772841752207,-1.64205296975813,1.68816593490742,-0.0471983660708759,-0.0148345097121964,0.0494747252459441,-0.0083953958405507,-0.143579688579011,0.144084495642876,0.0092936919641799,0.136752638359414,0.139039167194198,15.4271842717136,1.01775159634827,0.617406003305862,0.176507971867779,0.240215794076084,0.139651987914145,0.334659198446782,0.157941048791011,0.0348426910214479,,,,,1.75027764965131,-99.5200046041142,2.33381078359934,AttemptLanding,AttemptLanding,1,0.477985416080819,0.163443236019045,0.180932032758665,0.898898347211685,0.337932449815936
84,2.67151257214465,3.0,-0.4569445636942,-2.59743930773631,2.67151257214465,-0.028327896335045,-0.0113172135405042,0.0305049017879164,-0.01820441432217,-0.34516095848383,0.346258001218224,0.0223502411621531,0.20246629587541,0.204608814174803,15.4154879362692,1.66228761689387,1.40751494399745,0.0631185235838407,0.240257744877819,0.126107332806697,0.447388596488289,0.0018387137617008,0.0087571244658745,,,,,2.95681470906161,-98.270421652992,1.77156097462537,HoldLanding,HoldLanding,0,0.753325115406867,0.0795022365952385,0.0517029569701362,0.944320860943934,0.343952296530357
85,2.01917268925865,3.0,-0.444541008076908,-1.94046942543763,2.01917268925865,-0.091523480953196,-0.0357009918661231,0.0982400548962337,-0.0178766950518595,-0.205020458612253,0.206592367775361,0.0133227314675727,0.210730218717061,0.213851542291497,15.4586358634872,0.90727583378226,0.56038333371969,0.17477764861204,0.240339466196666,0.154472673590431,0.425125069853609,0.155817646882185,0.041582187402717,,,,,2.10680641889481,-101.731697741666,1.67496602838204,AttemptLanding,AttemptLanding,1,0.581216358927273,0.238696821647779,0.227591175911031,0.901079567949322,0.331345478404253
86,1.95521869029488,2.98345804214478,-0.554290253057734,-1.84722327982221,1.95521869029488,0.006537340670424,0.0092196957591981,0.0113021950493414,-0.0230361043623182,-0.184791724869329,0.187421454354445,0.0121031606833299,0.208635766996326,0.210066819390886,15.3770608415909,1.98455040260764,1.91292685763972,0.0198315386847915,0.0662942499263032,0.136885805843195,0.484985922075268,9.30763411218869e-07,0.0068600292838002,,,,,2.01104491577433,-105.279667622794,2.24410835699545,AttemptLanding,AttemptLanding,1,0.56340501462348,0.233425923258605,0.14255052373099,0.959461195041375,0.339161864069691
87,1.99339231708706,2.74920773506165,-1.13188544350723,-1.62484556842648,1.99339231708706,-0.0637821332449742,-0.0060075426589141,0.064064429210587,-0.0702607497769954,-0.141012951523001,0.160516779263484,0.0103537670443258,0.143765849566447,0.146217608115778,15.4638069735877,0.91339848697272,1.00551750471356,0.175650879231909,0.240284633462078,0.163366155173686,0.38414497758569,0.153547938329461,0.0424946407082247,,,,,2.06469467336038,-124.238920485483,1.57049983812386,AttemptLanding,AttemptLanding,1,0.560814806179704,0.181803614399556,0.192778293407333,0.89709736330651,0.327392819922806
88,1.93856454217756,2.8150475025177,-1.10577215484854,-1.56155434716245,1.93856454217756,-0.0690921954280094,0.0126549880232874,0.0702415844847751,-0.0707741485256334,-0.134048689467726,0.15752703394646,0.0101615923458183,0.188996174755126,0.19148962341199,15.4200810626587,0.896948998917946,1.06478501145016,0.177518855885672,0.240285001698355,0.162631155894118,0.468508897153948,0.158467677857467,0.0360284180668659,,,,,2.00959748573364,-123.70580417537,2.0102084893672,AttemptLanding,AttemptLanding,1,0.555248469263081,0.21008628989874,0.209583095920413,0.895826947689986,0.327719486269281
89,2.61806288889818,3.0,-0.23999515667569,-2.57629158427004,2.61806288889818,0.0057808270634092,0.0055148027684779,0.0079894312133127,-0.009167934803811,-0.345254839176434,0.345646497542426,0.0223275810311638,0.197049085039575,0.19983165097942,15.3691387542208,2.20315104999666,2.20263985981055,0.021110472167275,0.0709237486921479,0.147491972182031,0.503300962757129,7.97933876364707e-05,0.0111888058452188,,,,,3.0,-94.0907171926139,2.21449726724778,AttemptLanding,AttemptLanding,1,0.738116433902065,0.0874005790536836,0.0565444678310372,0.954827835339306,0.334448012363542
90,1.94370503313589,2.73387432098389,-1.05909007153582,-1.60930924680701,1.94370503313589,-0.0648215631150664,0.0066714067086258,0.0651639678975462,-0.0624345533882024,-0.137709043163663,0.154627521689717,0.0099730499264519,0.149519755454915,0.151947661527513,15.4597173043932,0.889378259742339,0.825298554811944,0.175419569809644,0.240272144918746,0.149211549097759,0.346223275884394,0.155394131958453,0.0419737936832715,,,,,1.99637079272466,-122.311062912018,1.50958864208255,AttemptLanding,AttemptLanding,1,0.548710874475074,0.189734817213682,0.198168146679418,0.898817754409394,0.333683755956551
91,1.88794357631658,2.77769708633423,-1.14282085662634,-1.47844889112511,1.88794357631658,-0.0670814494373256,0.00186450707273,0.0671073561186606,-0.072393367916095,-0.117479676216932,0.142755809747695,0.0092071068529645,0.152332182559906,0.154633927232411,15.4604062898468,0.772857372779077,0.940520332226366,0.176044902521795,0.240265746395704,0.14534403645019,0.438155716367788,0.158755131585811,0.0365038096081649,,,,,1.94546366280019,-126.251978914843,1.55316798662328,AttemptLanding,AttemptLanding,1,0.534378405797569,0.212497555042393,0.211330481870584,0.898515295342631,0.335402650466582
92,2.6100980119163,3.0,-0.477285028800847,-2.53485670221545,2.6100980119163,0.0080395759089941,0.0085266622834927,0.0117191616804795,-0.0203742694104659,-0.335396733306246,0.336675354725355,0.0217390897166875,0.194286010713588,0.196918029832853,15.4115905415861,1.88860167062752,1.8471689397815,0.0287113978742858,0.0537094055511815,0.132762317974089,0.440569768774005,0.0215209610533394,0.0072876315922243,,,,,3.0,-99.2513675644137,1.7464454188656,AttemptLanding,AttemptLanding,1,0.735409742477583,0.0898764602935876,0.0661407956071324,0.956291817695358,0.340994525344849
93,1.72011869864644,2.71219635009766,-1.0795809140374,-1.31087046720349,1.72011869864644,-0.0357801396935759,0.0544067115665339,0.065117652445215,-0.0675979961425319,-0.0945716979994561,0.121510428337289,0.0078359114753521,0.185695638160511,0.1870149597019,15.4544582846678,0.620814245695302,0.723828190481622,0.15924005687775,0.241490849686891,0.144722647637823,0.36364911707425,0.152322291358589,0.0045206430292851,,,,,1.74681180591764,-126.657123786368,2.18792397319985,AttemptLanding,AttemptLanding,1,0.49610131157943,0.235155707858147,0.210436091066728,0.909814923848306,0.335678823272079
94,2.5213923851649,3.0,-0.265139386894837,-2.47409380538161,2.5213923851649,-0.0199698622308791,-0.0074762705113262,0.0213234616861057,-0.0094454207686517,-0.331738555006769,0.332200067467588,0.0214297788991652,0.203218016678695,0.204511814486505,15.4478753428004,1.20286917952747,0.787103897666596,0.064841340316848,0.240345754184309,0.190717806312114,0.659217026723778,0.0018647629582279,0.0096703590817095,,,,,3.0,-94.2734617915732,1.62759803022011,HoldLanding,HoldLanding,0,0.71327366560794,0.111596014647018,0.0713028865367316,0.951943827092194,0.315236530527949
95,1.82363332203917,2.51818060874939,-1.1583530050779,-1.39283139130889,1.82363332203917,-0.047333820092651,0.0130261138055279,0.0490934839407229,-0.0722435592557978,-0.102864115641906,0.128730426227316,0.008305349561953,0.122823387231311,0.124923539687269,15.3549369038476,1.09701404145212,1.07416134481667,0.176727528350277,0.240210342725283,0.153940745738755,0.483354640976299,0.159175195473438,0.0366486280632589,,,,,1.86493072097439,-128.583435678336,1.71103347344553,AttemptLanding,AttemptLanding,1,0.511286927147898,0.165273611565599,0.183235472102073,0.894577000647035,0.331581890782776
96,1.72472967631043,2.66445326805115,-1.06051644970812,-1.33100608067206,1.72472967631043,0.0070615173307827,0.004296122130077,0.0082656937016491,-0.0641606221427605,-0.0969955063785632,0.121648796623765,0.0078545248021202,0.182986635813206,0.183886449257111,15.4130795779789,1.82302696770332,1.69599810074125,0.0281714815934701,0.049322961396806,0.12829011798271,0.455676961517728,0.0211680966457039,0.0047624647573888,,,,,1.76269102467469,-127.19753908103,1.64694405350956,AttemptLanding,AttemptLanding,1,0.496705203534205,0.212953185320296,0.138911759512147,0.958264776522629,0.342982169785462
97,1.78197251381101,2.5677182674408,-1.09876694733504,-1.38864819228081,1.78197251381101,-0.0447775966493548,0.0061987539631524,0.0452046204760974,-0.0652946054913761,-0.102151605060461,0.123933135084096,0.0079966468474268,0.114473461460036,0.116434581723436,15.3883461343266,1.13644976398104,1.1517924118399,0.176301008004851,0.240211519230987,0.148617305320669,0.454424919808522,0.155971178953909,0.0431902890058815,,,,,1.81622668042125,-127.513201967813,2.47043913405896,AttemptLanding,AttemptLanding,1,0.498479586694289,0.185080308320653,0.19607426861041,0.89387045033041,0.333947864301925
98,1.85018942726625,2.78391981124878,-1.1802107645761,-1.39221829678723,1.85018942726625,-0.0790515133632761,0.0107541035095456,0.0797796497066655,-0.0801589521823814,-0.108147569189918,0.141456012147394,0.0091231285501342,0.193413426494311,0.195673853810009,15.4136954966731,0.814213571074765,0.955118505762515,0.177037036249377,0.240280352001824,0.133540972014425,0.483217906426781,0.157788924623315,0.0360725934340305,,,,,1.91962505408224,-128.853168090004,2.34026990352375,AttemptLanding,AttemptLanding,1,0.532518618033002,0.224715605508958,0.218075080952354,0.897579586985876,0.340648456882478
99,2.62559006844077,3.0,-0.160621200274103,-2.58860884544163,2.62559006844077,0.004034787217285,0.0027024497474233,0.0048562065983764,-0.0058851074628403,-0.348207854684623,0.348494778187923,0.0224983534663862,0.195696080693213,0.198587475056597,15.3900044892142,2.01531544015521,1.64117313326479,0.0241715716613569,0.0565177059508054,0.129669174385253,0.428403901621644,0.0076677597580043,0.0072144297066907,,,,,3.0,-92.2002194325483,2.05539824676355,AttemptLanding,AttemptLanding,1,0.739874846595525,0.085132539143862,0.0571108456963481,0.95918466109245,0.342369255828776
100,1.64465124301008,2.25940585136414,-1.02935429191834,-1.26865829583096,1.64465124301008,-0.0414506066990097,0.0128685455621493,0.043402214927364,-0.0577072616791384,-0.0863006666419204,0.106310585745754,0.0068572255999278,0.110730144825898,0.112378707115051,15.4547092577763,0.824570010012851,0.965917678498325,0.176803821351119,0.240187348778186,0.148819405064813,0.358598345838403,0.158413817441582,0.034040337190443,,,,,1.68546986904653,-128.540481584722,1.77000847247576,AttemptLanding,AttemptLanding,1,0.461049406225699,0.146276859616345,0.170550561287843,0.897529971771853,0.333858042193416
101,1.63748836597881,2.25949716567993,-1.05546836387702,-1.23704961145586,1.63748836597881,-0.0346465172720047,0.0156748216707308,0.0380273742649757,-0.0607860421190266,-0.0825051416602456,0.105179207960899,0.0067827732095671,0.114796133616883,0.116477943101495,15.467510348286,0.672834403701548,0.719471947764614,0.175914393082472,0.240186603006672,0.112293153487844,0.418767148127734,0.159040605537874,0.0361220517022794,,,,,1.69807149429304,-129.55767099295,2.24145976799698,AttemptLanding,AttemptLanding,1,0.459959152881314,0.146923665214665,0.171974204229289,0.901103253554387,0.350091931783181
102,2.61841891362117,3.0,-0.150297343469455,-2.58161526717655,2.61841891362117,0.0023983762953494,0.0087561836389454,0.0090787092019202,-0.0054489894008594,-0.346648686483312,0.346921169539872,0.022401163666966,0.194999473302846,0.197910261225804,15.3690226325384,1.91797986478164,1.89910571451252,0.0269685296261369,0.0588702176786665,0.127920199383817,0.473530488646498,0.0144296357681269,0.0055406799381007,,,,,3.0,-91.8482151525671,1.89971350919037,AttemptLanding,AttemptLanding,1,0.737827095877473,0.087520174455589,0.0609400688306182,0.956524348492477,0.343146578051637
103,1.70880960138052,2.29725527763367,-1.08776102405342,-1.30349305552618,1.70880960138052,-0.0392859577218802,0.0138847528128015,0.0416674073443256,-0.0637254486941162,-0.0899159209071098,0.112816308314206,0.0072759458894792,0.109668003568317,0.111517824882244,15.4682946022536,0.793110446517344,0.847196856245931,0.175226047509088,0.240169164756065,0.135848043293234,0.371783783963889,0.155785332146617,0.0402404481069868,,,,,1.75398132014352,-128.600052606655,2.27954551443216,AttemptLanding,AttemptLanding,1,0.477986125344588,0.140039301836751,0.167894396721269,0.89949884743803,0.339623091869674
104,2.62069534431405,3.0,-0.320706161088403,-2.5702738464584,2.62069534431405,-0.0090895737537268,0.0100306898484696,0.0135364356409149,-0.0138569421393313,-0.34833175241719,0.349030310864708,0.0225316285186315,0.197138383312784,0.199154607341306,15.3893043472594,1.71289572759189,1.54143559057454,0.0629281272429819,0.240483472002393,0.135193075339502,0.423968817132906,0.0019022406982914,0.0090699609601651,,,,,3.0,-96.2939600424606,2.44686103504912,HoldLanding,HoldLanding,0,0.738683013285341,0.0878252273968403,0.0568387443703341,0.942966190307201,0.339914188737999
105,1.73777101863951,2.54929351806641,-1.11143137927948,-1.30136411309516,1.73777101863951,-0.087611277729302,0.0134400259838473,0.0886361680343153,-0.0713308901884057,-0.094648838082575,0.125277903559493,0.0080836002753096,0.182700056705797,0.184661486262783,15.3675445962267,1.0869251897752,1.18100451766406,0.176485943850222,0.240225251778969,0.146352485384881,0.410344144483231,0.155028770232923,0.0413059715020127,,,,,1.78074250763471,-129.221424924807,1.51675868704379,AttemptLanding,AttemptLanding,1,0.500337902223092,0.198842526510677,0.203227544838942,0.89393758037358,0.334954450940053
106,1.84891334544855,2.66504526138306,-1.07907364975795,-1.48679760388417,1.84891334544855,0.0037345817881869,0.0020955702047045,0.0042823493103088,-0.0632422769890356,-0.116617877633816,0.135305791729525,0.0087377446624365,0.131590216910717,0.132661163913767,15.4086156554115,2.12383882367115,1.91478581498095,0.0218239117147592,0.0495653585084731,0.140423046928836,0.496996823835817,0.0004750432543494,0.0056040489390708,,,,,1.88415857146299,-124.959215831678,2.1726511790687,AttemptLanding,AttemptLanding,1,0.519575791569033,0.184414778458821,0.112897833388403,0.957355993410354,0.337589756920517
107,1.67920540474557,2.57158303260803,-1.02567751274546,-1.3092544442883,1.67920540474557,-0.0657354239412873,-0.0113301071841066,0.0667047021546765,-0.0584406672273899,-0.0920299477388752,0.112526405511261,0.0072599697280661,0.140401784095969,0.142273020178766,15.3766449230272,1.03083397508016,1.09104205972095,0.176688834669723,0.240194127465979,0.15095927691171,0.460866769186573,0.158823079689182,0.0361967207239867,,,,,1.72726488943798,-126.550224489005,1.70376744536089,AttemptLanding,AttemptLanding,1,0.476242711967904,0.213014161664079,0.211558976315493,0.894983699534558,0.33290698803924
108,1.67955778821095,2.59497690200806,-1.02514436633128,-1.30071593360613,1.67955778821095,-0.0701870495653741,0.009475854479055,0.0708238218737207,-0.0611554223175485,-0.0941566355212562,0.117653362238657,0.0075893921246496,0.180467298612489,0.182366785051136,15.4390454807783,1.0102030964577,0.938204785611557,0.176605064751734,0.240216082825993,0.147389970052375,0.449171521643065,0.158713780375346,0.0357084756765527,,,,,1.72684939224008,-126.925173742408,2.23853240697098,AttemptLanding,AttemptLanding,1,0.48435543386648,0.218953667947865,0.214896558959337,0.896388548550732,0.334493346643389
109,2.61651683092915,3.0,-0.302093921162593,-2.56722689143188,2.61651683092915,0.0087751614164613,0.0071962013399009,0.0113485140705444,-0.0119840480524078,-0.343118583565769,0.343681850124832,0.0221924422976502,0.198007611971267,0.20073311079566,15.3874817811246,2.05459852950756,1.64699808625977,0.0283712530205156,0.0697721979130696,0.133404503934551,0.496853226505302,0.0222898517855549,0.0064494024262119,,,,,3.0,-95.4171668207032,1.59299773285742,AttemptLanding,AttemptLanding,1,0.737884443740238,0.088364273953875,0.0652704024118002,0.956730400080142,0.340709109362422
110,1.6142452270598,2.39711761474609,-0.940397617096386,-1.29882666789768,1.6142452270598,-0.0378344116187029,0.0088553721598767,0.038856921116107,-0.0479134759748863,-0.0894989616719699,0.103617514646761,0.0066846594786107,0.109629117133396,0.111321986893715,15.3898863135486,0.996623330858079,1.04873386988359,0.175789484118309,0.240163347765589,0.163825269626839,0.410751233312567,0.157570134528304,0.0361567735432228,,,,,1.65985778043302,-125.136897277648,1.95212072142455,AttemptLanding,AttemptLanding,1,0.452729791261357,0.183270056100702,0.193141122213971,0.896034594220732,0.327188769054738
111,1.53960084472154,2.39601469039917,-0.930741381647427,-1.19958650686993,1.53960084472154,-0.0664064884528014,-0.0010092604795609,0.0664141574918154,-0.050398003288711,-0.0795408197080414,0.0985218479355268,0.0063542148005096,0.151961024550886,0.153492652215634,15.4292164798835,0.749189713142419,0.91638748216147,0.176403351758052,0.240200635538513,0.141417462425859,0.463203473755978,0.157734399223304,0.0353185709414787,,,,,1.59306398738573,-126.486183134521,1.52075229839734,AttemptLanding,AttemptLanding,1,0.441258755702203,0.204869044150967,0.205868720629152,0.898711646157872,0.337147794477396
112,2.63077018611806,3.0,-0.229475890279216,-2.58765206606932,2.63077018611806,0.0050088860782648,0.0045510884972435,0.0067676691892243,-0.008738555126751,-0.347501407790604,0.347905385931466,0.0224720526787588,0.194964551276024,0.197760283724802,15.3588959794489,2.14597247945904,2.09313839990132,0.0191382954912353,0.0461723097262507,0.139245231063169,0.41240713048877,0.0002799425196484,0.0056351674646103,,,,,3.0,-94.1056534981467,2.27375704046787,AttemptLanding,AttemptLanding,1,0.741090773043109,0.0843174474747946,0.0527640391878111,0.957123552487979,0.338113230638592
113,1.74432030940216,2.38639545440674,-0.998270013109504,-1.41495659578582,1.74432030940216,-0.0532062298709415,0.0057995451572422,0.0535213753663931,-0.0545054430656408,-0.106008107333596,0.12180733105005,0.0078579858080579,0.116081370979904,0.118043674931692,15.4084333574183,1.02891139095454,1.04689693893342,0.176658425735749,0.240204574056482,0.150000350183337,0.446099798862537,0.15576834124897,0.0411138947332181,,,,,1.77528590773906,-124.910768203071,1.77927453182879,AttemptLanding,AttemptLanding,1,0.488760817493581,0.154279159776536,0.176748376930068,0.895360864540149,0.333333177696295
114,2.67841856741324,3.0,-0.438551966870025,-2.60596253856791,2.67841856741324,-0.0310495034704771,-0.0091331078918509,0.0323648779624975,-0.0163913338219855,-0.348515124156674,0.349434979183418,0.0225561546802732,0.201326230715249,0.203502498456815,15.4179518245193,1.68974224987465,1.4604090201032,0.0630357545605713,0.240404855139852,0.13107457603268,0.404097775803538,0.0018850924128284,0.01012558720528,,,,,2.9979851142919,-97.9705526263991,1.52394123479793,HoldLanding,HoldLanding,0,0.75494545100156,0.0782893832918129,0.0514934805362446,0.943730934169888,0.341744632874364
115,1.79363795953828,2.54172348976135,-1.03329848049006,-1.4515947591853,1.79363795953828,-0.0463479966600695,0.0122478075200273,0.0479389777055107,-0.0592840800685537,-0.11325732399043,0.130398534114607,0.0084099544448885,0.132496018880732,0.134614362708135,15.4701807165998,0.760983078441242,0.911447122442247,0.176482066651215,0.240249126644833,0.139148850983289,0.415098689163809,0.158521968562388,0.0378896530570351,,,,,1.89315516909655,-124.179562229341,2.04706026046005,AttemptLanding,AttemptLanding,1,0.505226328418502,0.177108056879535,0.190497098034775,0.898618443667451,0.338156066229649
116,1.59785333806521,2.17129111289978,-0.957963608510036,-1.2663782996277,1.59785333806521,0.0052572546788427,0.0090594783898304,0.0104743914121068,-0.051099519305367,-0.0872510435208706,0.103237612495962,0.0066591076068057,0.117449040792449,0.118127575246091,15.4428300713692,0.833490729438913,1.01717868492123,0.029219798918994,0.0727482645932828,0.296323986221013,0.645124951121042,0.0135225607559954,0.0074615976273525,,,,,1.69700248239393,-126.66944677606,1.58915223761527,AttemptLanding,AttemptLanding,1,0.449719738533275,0.130943804429997,0.0872896178887912,0.97084912657053,0.268300450568439
117,1.34177836315744,2.31636595726013,-0.776778202004631,-1.08349709256481,1.34177836315744,-0.040303194936569,0.0107311492865006,0.0417073744930587,-0.0398605149909808,-0.0755552151733835,0.0871480607295961,0.0056198565587411,0.115107272661446,0.116099377110747,15.4653971670473,0.468499424499268,0.667600486154677,0.148380828808021,0.240160795969082,0.223367527732456,0.445917860601602,0.156565382990398,0.0410565765261987,,,,,1.6721231422542,-125.43586516234,1.55065102311231,AttemptLanding,AttemptLanding,1,0.3810274389308,0.2269285606635,0.220671415251844,0.916883086297994,0.300725543230019
118,1.71249398709954,2.71972298622131,-1.05462483091924,-1.3200429154404,1.71249398709954,-0.0721486893466939,0.0160260444597894,0.0739071544268408,-0.0644116381246789,-0.0967576965347451,0.121725089459161,0.0078529233639456,0.177916780818255,0.179863127096763,15.341665276443,1.0025995323069,1.14575812317659,0.176541192442783,0.240246333079753,0.168703154869948,0.490672539542031,0.155447400540481,0.0435131627286583,,,,,1.78141492798702,-127.597402747289,1.57161175673176,AttemptLanding,AttemptLanding,1,0.492637688645898,0.240176169780652,0.229016403706905,0.894849450771238,0.325020820057801
119,2.55003432964401,3.0,-0.365854520787134,-2.49314209230267,2.55003432964401,0.0046438565585023,0.0044837363345385,0.0064551758499367,-0.0149692440966994,-0.326616508400333,0.327412212345108,0.0211442665197017,0.209491808195297,0.211992817353921,15.3909577371961,2.1090666025406,1.77942349916457,0.0236051277241965,0.0545395089132068,0.1294071947112,0.44555116169428,0.0034624959102423,0.0070001181886186,,,,,2.88139783872518,-96.8469577847742,2.0952860218668,AttemptLanding,AttemptLanding,1,0.722407718042522,0.102425724735918,0.0655398194359039,0.957645013910218,0.342485691239467
120,1.72938416938524,2.34262919425964,-1.02506558428857,-1.37938225050643,1.72938416938524,-0.0407730713861437,0.0126307603406069,0.0426846513051404,-0.0567665377226744,-0.101047655953024,0.118208321147301,0.0076265664588161,0.116318573678215,0.118177427543899,15.3444058848466,1.04575201002721,1.17646402628436,0.176341723216864,0.240189117105768,0.166313258621026,0.448079098194582,0.159829043347923,0.0366919426550951,,,,,1.76744363452008,-125.864521808831,1.74458257257356,AttemptLanding,AttemptLanding,1,0.484804597344844,0.145805650002683,0.171861044980317,0.894368869534834,0.326082996168433
121,1.70745451949738,2.45000123977661,-0.999484880154327,-1.37049375386115,1.70745451949738,-0.044516890846085,0.0065077098704804,0.0449900417688248,-0.054493513138416,-0.0993555071488599,0.115637846176691,0.0074591646385703,0.112164744161346,0.114040215074156,15.4293613807696,0.830900488743523,1.0474968672046,0.176620943083565,0.240195503832913,0.149944603365717,0.431513575349218,0.158582450150434,0.0358400178186784,,,,,1.76448514358837,-124.664357217421,2.01157635515755,AttemptLanding,AttemptLanding,1,0.478129248214133,0.175321186387111,0.188706534540262,0.896930692090054,0.333357954059681
122,2.63195250624398,3.0,-0.3804889397858,-2.57233491921355,2.63195250624398,0.0071152749039603,0.0065814668493853,0.00969241161159,-0.0157167497316634,-0.34379252640069,0.344624699398741,0.0222498021146806,0.193874202201212,0.196705181765539,15.4183914409993,1.84725410145305,1.79193956365254,0.0289223225389594,0.0469203455158589,0.11890240669982,0.414750054382599,0.0173954639748855,0.0063117390064307,,,,,3.0,-97.1526305433791,1.78136259928629,AttemptLanding,AttemptLanding,1,0.74119503801817,0.0845876282238953,0.0607790720770288,0.956945174218976,0.347154485911191
123,1.59892666782882,2.43468809127808,-0.912437446076229,-1.29483527895897,1.59892666782882,-0.0558895125492206,-0.0039817455992521,0.0560311691026222,-0.0464063348404033,-0.090217436540905,0.10420258490611,0.0067209097946526,0.126198462924846,0.127856612834033,15.408388263402,0.820427157395872,0.934711248552447,0.177260819425926,0.240180185841291,0.139106250063488,0.450869257755272,0.159859926213857,0.03582322794435,,,,,1.66518818535526,-124.488998271363,1.90201398231251,AttemptLanding,AttemptLanding,1,0.451951767321158,0.198318701278231,0.203066705205386,0.897579217097443,0.338174999971783
124,2.63167560157457,3.0,-0.520663269603992,-2.54916747601448,2.63167560157457,-0.0176292131520152,0.0036416709648545,0.0180014144937405,-0.0231836982348926,-0.343346257915259,0.344978225895614,0.0222706016566402,0.202605863201958,0.204720235802982,15.4207403110342,1.7025800927773,1.55753439850573,0.0626215360400091,0.240265751563384,0.127512304420334,0.46449768680733,0.0019076712300185,0.0085356516190172,,,,,3.0,-100.530616564359,2.08466314852253,HoldLanding,HoldLanding,0,0.742724207580482,0.0861732489695737,0.0556556765777587,0.943074046691343,0.343327864702074
125,1.54897028006412,2.14603400230408,-0.801734616134805,-1.31343070449521,1.54897028006412,-0.0428654461128091,0.0086675183333317,0.0437329663355778,-0.0356947846783071,-0.0915370574773849,0.0997029261226905,0.0064303388632309,0.102319391592883,0.103896673263946,15.4631956820832,0.813369701031573,0.761486983235302,0.177391974906319,0.240162294673149,0.121445171415639,0.398155101108106,0.159155918388947,0.0355696364538875,,,,,1.59718321662841,-120.692341177793,2.28356566779782,AttemptLanding,AttemptLanding,1,0.433838076003221,0.142357047998847,0.169084605783688,0.898930138599029,0.346024368259716
126,1.54550012916227,2.24938654899597,-0.860325332590124,-1.26613806180474,1.54550012916227,0.0040487148026203,0.0012885699269795,0.0042488238383902,-0.041240580018328,-0.0853944396633637,0.0973115807245462,0.0062858248590852,0.124030306168905,0.124802660491699,15.3697205719587,2.10158642260936,2.26664216431875,0.0164442321651547,0.0539365637136648,0.145474093485195,0.444023354235301,0.0003752412364638,0.0070474562172299,,,,,1.57811714801433,-123.111297136965,2.41039824593676,AttemptLanding,AttemptLanding,1,0.437093899874945,0.159153395499621,0.0982215225343657,0.957456087877273,0.335344847339914
127,1.48746362650717,2.3038158416748,-0.75078165523299,-1.26754596492847,1.48746362650717,-0.0483401213717555,0.0046444529716992,0.048562725187559,-0.0319428600092658,-0.0867350958435607,0.0943722868871991,0.0060889025704418,0.121365529430927,0.122815017416471,15.3553976525563,1.04885367918727,1.05767208806021,0.177545400887865,0.24016836850371,0.150920847960019,0.467399317525158,0.158729887784528,0.0354314232583574,,,,,1.53181850141805,-119.504479623187,1.72386779906625,AttemptLanding,AttemptLanding,1,0.421219970551872,0.192582414697104,0.198980219523516,0.894676025670552,0.332924067573325
128,1.61513578408473,2.39515352249146,-0.863076491622084,-1.34541026588772,1.61513578408473,-0.0587085923864002,0.0075358157111604,0.059190263882036,-0.0424690908500093,-0.0975845010392956,0.109186321633933,0.0070426798159269,0.130806535642975,0.132424933356564,15.402296572323,0.888049624605804,0.950600719024766,0.177380839148132,0.24020863732452,0.134662523295848,0.473210925938107,0.157093827395344,0.0350615907889487,,,,,1.67347133841587,-121.814224359451,2.27415201172316,AttemptLanding,AttemptLanding,1,0.457187862427241,0.186355539519886,0.194382471932106,0.896863042011694,0.34014998964629
129,2.60807951517328,3.0,-0.517764268393013,-2.52537491361304,2.60807951517328,0.0073102166190531,0.0088618837493675,0.0114879175921829,-0.0225766916230786,-0.333168203486119,0.334688696584067,0.0216167834920644,0.19749202275316,0.200102034868374,15.3699351084925,2.07530245655475,2.04673846599838,0.0175572863687211,0.0492970246535227,0.148479913502216,0.405043848868927,0.0004253883476866,0.0062611612749077,,,,,2.98812679975473,-100.15154225882,2.33704999122347,AttemptLanding,AttemptLanding,1,0.735508277686551,0.0902882273112447,0.0566387837927559,0.958833892424151,0.334008927332349
130,1.62751278482579,2.18300175666809,-0.903190326979013,-1.34045147242455,1.62751278482579,-0.0424756748688353,0.0114295630955101,0.0439865646319107,-0.0444877009410675,-0.0956743410352508,0.107484414569076,0.0069338864803102,0.121762000086459,0.123452467282666,15.3817159489038,0.991980954767633,1.02954371475439,0.176553721367956,0.24019105272192,0.16676975050668,0.446626705421141,0.158455028981919,0.0362599422771022,,,,,1.67291748571223,-123.514973806059,2.24080270734826,AttemptLanding,AttemptLanding,1,0.45869390274341,0.133049222180368,0.163439424188828,0.895839731198349,0.32588011088592
131,1.49780039379261,2.14686846733093,-0.74275412650791,-1.28982760923147,1.49780039379261,-0.0509422839124012,-0.0156721502151202,0.0532985232682575,-0.0308670166579247,-0.0889034973258787,0.0952734024731103,0.0061449788532991,0.105482660010014,0.10694412010641,15.4318858042663,0.824278548520628,0.860487157807298,0.175659000892497,0.240148685887016,0.118650570316938,0.46295919791461,0.156233926661111,0.0405249035727593,,,,,1.54515709711904,-119.107877075441,2.3088930800565,AttemptLanding,AttemptLanding,1,0.420802262365977,0.155811712478637,0.177660656797366,0.898933054718318,0.347266413192472
132,2.61894966726718,3.0,-0.456871522502173,-2.54794006679102,2.61894966726718,0.0066788289551622,0.004378231198212,0.0079859667315429,-0.019207356747098,-0.338157860503732,0.339295957512992,0.0219102892332678,0.197414134330384,0.200126869356669,15.366920461408,2.09233310051028,1.70053172546995,0.0278510345451785,0.0551917891128275,0.127869085296402,0.42592438852823,0.0196560947488686,0.0043614791724145,,,,,3.0,-98.8062245222683,1.55407432302105,AttemptLanding,AttemptLanding,1,0.738411951809248,0.087200418765668,0.0626422857963416,0.956273401951852,0.343169295423821
133,1.63659713115241,2.54165434837341,-0.858797453813058,-1.36661183461152,1.63659713115241,-0.0639551246803503,0.004467518699483,0.0641109717303472,-0.0439032862658968,-0.102263593918741,0.115036229723402,0.0074198788531815,0.161846250550071,0.163625640305215,15.4017756982976,0.784684564645892,0.977974722613947,0.176462066309281,0.240227227699555,0.15134493884794,0.482619315837193,0.159288229906291,0.0357116687973157,,,,,1.68330103474598,-120.509023497779,1.98876341365958,AttemptLanding,AttemptLanding,1,0.469151029701686,0.215391552025289,0.213015761443256,0.897919501016889,0.332735582734249
134,2.67896545049338,3.0,-0.649066355380151,-2.55760513563187,2.67896545049338,-0.033710019081443,-0.0080230010705543,0.03465160793743,-0.02875744344083,-0.337275774131637,0.339779386957797,0.0219358294415422,0.205868182395095,0.207919153272158,15.3886402611174,1.78864539256036,1.44715770163676,0.0631538957032208,0.240597282632321,0.132641360365662,0.426311560172116,0.0018928395217484,0.0089943796914378,,,,,3.0,-102.269542710179,1.84875002880479,HoldLanding,HoldLanding,0,0.755974617452666,0.0785855684275186,0.0512632865903364,0.942998884979698,0.341048284281928
135,1.68344017541086,2.41488575935364,-0.864569853169637,-1.4299042867904,1.68344017541086,-0.0434997718936032,-0.0023758864818143,0.0435646070953243,-0.041468453313195,-0.108374214908852,0.117944212481109,0.0076084919883184,0.122790052804241,0.124665673583981,15.400944631759,0.998827461379231,1.03366356623036,0.177270384426063,0.240212222347249,0.158882784359837,0.515536461295803,0.158703403893664,0.0363142344383432,,,,,1.71044333906111,-120.370167332204,1.729218761383,AttemptLanding,AttemptLanding,1,0.47385051482636,0.172562101021267,0.18727728294712,0.895395235427179,0.329385429173406
136,1.63522061436471,2.47719264030457,-0.768740451318366,-1.41950253566001,1.63522061436471,0.005577800068814,0.0076821259223104,0.0094935194893092,-0.0355939653486635,-0.109445510385243,0.117731999465364,0.0076031310392748,0.169789302423273,0.170678408550646,15.401413054531,2.04113728985055,1.94176310181268,0.0200211682501621,0.0464052145755231,0.136891543415252,0.422612356546343,0.0003777902986588,0.0058276319158395,,,,,1.66149639163359,-116.91481150861,2.23144487918249,AttemptLanding,AttemptLanding,1,0.470194512207386,0.191184184409507,0.116997556323595,0.958695198511851,0.339159314037666
137,1.45637770279034,2.17548036575317,-0.692438763911053,-1.27018501219176,1.45637770279034,-0.0419519247619292,-0.0085431286503965,0.0428129540953179,-0.0268653252556101,-0.0866534419996719,0.0917952899052974,0.0059220113725101,0.115307825533838,0.116805988861084,15.4169886270922,0.830481899139775,1.02097985696179,0.176345846352119,0.240165134754445,0.162824316145507,0.440986755526461,0.159355676076512,0.0369127738837538,,,,,1.50463962214456,-118.009747287404,1.97263969569882,AttemptLanding,AttemptLanding,1,0.411728585182973,0.16964714075078,0.186035856240182,0.897279877311714,0.327633637268664
138,1.60344721806929,2.2585277557373,-0.729569956041309,-1.41765137109834,1.60344721806929,-0.0471168215652433,-0.0035384227856566,0.0472495006346208,-0.0297291546140392,-0.106330544735094,0.111385664524004,0.0071858803819021,0.107075462267507,0.108807293944503,15.3852320717923,0.982200860303958,1.04068153668597,0.176710158995556,0.240192927680678,0.164862866678561,0.467765308457165,0.156130470683344,0.0387200048173416,,,,,1.62198882751374,-116.427624599585,1.83960901775441,AttemptLanding,AttemptLanding,1,0.449347383607379,0.156055529424983,0.177104639710459,0.895750844525873,0.326727614809528
139,2.55723033498411,3.0,-0.428933343538968,-2.48644374356337,2.55723033498411,0.0124510688310775,-0.008734600290598,0.015209285232145,-0.0190464733323548,-0.337495657085254,0.338796057789604,0.0218568341367192,0.188152043774497,0.190327780006621,15.4383944973403,1.2702780164371,0.920488329231509,0.0257920610240927,0.0767850722360228,0.32405146841667,0.692959595928668,0.010004957079671,0.0236015304322893,,,,,3.0,-100.33835635475,1.6317653093456,HoldLanding,HoldLanding,0,0.719993645330421,0.102411543587801,0.0744759484462963,0.969890805343415,0.255977125148147
140,1.49113777139843,2.25570750236511,-0.701019239150505,-1.30341931007818,1.49113777139843,-0.0474969680788518,0.0044707782835785,0.0477069160095723,-0.0293911631810818,-0.0956827815350968,0.101379902277372,0.0065374597148136,0.128777723937023,0.130377254964292,15.4699941738486,0.610410899512952,0.581257154278681,0.173676327316461,0.240164750629125,0.139172696317846,0.324799444226109,0.155816719027188,0.041414073624036,,,,,1.62484937329115,-117.662804067615,2.14490136914805,AttemptLanding,AttemptLanding,1,0.42371219003244,0.180774457402592,0.192776212700763,0.903798730204835,0.338145468303179
141,1.56005856894807,2.26658654212952,-0.780957924363062,-1.33843676726,1.56005856894807,-0.0497329619160447,-0.0004072582415438,0.0497346293865558,-0.0338415206109535,-0.0951267411261532,0.102302592454453,0.0065991357178369,0.108004792459666,0.109675953758006,15.3718589945498,0.90433862176686,0.919005293913802,0.175338214668763,0.240166481465138,0.129322383294978,0.397344753066264,0.156207056536086,0.0398305542788002,,,,,1.58700801541868,-119.377240163094,1.66437692267263,AttemptLanding,AttemptLanding,1,0.437950809137752,0.168086809353361,0.184761281992063,0.898004619042413,0.342523385202232
142,2.63466503309167,3.0,-0.611821323937529,-2.5270450570107,2.63466503309167,0.0086301067534805,0.0050546243750508,0.010001398409689,-0.0294027662483104,-0.332025716783252,0.334564753588856,0.0216104384288994,0.196914899908535,0.199548526950907,15.3871357351726,2.27290257107081,2.17906011981867,0.02027689240162,0.0560604977576008,0.145512419436062,0.424416054980016,0.0002948804044106,0.0086253681886114,,,,,3.0,-102.460692774955,2.24365635101111,AttemptLanding,AttemptLanding,1,0.74248704754796,0.0840339572628174,0.0536879298383377,0.954881846942201,0.335327813583973
143,1.43091244391493,2.34669971466064,-0.637897883285933,-1.25959961925733,1.43091244391493,-0.0641121452332225,-0.0080933309021738,0.0646209654175632,-0.0257099738715211,-0.0886966356742059,0.0942880168910809,0.0060820452276458,0.160160955645792,0.161488181026125,15.4023203698834,0.953237965393073,0.958015107378254,0.176730378560659,0.240175641499972,0.114515253417455,0.443490034201681,0.158593026055593,0.0363250985864683,,,,,1.50542716708844,-115.316950545559,1.67799266321573,AttemptLanding,AttemptLanding,1,0.413874287915873,0.217899312911006,0.214434503863361,0.896617822290753,0.349104331814464
144,2.67144046828475,3.0,-0.574495520177752,-2.5722876404256,2.67144046828475,-0.0256790040306215,-0.0089034704985111,0.0271787239384511,-0.0256596093930681,-0.340705082067671,0.342749913048594,0.0221204743471518,0.207084940133048,0.209203812516189,15.4178753211621,1.66755408349715,1.19450755563792,0.0630884578745658,0.240276252614,0.122691411874217,0.419629557825728,0.0018649809306225,0.0109174634995642,,,,,3.0,-100.955060334027,1.84099060720746,HoldLanding,HoldLanding,0,0.754224887379172,0.0789086606913129,0.0521440635555121,0.945968143898084,0.345470483611459
145,1.65368578401772,2.33349299430847,-0.756792940691694,-1.45962599392713,1.65368578401772,-0.0354632550982831,0.0026804700694706,0.035564411733631,-0.0315689213038578,-0.112472845811514,0.117912837759017,0.0076066233520786,0.109253005398659,0.111114367242876,15.4211453136708,0.928705743960897,0.9901402342165,0.176607020959275,0.240182131196186,0.157560133383489,0.417983347009176,0.15711254293366,0.0360632082169126,,,,,1.68254359450145,-116.590495520199,2.31756057149816,AttemptLanding,AttemptLanding,1,0.463205749186633,0.159476764466585,0.178627749436415,0.896619842548969,0.329973274051783
146,1.72803998272555,2.5224666595459,-0.81399803303276,-1.5054997150413,1.72803998272555,0.0072244868614702,0.0032484802307159,0.0079212268128686,-0.0380961913489636,-0.120186218817457,0.128277851857416,0.0082822497259278,0.1464019337905,0.147409810590241,15.4093000401427,1.67081777206106,1.87894752101794,0.0216301711079793,0.0554255451688604,0.1173469520628,0.397213358203866,0.001565481971041,0.0048947325024016,,,,,1.779143412243,-117.297381887505,2.16085542021888,AttemptLanding,AttemptLanding,1,0.490292624178194,0.180198227200272,0.110594608813216,0.961293901428961,0.3478457990832
147,1.44371205004486,2.06281185150146,-0.712330582588539,-1.24547075632102,1.44371205004486,-0.0388112652140746,0.00080739563327,0.0388196624821218,-0.0282321037273593,-0.082290266711923,0.0880686548535249,0.0056797573375657,0.107536584376032,0.109012977679751,15.4495473383149,0.836463990850089,0.696120498621141,0.17603781410537,0.240138578814234,0.112117927926089,0.399648503720222,0.158989754530884,0.0362684899354155,,,,,1.48754464037965,-118.732441752547,1.81399276216819,AttemptLanding,AttemptLanding,1,0.406792475547913,0.146414393449459,0.171699290989209,0.899939357672898,0.350169809810627
148,1.68503279093928,2.49351716041565,-0.752724999396048,-1.49541630562532,1.68503279093928,-0.0431003032481777,0.0006982035878573,0.0431059581535427,-0.0318164698874729,-0.118205854078015,0.123621246929004,0.0079729159380741,0.120866769774066,0.122866786626084,15.4630232065061,0.879687001005981,0.750705461004169,0.176466528767511,0.240194329807687,0.139937183569536,0.421782632410755,0.158451005882585,0.0362077545254682,,,,,1.75445964810256,-115.915142708198,2.08006269071555,AttemptLanding,AttemptLanding,1,0.473915434909025,0.189811742126999,0.197476170748428,0.898956509129022,0.337805696191317
149,2.58272508235281,3.0,-0.609733644941424,-2.47581280268032,2.58272508235281,0.0076805993875861,0.0009407010254117,0.007737992334695,-0.0289107394788594,-0.319943631212597,0.322497493550878,0.0208259838770014,0.203846381861242,0.206336125150157,15.4120476035336,2.01497549988484,1.97233304871014,0.0279446109838488,0.0664353201051428,0.132054328984813,0.500663657525971,0.0175877252884997,0.0089538361278096,,,,,2.89228411426449,-102.374592577792,1.83388707666857,AttemptLanding,AttemptLanding,1,0.729993913657447,0.0953054883986458,0.0682560002441889,0.954698841626258,0.341309187117861
150,1.52761868528418,2.12510561943054,-0.655575519421282,-1.36935005906524,1.52761868528418,-0.0368308285412465,-0.0013176247858609,0.0368543900520821,-0.0239804147506406,-0.098581344430426,0.102314013035106,0.0066008945744647,0.093676533321655,0.0953637774323193,15.3804336902148,1.01441142573238,0.950672889270676,0.17658391033744,0.240158605672708,0.154576670846614,0.37489917805002,0.158447558139845,0.0360790832315976,,,,,1.57055207434036,-114.528428258895,1.61416174036124,AttemptLanding,AttemptLanding,1,0.426437738228911,0.141191198359147,0.168255522596202,0.89626809664197,0.331299257401505
151,1.47370533855169,2.13186502456665,-0.653230972396607,-1.30989776001814,1.47370533855169,-0.0452686914692764,-0.0088695022569345,0.0461294103325232,-0.0243336059143953,-0.0915040016983597,0.0956418083054457,0.0061720382449004,0.106322375677514,0.107815033944799,15.3481892179027,1.01144791173892,1.17965744711787,0.17615870628292,0.241623133390038,0.145428858810464,0.472836281972401,0.155766267550804,0.0394475324668068,,,,,1.53043490962982,-115.371127707452,2.37180424896769,AttemptLanding,AttemptLanding,1,0.414551097069412,0.156542987914328,0.177499802254055,0.894704819038951,0.335364951639794
152,2.61971007701147,3.0,-0.659064496114211,-2.50446300602915,2.61971007701147,0.0052596074565743,0.0081348140250953,0.0096870361731615,-0.0312503565532686,-0.326318880668377,0.329109851714748,0.0212535795952362,0.192778867053825,0.195302942311027,15.3904106237008,2.01197846718614,1.96458576050657,0.0216957499828467,0.0563933467342814,0.133643789609595,0.431291673387613,0.00063168829078,0.0064231826223366,,,,,3.0,-103.235441300153,2.1765992725454,AttemptLanding,AttemptLanding,1,0.737649942331929,0.0873411893041665,0.0550211667057165,0.957907691790991,0.340602760173513
153,1.45567735908805,2.31738328933716,-0.684567332106431,-1.2601858694622,1.45567735908805,-0.0560052351396985,0.0112176515352701,0.0571176161006363,-0.0285930312777248,-0.0880089836841175,0.095111845654658,0.0061348341628721,0.152610465296385,0.154009495966308,15.4401195352558,0.864830731657261,0.94388373046744,0.176686341206024,0.240186716753245,0.146889233341204,0.407052386310943,0.158758766108477,0.0350039085411948,,,,,1.53053947457772,-117.277382087191,1.9383662344476,AttemptLanding,AttemptLanding,1,0.418982528283407,0.204355397257833,0.205901383973447,0.897445501480294,0.334715896292798
154,2.6837998941867,3.0,-0.667819169632733,-2.56472923440342,2.6837998941867,-0.0286387669903433,-0.0090181809540321,0.0300250988748887,-0.0299897151507712,-0.336981840242303,0.339645954497136,0.0219243947217867,0.197716150796056,0.199810647224643,15.3992566003919,1.56254138972426,1.60030519323074,0.0631170865994564,0.240341737562175,0.131034573930431,0.482773421652713,0.0018721197235348,0.0090404016508918,,,,,3.0,-102.931426400997,1.50244840197167,HoldLanding,HoldLanding,0,0.755642101228049,0.0766496252683883,0.0501092471536354,0.943590519262768,0.341762411586475
155,1.6375826540831,2.3493480682373,-0.774911554887305,-1.42507469341749,1.6375826540831,-0.0547050510288326,-0.0004458772008674,0.0547068680747256,-0.034673277532758,-0.108345809553668,0.115680672067181,0.00746250950565,0.129422969515833,0.131216622291337,15.3612156003814,1.01762553703081,1.0075838425079,0.177347881424415,0.24019703284438,0.171180439501429,0.490015122520364,0.159112087443803,0.0358151761842136,,,,,1.68981233095603,-117.495671617653,2.49706158393296,AttemptLanding,AttemptLanding,1,0.46293203221376,0.170176810665063,0.185846270138018,0.895413699877131,0.323919804666032
156,1.63430788126279,2.27648830413818,-0.714977676255834,-1.45726346981451,1.63430788126279,0.0054135476929549,0.0073603764747211,0.0091368287974289,-0.0287814234043654,-0.111772170131714,0.116537190698005,0.0075286747340151,0.119866311367136,0.120824881413476,15.3570973838893,2.26777604835706,2.41086203227476,0.0149928439404419,0.0698594940749035,0.155165774494829,0.506057945270076,0.000121402463164,0.009623399331597,,,,,1.64682358488304,-115.230680905002,2.47264870988162,AttemptLanding,AttemptLanding,1,0.459980411286106,0.146165680426493,0.0912527828449532,0.955742850253386,0.331037433557854
157,1.65114000179624,2.64072370529175,-0.733255833186548,-1.45336404305417,1.65114000179624,-0.0628392201879055,0.0054901851678554,0.0630785995960707,-0.0333093576751931,-0.114736369084278,0.12202974748315,0.0078697322496682,0.159924795401534,0.161819901483486,15.4612939364597,0.741345812761768,0.752007729327962,0.17723514686645,0.240227778485323,0.130114467265531,0.395246663248626,0.158141758656985,0.0362172790041024,,,,,1.69535374865113,-115.407012304463,1.89046932696893,AttemptLanding,AttemptLanding,1,0.472667980775693,0.234220743212437,0.223987591635089,0.899648934450356,0.342171347881986
158,1.61713120761334,2.28165674209595,-0.756834294964017,-1.41632621843417,1.61713120761334,-0.0501385113797398,0.0028325284923309,0.0502184581706385,-0.0322596196287885,-0.106269845192301,0.112373271490863,0.0072492341978002,0.108407577106984,0.110266476816134,15.3764658572218,0.89539044947618,0.919825378237253,0.175545160176845,0.240183503402557,0.141383906384341,0.427748467011911,0.155566778801964,0.0408006755053358,,,,,1.65925020896733,-117.23842078182,1.81560265954896,AttemptLanding,AttemptLanding,1,0.453288284060117,0.158724962589871,0.179212377407241,0.897965009836686,0.337162708273626
159,2.57801060692522,3.0,-0.736087946898939,-2.43672516246217,2.57801060692522,0.0078594691824569,0.0042146281266178,0.0089182030743681,-0.0375300303836407,-0.31003623621532,0.314082074208181,0.0202854105564781,0.203152989210661,0.20566769754655,15.3931215797608,2.25006172245645,2.16271349159253,0.0162240814659136,0.064582810499107,0.144545210956883,0.472405397459497,0.0001524458941518,0.007113616753057,,,,,2.88835322200788,-105.56852442763,2.41465106733881,AttemptLanding,AttemptLanding,1,0.72860303468937,0.096582617338792,0.0606040938623938,0.957216154013801,0.335757684019163
160,1.52267078665279,2.38656949996948,-0.688833784564009,-1.33566420455119,1.52267078665279,-0.054991418660754,0.0106645400377246,0.0560159668357028,-0.0289083721008526,-0.0974164093553869,0.103741374349528,0.0066898510111635,0.152855730494813,0.154473838651845,15.4743565653971,0.745943131452641,0.539444453197456,0.175735215987893,0.24019116573442,0.110771453416553,0.388817371400955,0.156080134314982,0.0397727256965715,,,,,1.56544004446909,-115.546181583882,1.51409077463432,AttemptLanding,AttemptLanding,1,0.436940310837779,0.204646804416135,0.206619840578325,0.90203291812666,0.350768242925977
161,1.66327492744602,2.37105894088745,-0.771266222700599,-1.45465202301793,1.66327492744602,-0.0722539357976042,-0.0110812843440947,0.0730987421297999,-0.0349080888789073,-0.113086348042996,0.120333725704441,0.0077616690189907,0.137775025209197,0.139398508361441,15.3557183363755,0.884756165548312,0.858549528618565,0.187223304622889,0.24022960650634,0.131703386959449,0.490046807526428,0.147048855763798,0.004540479641414,,,,,1.70136515468512,-117.053321105748,2.40665616761053,AttemptLanding,AttemptLanding,1,0.47141968232456,0.172652839081452,0.170597833960973,0.892690945805816,0.341465161351356
162,2.49977517988264,3.0,-0.684244748290741,-2.36891140449515,2.49977517988264,0.0069273041148321,0.003917001473813,0.0079580426516339,-0.0353082693349683,-0.307514593681391,0.311441177721191,0.0200921904627242,0.195818497530079,0.197641655538107,15.4505640918379,0.970018626930646,1.13604255249003,0.0254329005587103,0.0891553227386756,0.277963147447527,0.636485284907759,0.0232757156195057,0.0132867401574845,,,,,2.85921158454158,-105.062668776886,2.21822971187977,AttemptLanding,AttemptLanding,1,0.706135045742992,0.114009559012539,0.0835820397805304,0.970735926168054,0.276460823356655
163,1.63407443504076,2.41560864448547,-0.76090958351117,-1.43288388290564,1.63407443504076,-0.0502801641107077,-0.0031101689728107,0.0503762647884808,-0.0331266567694491,-0.109428889234986,0.11568709976355,0.0074610483556205,0.122885114565397,0.124765682625018,15.4775367173478,0.785876639675376,0.771117112701299,0.176446718858221,0.240181117567561,0.163498253868801,0.367387754570998,0.159323729453271,0.0368146356921627,,,,,1.71874998102098,-116.787170824054,1.57354793544767,AttemptLanding,AttemptLanding,1,0.460706319202539,0.185080845669616,0.195246194077141,0.899543118230787,0.327334109391644
164,2.50046063768373,3.0,-0.758207082533481,-2.34957143204376,2.50046063768373,-0.0221662703920992,-0.0109741224400824,0.0247340839010782,-0.0381323170006237,-0.288853142590758,0.293455862045949,0.0189429448301295,0.22847358987371,0.230193719973834,15.4088064599624,1.67683930130301,1.47079107588793,0.0628169216792592,0.240326532383079,0.130963387081343,0.455901253360763,0.0019030404317059,0.0087225705532136,,,,,2.64390369362176,-106.697557678757,1.69735803925741,HoldLanding,HoldLanding,0,0.712828247377095,0.116930938569692,0.0741762027267722,0.943860157625299,0.34179405018607
165,1.63587436660024,2.26033639907837,-0.692815843026091,-1.47128172775644,1.63587436660024,-0.0482001925780255,-0.0187532747684638,0.0517198596198814,-0.0269531482463158,-0.114182588081362,0.118173843689012,0.0076221059963307,0.108354961102456,0.1102674432155,15.4553137467654,0.859607786925283,0.851395409166127,0.175811402010546,0.240188040500559,0.147192844318219,0.44686214054409,0.155061523516023,0.0407946800152758,,,,,1.65443912380199,-114.70021335318,1.95009984349957,AttemptLanding,AttemptLanding,1,0.458286653069831,0.149985931571224,0.173742220712986,0.898650702454009,0.334580958080792
166,1.66253539311846,2.31927466392517,-0.728286790371538,-1.48116238202596,1.66253539311846,0.0041692049236533,0.0022638707662459,0.0047441944038665,-0.0297443075565912,-0.11500579348829,0.119999552012109,0.0077501362219821,0.11370037015791,0.11466327452583,15.3910792923383,2.0742363993591,2.04218966183204,0.0142126287703056,0.0533362809380757,0.139627091565723,0.453593109483317,0.0002721752068344,0.0069795994737572,,,,,1.6985678915868,-115.061450151433,2.48134204564982,AttemptLanding,AttemptLanding,1,0.466275426403422,0.148636104905552,0.0918406658741998,0.960550337991202,0.337943514859679
167,1.46548282093293,2.26193141937256,-0.693735048372976,-1.2657065203929,1.46548282093293,-0.0627131740257678,0.0044790235143605,0.0628729182401169,-0.0295601430739103,-0.0880596508178051,0.095419120364057,0.0061537483461719,0.14765845503402,0.149146898760215,15.4650718840469,0.722109113556675,0.797753450118921,0.176417086631494,0.240163602468359,0.116524424772233,0.383455930299432,0.157770683939257,0.0363990763824847,,,,,1.53242316823457,-117.234742424214,2.25054472769672,AttemptLanding,AttemptLanding,1,0.420624798667491,0.190727636326271,0.197792913544215,0.89984967939823,0.348211366767896
168,1.72505767643452,2.62809038162231,-0.858722373993788,-1.46744410634125,1.72505767643452,-0.0652929462485629,-6.72856812019678e-05,0.0652929809181708,-0.0448248445752031,-0.118509047765774,0.130464822038425,0.0084152401950748,0.18072474558502,0.182704803927505,15.4373068987495,0.933529773336058,0.942343714235246,0.176428261872654,0.240237773652359,0.168712657877778,0.467636665334038,0.158178750318035,0.0364340805706468,,,,,1.76822611766951,-118.998443980142,1.5,AttemptLanding,AttemptLanding,1,0.496556341168039,0.215152738502252,0.212642066480511,0.897046863089898,0.325016596498765
169,2.4693302354685,3.0,-0.76309709094945,-2.31218388931374,2.4693302354685,0.0052323815634625,0.0037884029800825,0.0064598617605302,-0.0402326843500881,-0.282379514429495,0.287459738420614,0.0185701730061212,0.220468411019397,0.222640311505218,15.3791335379722,2.17134490308952,2.10679968729649,0.0272125034193959,0.054322385750278,0.146140996297983,0.432567727740521,0.0201044664311244,0.0047977345893882,,,,,2.66549340284327,-107.193726307889,1.54415321906411,AttemptLanding,AttemptLanding,1,0.703016125092645,0.120585005009017,0.0830309521790209,0.952779755080126,0.335048446089785
170,1.73403500463511,2.35835838317871,-0.765229699058272,-1.54388852325541,1.73403500463511,-0.0492751121416315,-0.0114329310647292,0.0505840744632262,-0.0331170259748571,-0.125714595347377,0.131173059909558,0.0084628193647918,0.117421319163146,0.119624114638773,15.405300828027,1.10389386998372,1.0134608016934,0.177411493075016,0.240209814179833,0.170697308340989,0.454109720457251,0.158375371125875,0.0364844381925731,,,,,1.77840570795084,-115.675983280215,2.01801649851365,AttemptLanding,AttemptLanding,1,0.486334157497119,0.149746507157234,0.173504026561725,0.894657895327886,0.324134529626227
171,1.64096190639444,2.27360534667969,-0.802382786764748,-1.41164493134061,1.64096190639444,-0.0586954706861789,0.0012545508963543,0.0587088764755691,-0.0373302319889498,-0.106176625315032,0.11489289616818,0.0074122567463094,0.126861284407591,0.128699776265232,15.425562871796,0.941811592495991,1.02958111373616,0.176574147302275,0.240190693039107,0.16418123642782,0.430676382090579,0.157924239587062,0.0375315067307729,,,,,1.68221562017466,-118.331726157389,1.51278565455428,AttemptLanding,AttemptLanding,1,0.463329796958231,0.153108068084701,0.175701212407776,0.896223412228467,0.327030561587636
172,2.41254463124036,3.0,-0.842386065850134,-2.22887069885139,2.41254463124036,0.006164722859636,0.0079459658839986,0.0100569469405873,-0.0457251447596778,-0.263829359023126,0.270289659174633,0.0174606232028009,0.217375578054995,0.219375158690396,15.3695741988027,1.98412176298758,2.39706147416674,0.0149035500198678,0.0514805645040044,0.152881016441492,0.412557915245,0.0001833334994007,0.0072725672397456,,,,,2.5789773418386,-109.450212225276,2.43935487151913,AttemptLanding,AttemptLanding,1,0.687220266735509,0.134021231576693,0.0831387904066673,0.958124642412425,0.332052881581559
173,1.56359935046842,2.34347152709961,-0.723010020039742,-1.36866131867696,1.56359935046842,-0.0460240141550858,0.0047968758753601,0.0462733173341954,-0.030132691000476,-0.0999533634579147,0.106105242333589,0.0068431329321603,0.12256581483594,0.124197036084132,15.4590836266983,0.899853444321744,0.701722895570981,0.176403882559085,0.24018516854291,0.125793122435352,0.396457599022334,0.155233066165887,0.0410640814986151,,,,,1.60572032516396,-117.151648626796,2.15476241905389,AttemptLanding,AttemptLanding,1,0.441799234008406,0.183954681253286,0.1942976758757,0.8992142446213,0.344091945584288
174,2.32832126531256,3.0,-0.767366641040897,-2.1639422551859,2.32832126531256,-0.0236071815834522,-0.0050484437940879,0.0241409570451577,-0.0385272921117938,-0.249659355931319,0.254968757094268,0.0164588983019524,0.236789236118702,0.238283120505371,15.3653429760359,1.71955800113977,1.40515753094561,0.0628447545014393,0.240309599795542,0.130979295534848,0.429029694621255,0.0019133384033164,0.0087822369923536,,,,,2.36078838964489,-107.709824257803,1.93946916059016,HoldLanding,HoldLanding,0,0.668542294851091,0.155553557429619,0.0973760478059598,0.944026286425752,0.34178697976229
175,1.63356042472092,2.34664177894592,-0.794301591996465,-1.4147813534241,1.63356042472092,-0.0493183891056023,0.0018109340826035,0.0493516259734482,-0.0349297608975725,-0.10541808068919,0.112434234515541,0.0072526210301338,0.102515524199631,0.104429418893435,15.3996532538065,0.871513025083929,0.969570751171188,0.176814859915668,0.240153845717238,0.152212919358489,0.494019873552477,0.156867198188461,0.036024578996419,,,,,1.70036876942666,-118.357386427334,2.49002734134405,AttemptLanding,AttemptLanding,1,0.456501997037599,0.169491102795758,0.184513263335671,0.897126911800162,0.33234981361845
176,1.76176870387533,2.70941615104675,-0.893338554356321,-1.49921219941121,1.76176870387533,0.0075262157420438,0.0052005298378997,0.0091481929358029,-0.0452065520787317,-0.119166915777436,0.130030968763617,0.0083972663122123,0.143639420899705,0.144645861606966,15.3677413058125,1.87035534293539,1.97258348592359,0.0273016122358979,0.0599449322106168,0.133468981010385,0.453992819224267,0.020066337649775,0.0047622816071823,,,,,1.79740384781532,-119.424856454763,1.69316677600892,AttemptLanding,AttemptLanding,1,0.498734160021482,0.214897844318466,0.139588817646117,0.956154674512445,0.340680452884273
177,1.9258430962627,3.0,-0.972722735001143,-1.63218386155829,1.9258430962627,-0.0777521282041559,0.0017002169771029,0.0777707154271113,-0.057067002989724,-0.145944496073076,0.161347380806425,0.0104076917033565,0.193580450793772,0.196027107328903,15.3314571334381,1.06970584606767,0.970501089383855,0.17703440694562,0.240316620716169,0.141628595695767,0.498903099887869,0.158724270635614,0.0369571714193747,,,,,2.00389774569212,-119.82849383685,2.01034328734287,AttemptLanding,AttemptLanding,1,0.552763580469167,0.255943267835863,0.23754905240924,0.895452599177214,0.337053957468548
178,1.83567956550009,2.59189605712891,-0.986009879969534,-1.52824794205854,1.83567956550009,-0.0575191573485674,0.0035485793787086,0.0576285161850993,-0.0543649423781676,-0.124879458677301,0.139269525898342,0.0089834602871388,0.147635803908556,0.149855372478755,15.4253379390495,0.845065781103978,1.05857423187211,0.17594972908599,0.240225504490798,0.174421187891269,0.500610884476939,0.155558942686563,0.041197907389065,,,,,1.88108853169074,-121.75609313085,1.89702644672869,AttemptLanding,AttemptLanding,1,0.519485625295776,0.180713938583751,0.192546728243333,0.897067963926478,0.322479472048325
179,2.50926221613103,3.0,-0.662534691926673,-2.38860751428566,2.50926221613103,0.0069338008763103,0.0081882232192366,0.0107296129510979,-0.0317085554241956,-0.29962721281558,0.302735693719544,0.0195595467188646,0.211887411340352,0.214328021457352,15.3620286549122,2.28809847152085,2.33182544957246,0.014429041179766,0.055158870476237,0.155168465214726,0.457468934926735,0.0002362157381438,0.0037543818030055,,,,,2.73243854491602,-104.018907315581,2.47189264834544,AttemptLanding,AttemptLanding,1,0.712002195259744,0.112383097078221,0.0689000727659882,0.956486077172955,0.331036237682344
180,1.81082367016965,2.74779939651489,-0.919604725756571,-1.53044338022731,1.81082367016965,-0.0759438758904274,0.0009963764388251,0.0759504117913029,-0.0507760371994103,-0.128013387710059,0.141921858266213,0.0091557672692648,0.178307345500339,0.180477847330663,15.4231458805221,1.07779489856921,1.00910442396213,0.176610787147717,0.240260682903451,0.168936522191043,0.394213301793093,0.155518236504043,0.04169438432109,,,,,1.85620598441334,-119.444845846151,1.86041349119138,AttemptLanding,AttemptLanding,1,0.518981881511373,0.224743780589418,0.219127078876248,0.895297540320538,0.324917101248425
181,1.84131974948419,2.66194200515747,-0.894790323316968,-1.59449128138391,1.84131974948419,-0.0463526020294964,0.0067484050626487,0.0468412711803859,-0.0444720004585875,-0.134744395916068,0.14380614724163,0.0092760117280444,0.125717525323277,0.127904188376313,15.4110827865818,0.925730436940519,0.991885969379419,0.176656093599738,0.240229553740773,0.161738486645268,0.517146855564518,0.159000716230425,0.036736538703895,,,,,1.8944468966032,-118.434379956689,1.51383471483559,AttemptLanding,AttemptLanding,1,0.516599437537714,0.193227573909559,0.199962270683906,0.896604967150474,0.328116228157659
182,2.42810689725206,3.0,-0.447088037041345,-2.3526600634327,2.42810689725206,0.0080557105133644,0.0048407568812997,0.0093982657474122,-0.019580012752932,-0.293019992894171,0.294398323740696,0.0190120742524403,0.223469083242597,0.225748196339994,15.3732626870733,2.07713831144613,2.01405375850624,0.0204536343493571,0.0664345266937567,0.135442291030051,0.503482975704091,0.0002239655217571,0.0052627008311121,,,,,2.61222307005049,-99.3162222201901,2.22108169765904,AttemptLanding,AttemptLanding,1,0.692644811868548,0.130398963505312,0.080252627728211,0.957628102275696,0.339803426208866
183,1.81559296971873,2.50035119056702,-0.96323409307667,-1.52440052449685,1.81559296971873,-0.0568456147578353,0.0063892101344024,0.0572035481708764,-0.051231597720485,-0.122794117844376,0.135222104877071,0.0087264528249249,0.126373700596067,0.128467355838104,15.3456017123966,1.23041113608911,1.19691869609379,0.180471691327909,0.240194329256737,0.151615868602234,0.470691516576669,0.146820653032106,0.0199695938219851,,,,,1.87171872539055,-121.350351106356,2.39447213816494,AttemptLanding,AttemptLanding,1,0.509851596425949,0.164557916855525,0.171250044163862,0.89069227708318,0.332615169510118
184,2.41998407349374,3.0,-0.234384591945822,-2.37839110461605,2.41998407349374,0.012009709262387,0.0047515348745813,0.0129155023220712,-0.009947452165518,-0.306948999047031,0.307438886678589,0.0198329172458446,0.211100711114424,0.212313416032662,15.4436216203497,1.13675624941578,0.79607335533477,0.0460360216180657,0.254713934883246,0.276385501944021,0.653494937158183,0.0018648042847118,0.008260078604946,,,,,2.70378156394852,-95.0700514349474,1.5614892675757,HoldLanding,HoldLanding,0,0.687791769471531,0.132871425556288,0.083555322185342,0.961795470867927,0.277161999135991
185,2.08368952209885,3.0,-1.21617373329297,-1.66010367050489,2.08368952209885,-0.0821973437570155,0.0089837246612463,0.0826868225867826,-0.0860996613396216,-0.151657880191015,0.181098453142007,0.0116813357648599,0.210027289672312,0.212921875633216,15.4256508937657,1.00554805276558,1.02672240467492,0.176944252166477,0.240370473743028,0.168527145108788,0.412246280639609,0.159016465713431,0.0363192189813216,,,,,2.15708888634091,-124.745911655981,2.35120332171085,AttemptLanding,AttemptLanding,1,0.598234914353003,0.221329108335335,0.216678438483207,0.8955600346083,0.325099046618316
186,2.07477936058938,2.87064409255981,-1.14173403013363,-1.70945588381282,2.07477936058938,0.0053254667737029,-0.0002336210211589,0.0053305886297238,-0.0724681120716883,-0.154770269300566,0.175132509003571,0.0113118422214702,0.170941780705472,0.172294107033498,15.3997952588658,2.07765904624156,2.180389501234,0.0280797810792989,0.0527036792564471,0.148291538393531,0.462698840997192,0.021262930679053,0.0059264769695467,,,,,2.10837557196529,-122.363616262261,1.68979447374855,AttemptLanding,AttemptLanding,1,0.587733317563866,0.180046839275465,0.119633377512572,0.952504013730185,0.334092649602875
187,2.04992610216141,2.78692436218262,-1.11119702468108,-1.70774182403541,2.04992610216141,-0.040195689872779,0.0185464080072717,0.0442680780509028,-0.0668637598554766,-0.154226093786478,0.170713408195441,0.0110112655293537,0.136982057415105,0.139680998292021,15.4297577503357,0.962701307516952,0.954842221142016,0.176244291397406,0.240321710869032,0.181075437259776,0.444624653492151,0.159169065090499,0.0371336144640122,,,,,2.09849345512064,-122.244984043751,1.7376707320805,AttemptLanding,AttemptLanding,1,0.57458316023478,0.173940422814104,0.188609192927719,0.896811440861834,0.319522027884544
188,2.02119804628743,2.81741309165955,-1.14322141208582,-1.64318304421888,2.02119804628743,-0.0663189445554996,0.0154964048370309,0.0681053666742099,-0.0733583901708333,-0.144016362650889,0.166240580529953,0.0107231175535773,0.159784043057759,0.162430286679551,15.4004603047265,0.908822373991139,1.05873192928469,0.175851518605997,0.240300613322534,0.166573202491084,0.510961358310951,0.156047110194858,0.0401057296503527,,,,,2.08252249604559,-123.526280590972,2.46004760812805,AttemptLanding,AttemptLanding,1,0.571472203012559,0.191634369098997,0.19891879434815,0.896614885456977,0.325967465559518
189,2.500451797227,3.0,-0.768765950035727,-2.34248336414421,2.500451797227,0.0047328629937819,0.0056097227003302,0.0073395490932693,-0.0408265962700975,-0.289054537108581,0.294203193167077,0.0189983623899454,0.219393292093374,0.221620508276511,15.4114201674477,2.0502422291991,1.96589194981403,0.0275596749935182,0.049205956078764,0.130543537695705,0.481199752616072,0.0209714108472786,0.0077140483372354,,,,,2.71977714743149,-106.924123588306,1.6612273995846,AttemptLanding,AttemptLanding,1,0.711111247582502,0.113743929624358,0.0803720933041173,0.954664822525281,0.34198064991302
190,2.00835170858615,2.99524307250977,-1.10716301913553,-1.63774551513795,2.00835170858615,-0.0850767291163295,0.0087329356884629,0.0855237627965008,-0.0732547162363936,-0.147986884518557,0.172169357236649,0.0111057965922753,0.204954524074842,0.207531377365907,15.3848709214846,0.988374458779638,1.04588781612872,0.176691444378443,0.240314348994521,0.167067639605975,0.398658814099112,0.159437299001607,0.0354514105284905,,,,,2.06580628279313,-122.281189709167,2.06674003364644,AttemptLanding,AttemptLanding,1,0.577066731096155,0.237729913395505,0.226390391826155,0.895670788507927,0.325747715730678
191,2.00215645658003,2.72824740409851,-0.986344982989717,-1.72776643723367,2.00215645658003,-0.052337314693248,0.0023296272591866,0.0523891369700515,-0.0534481968659909,-0.158080349806523,0.168891204876354,0.0108957561333237,0.131881833061416,0.134651532599108,15.4188174090326,1.06831811943136,1.09943111422451,0.177609678987658,0.240297169402881,0.160218486167924,0.528764372252052,0.157452813566407,0.0348159767048983,,,,,2.07634549688122,-118.754548572983,2.33556015726885,AttemptLanding,AttemptLanding,1,0.560838694941164,0.172975138302834,0.186424466398854,0.894162845098875,0.328791783925367
192,2.47364109694758,3.0,-0.946507440700176,-2.25094044455313,2.47364109694758,0.0094896930445398,0.0049422638832801,0.0106995442132627,-0.0558539653947919,-0.267184532598492,0.276364309252721,0.0178457969905805,0.218145112309697,0.22026428606831,15.3858955679297,1.97890814921133,1.83373818223321,0.0198550138007841,0.0571109823438855,0.125295898422615,0.482334903815962,0.0003750050526086,0.0065211526338551,,,,,2.68099720733185,-111.612146549017,2.23453392881703,AttemptLanding,AttemptLanding,1,0.703690483066351,0.120392336292558,0.0747733989182984,0.960115986209687,0.344312934034394
193,2.07887635601533,2.84570455551147,-1.08398683622378,-1.75840732050408,2.07887635601533,-0.054702781132998,0.0007569366849178,0.0547080178477493,-0.0645964719117135,-0.163483849865188,0.178407473295833,0.0115088312459854,0.146149901867793,0.149029587176762,15.3937772143843,1.08392062166897,1.01090317978166,0.177106392333323,0.240302624427811,0.128870656521907,0.480752342513791,0.159431451309791,0.0370183423535817,,,,,2.11900443077325,-120.570247299149,1.78055061163155,AttemptLanding,AttemptLanding,1,0.584172945706108,0.182566148158719,0.193859327100885,0.894987473964798,0.34272415265693
194,2.41601869498982,3.0,-0.956118942465147,-2.18397353646116,2.41601869498982,-0.0126088594500828,0.0204261431097432,0.0240043883273799,-0.0583471749289714,-0.265174357381616,0.27558353522234,0.0177927607483037,0.224179087962682,0.225763679024689,15.3963517577246,1.7983956012176,1.48058147630215,0.0629038851374835,0.24042964678775,0.140109258361949,0.40824407861103,0.0019691089837918,0.0109325639913831,,,,,2.61715863552686,-112.220792726245,2.24066086467702,HoldLanding,HoldLanding,0,0.689424387802224,0.135796598153976,0.0863285962557862,0.942784666107889,0.3377292185058
195,2.01483723541234,2.84058308601379,-1.01841311172344,-1.71399811078694,2.01483723541234,-0.074276109941757,0.005287503080348,0.0744640731957678,-0.0593915719462275,-0.157918563965322,0.172438407791062,0.0111250933441398,0.16407462212568,0.166768755142938,15.405089903605,1.11481503030602,1.06633228021241,0.176447084980394,0.240297761602856,0.1791941179176,0.425310095575845,0.155609356041781,0.0416338823085694,,,,,2.08957514186263,-119.371133784789,2.31120892403814,AttemptLanding,AttemptLanding,1,0.570643680471879,0.199444563137884,0.20396604524583,0.894638871498587,0.3203581698144
196,1.94023630690814,2.88090777397156,-0.911271491779032,-1.69046418655995,1.94023630690814,0.0045644980008201,0.0037468387452258,0.0059053740425324,-0.0477114117261668,-0.151004949706535,0.16120822087741,0.0104058939723395,0.155153242081317,0.156347221828574,15.3776513525283,1.7833871054469,1.68576950481976,0.0268288635849535,0.0542791196222697,0.111515240546468,0.455819100398571,0.0205532837806796,0.0087170552710125,,,,,1.98818975952798,-117.123132335998,1.59446291875577,AttemptLanding,AttemptLanding,1,0.548665792874552,0.212733731997067,0.139944870270022,0.959327909126857,0.350437670868236
197,1.88679337741545,2.58067989349365,-0.835059329360512,-1.67634302732923,1.88679337741545,-0.0532311276669188,-0.002290543154137,0.053280386078113,-0.0395430697006028,-0.148006300126689,0.154845610129796,0.0099909619906015,0.132952415244113,0.1355277291259,15.3315478336634,1.18624065492956,1.03781812430758,0.176346050035547,0.240282985525615,0.179322679698169,0.463054841967918,0.154589278973104,0.0393758490839898,,,,,1.96491164649544,-115.571452830696,2.48720749760341,AttemptLanding,AttemptLanding,1,0.530250446469299,0.165892536898584,0.182560358925415,0.894352227431077,0.320301031245258
198,1.83145328147991,2.67769408226013,-0.812386980185737,-1.61508667520333,1.83145328147991,-0.067330391077641,0.002775439453143,0.0673875702694951,-0.0406873413191329,-0.142398265797484,0.150970765480251,0.0097421557296776,0.176402235630782,0.178724199930824,15.3485624396627,1.2538528806257,1.13670487106081,0.17725230842463,0.240271488903415,0.173416970245917,0.493990645999568,0.159346610412011,0.0351817152755731,,,,,1.88489007794024,-115.359098105949,2.06033413483324,AttemptLanding,AttemptLanding,1,0.524132381714142,0.20275856805829,0.205269207582945,0.892590892024434,0.322925791001815
199,2.45417747210499,3.0,-1.11379830614727,-2.15387966102502,2.45417747210499,0.0040586422033041,0.0052989928687327,0.0066747211145726,-0.0729989953370352,-0.24609735479833,0.261641753359812,0.0168972434623153,0.215833388081881,0.217743041598591,15.3894395424527,2.00787330970895,2.14116911253445,0.0257012408831039,0.0504154933776705,0.139869734777002,0.432964665066493,0.0112019597941136,0.0088445213590421,,,,,2.68563096804021,-116.007396076949,1.95494770481168,AttemptLanding,AttemptLanding,1,0.697995934214383,0.124033767647381,0.0826150989709188,0.954549760526536,0.337835673432444
200,1.9468985054944,2.6885826587677,-0.841172890514558,-1.74214773605461,1.9468985054944,-0.0507217601101366,-0.010086013598951,0.0517148394466082,-0.0397199833622149,-0.160578847558288,0.16681900680973,0.0107615725979123,0.125415941532784,0.128038327512979,15.3931263172157,1.09032536094423,0.94234759403129,0.176538754838517,0.240244922052739,0.161406535480435,0.472540365584625,0.158105330902582,0.0349861281000699,,,,,1.97177383483815,-114.893051128023,1.611073198132,AttemptLanding,AttemptLanding,1,0.544780600301103,0.176359988385037,0.188807257387751,0.895759620791648,0.328263762008695
201,1.81315240505579,2.67986011505127,-0.765038105545206,-1.62507276977173,1.81315240505579,-0.0589005332718688,-0.0053509782184142,0.059143095857458,-0.034169394978224,-0.140464717218411,0.146279904218407,0.0094392406121201,0.13854485691653,0.140780419078952,15.329797723256,1.23034348329658,1.11746476507721,0.177686898590086,0.241900487914739,0.17551603345715,0.469931845752959,0.158373431657669,0.0361322626229503,,,,,1.87135485490829,-114.338554000358,1.58673186427892,AttemptLanding,AttemptLanding,1,0.511663391830669,0.205852135656183,0.207038477831726,0.892709485896306,0.321992874019045
