scenario_id,mean_wind_speed,max_wind_speed,wind_velocity_x,wind_velocity_y,wind_velocity,wind_acceleration_x,wind_acceleration_y,wind_acceleration,wind_body_force_x,wind_body_force_y,wind_body_force,mean_wind_body_risk,mean_wind_gust_risk,mean_wind_risk_raw,min_thrust_margin_n,mean_abs_roll_deg,mean_abs_pitch_deg,mean_abs_vz,max_abs_vz,mean_tag_error,max_tag_error,stability_std_z,stability_std_vz,mean_imu_ang_vel,max_imu_ang_vel,mean_imu_lin_acc,max_imu_lin_acc,wind_speed_cmd,wind_dir_cmd,hover_height_cmd,gt_safe_to_land,label,success,onto_wind_condition,onto_gust,onto_temporal_pattern,onto_drone_state,onto_tag_observation
1,2.03260889526916,2.69205784797668,-1.24994943052032,-1.58492868008561,2.03260889526916,-0.0581767553263577,0.0090381381576314,0.0588746363187012,-0.0845122235204734,-0.132119561358931,0.160601492306877,0.0103612416200288,0.127274296756893,0.129950366144034,15.421785283701,1.03167859848407,1.05185575225534,0.177703533242444,0.240302042451455,0.129403942260145,0.389541106883229,0.156019625823365,0.0392472949040862,,,,,2.0716688985117,-127.374480982322,2.31472368639318,AttemptLanding,AttemptLanding,1,0.568019111967249,0.159169697684289,0.179115618133555,0.894777606337254,0.342487136773269
2,2.29758920358575,3.0,-1.38791169162799,-1.79258957478727,2.29758920358575,0.0101188798902661,0.006134371573814,0.0118330995448889,-0.109224677816814,-0.174180724041618,0.21480659385324,0.0138737994713099,0.231394390177223,0.233091289729012,15.3821739422731,2.03479098921597,2.17182382404984,0.0201472640061195,0.0996427358098751,0.145770611734594,0.469130795349635,0.0002288009345952,0.0058456111399032,,,,,2.42882567996652,-126.095851442396,2.25410262939127,AttemptLanding,AttemptLanding,1,0.659308712235335,0.160211830776436,0.0983544645482728,0.956874394464137,0.335213061451291
3,1.82054037177885,2.51511716842651,-1.12594877616365,-1.4159314265374,1.82054037177885,-0.0363355792080503,0.020552497945656,0.0417454127802169,-0.068592141721487,-0.106624268566955,0.129620804357097,0.0083628605748524,0.120610796111411,0.122659336991739,15.395187046184,1.06605479756827,1.18310374200207,0.176162576212004,0.240280690675379,0.182547130009147,0.490469478218309,0.155755853432328,0.0410395250524306,,,,,1.87319628751653,-127.297520073929,2.2716423064837,AttemptLanding,AttemptLanding,1,0.510009299872707,0.163933104922098,0.182508150356389,0.894246751940231,0.318867942218157
4,2.31344476209591,3.0,-0.659286773710616,-2.18406415419752,2.31344476209591,-0.010484908170566,0.0219163439433519,0.0242952553225625,-0.0339174197774394,-0.269271222475635,0.273248150444681,0.0176419932005417,0.236214337186232,0.237675727282855,15.364309103977,1.7161243325473,1.50772882890228,0.0630686700010864,0.240447351526499,0.13899986161493,0.478036116774253,0.0019999143113942,0.0094525206387538,,,,,2.46779887999601,-105.553838771394,2.28848985446736,HoldLanding,HoldLanding,0,0.664453748682148,0.158929058670889,0.0996835662398718,0.943135390159496,0.338222283726698
5,1.83655866613127,2.76656031608582,-1.0798645530888,-1.45340924733633,1.83655866613127,-0.090502508749558,0.0127331996121329,0.091393864467623,-0.0683467608918993,-0.116403068111294,0.141076637782366,0.0091042382674823,0.185875401696869,0.18819197707624,15.3192251134761,1.04866909722155,0.967887348238307,0.180867867999656,0.242819702623139,0.170309331745809,0.349176915382096,0.156598782214284,0.0409608790089108,,,,,1.88084050141636,-125.058018224367,1.5,AttemptLanding,AttemptLanding,1,0.527387373050253,0.226005913058837,0.220097871691356,0.893721693928702,0.32430696366853
6,1.87083435098463,2.78710126876831,-1.03253199563088,-1.52874766944593,1.87083435098463,0.0054529233804571,0.0020055159829778,0.0058100316480305,-0.0623426343844208,-0.128035718273883,0.147794619568515,0.0095444420558945,0.203809141245362,0.204932808434394,15.3990868258236,2.20893688091632,1.96178765358339,0.0212519935504081,0.0598985407124355,0.136720576218751,0.487389924476422,0.0003630099941422,0.0081924941205234,,,,,1.9161886291726,-122.783489357006,2.21614194497995,AttemptLanding,AttemptLanding,1,0.539875721949447,0.207225228970134,0.127475563928354,0.956604024739441,0.339235299458333
7,1.8945587615709,2.81538605690002,-1.068734556364,-1.54213737102129,1.8945587615709,-0.0617084778452408,0.0101228485766015,0.0625332575617277,-0.0646717501589543,-0.128954282809796,0.148362438094443,0.0095698991352369,0.155236998151394,0.157595392313264,15.4473190051368,0.845455904206252,1.04728590212661,0.176761775422796,0.240279378711705,0.157221595733107,0.43411284668433,0.158806209549735,0.0365788170556843,,,,,1.96867067391655,-123.586570068552,2.10511539480283,AttemptLanding,AttemptLanding,1,0.536734748214894,0.218650572002035,0.21507226879913,0.896747569524558,0.33012373522973
8,1.92909602216772,2.75430154800415,-1.12971541049673,-1.54311772575871,1.92909602216772,-0.0635074871765346,0.0102346845367948,0.0643268971352218,-0.0705238468644959,-0.12785102955793,0.149974289600497,0.009676617123634,0.151661671809849,0.154009330532759,15.4041147442594,1.08148211333272,1.19182858419556,0.176730144625675,0.240292997601544,0.156864954235723,0.501433530163502,0.156990085445585,0.0409014059076277,,,,,1.96461919299708,-125.030810267647,1.6858150342339,AttemptLanding,AttemptLanding,1,0.545227472017944,0.197464507787987,0.203125314493806,0.893773200778012,0.330282242561901
9,2.61443701396419,3.0,-0.817587690891373,-2.44923267931559,2.61443701396419,0.0088722909818022,0.0053534217792625,0.0103622715662374,-0.0437657419637306,-0.31269272324271,0.317926716545226,0.0205299144708299,0.202400655597838,0.204832976978618,15.3736844991397,2.05687370944007,1.86564392829166,0.0226861248194976,0.054964488813507,0.136555687750771,0.456288217325346,0.0006861679168193,0.0096315081724419,,,,,2.98365709536118,-106.900241715489,2.14453702606613,AttemptLanding,AttemptLanding,1,0.738149799119508,0.0886514216452007,0.0569981831138675,0.95783715615093,0.339308583221879
10,1.8598646908193,2.66685032844543,-1.10237104257791,-1.4801276916673,1.8598646908193,-0.0583205765115289,0.0081008518197438,0.0588805013976829,-0.066806320200087,-0.116989694778346,0.138047611586937,0.0089058533376832,0.13136920228329,0.133575635495998,15.4253808712832,1.00911175614813,1.09928848902836,0.176782118101749,0.240223844057677,0.163973352046347,0.450064338151873,0.158029734892736,0.0354733225642141,,,,,1.92399487038037,-126.353098118705,2.2868136783713,AttemptLanding,AttemptLanding,1,0.522679044651013,0.192366527055455,0.198554743986729,0.895042939022739,0.327122954646068
11,1.84455811655199,2.5351128578186,-1.13783722132879,-1.43492303424537,1.84455811655199,-0.0523170982448632,0.0110474189686893,0.0534707792596333,-0.0706715142087615,-0.110330104505191,0.134346747553038,0.0086673065638775,0.13998561040153,0.142089836254118,15.3974254904071,0.968040109158756,1.16323993722879,0.176982430416958,0.240239644502775,0.17730144002814,0.495975801220079,0.158896954594486,0.03908192570484,,,,,1.90759543141243,-127.844704273722,1.74155483985827,AttemptLanding,AttemptLanding,1,0.520300131664688,0.165177792982587,0.183939153845427,0.894763012998476,0.321199359987493
12,2.62690051303659,3.0,-0.790719739004688,-2.47277403995084,2.62690051303659,0.0077315884310775,0.0038956777890929,0.0086575842533586,-0.0412315805291848,-0.318167792857994,0.322786400262049,0.0208399996022334,0.19774697002508,0.200305206704077,15.3931301694477,1.85227533324977,1.82674849805238,0.0300427230760004,0.0490475093185352,0.125998513463986,0.456549444141889,0.0221022560260004,0.0069315312201498,,,,,3.0,-106.299635778902,1.6946282287536,AttemptLanding,AttemptLanding,1,0.74056784481724,0.0855346083465488,0.0636645467157011,0.956072022644626,0.344000660682673
13,1.96942407376057,2.9013466835022,-1.05659458611302,-1.63108161241945,1.96942407376057,-0.0870572802542487,-0.0029200986999729,0.0871062398550436,-0.0660556621458006,-0.144740757407522,0.16454031076649,0.0106132445625923,0.194091828876969,0.196625110591992,15.4451747025897,1.04691163955772,0.901715697672806,0.177198610681338,0.240266654358597,0.167726886129669,0.416780585865,0.15915891332461,0.0368470863249418,,,,,2.02726066309477,-121.319262228342,1.5,AttemptLanding,AttemptLanding,1,0.564504775121218,0.225652064498623,0.219527473991909,0.896090051295377,0.325454717275703
14,2.66438342893825,3.0,-0.752792306476103,-2.51878010305266,2.66438342893825,-0.0327425086233403,-0.0056222137592606,0.0332216971045179,-0.0351144788826517,-0.327716431516169,0.33127046120435,0.0213811015117048,0.200746234751793,0.202758384169047,15.3674040379747,1.6415841805683,1.35139900015521,0.0635348088042744,0.240226274580331,0.123876582047495,0.505320087869772,0.0018463424390225,0.0080890611356058,,,,,2.96211416560549,-104.652706865072,1.65427127461245,HoldLanding,HoldLanding,0,0.751053924550676,0.0816043729580557,0.052724697190983,0.944716299177892,0.344943741312224
15,1.72026566010994,2.62010455131531,-0.927118309319744,-1.42036728590704,1.72026566010994,-0.0743195153779245,0.0091373286668748,0.074879110178848,-0.0509638989069248,-0.110793181973114,0.126439160829366,0.0081547359352014,0.174310666188774,0.17623399800174,15.4480365047483,0.803079212579575,0.803792536690451,0.176024883641969,0.240215631829808,0.143023600070047,0.406079978366127,0.155927790524221,0.0417955029081458,,,,,1.78867162897179,-121.8764556945,1.95667437516998,AttemptLanding,AttemptLanding,1,0.493984308962997,0.216191587387331,0.214214557359257,0.899362137291894,0.336433955524424
16,1.76257063752433,2.56841707229614,-1.00000563460667,-1.43780161307669,1.76257063752433,0.0063216500028094,0.0015352819494351,0.0065054092432591,-0.0541671522983469,-0.108859229565025,0.123839356077866,0.0079975081184203,0.116558666987132,0.117561970433636,15.3963750402073,1.98047076302883,2.12652219192235,0.0176898571726282,0.0694743242805045,0.140046318903837,0.519258341899813,0.0001088482650508,0.0067386812345118,,,,,1.79698325918466,-123.928221238646,2.33415209252729,AttemptLanding,AttemptLanding,1,0.493531230759881,0.182508106184923,0.112003670257465,0.958885841053355,0.337757191598295
17,1.86103283231323,2.66603779792786,-1.02152709539042,-1.52937582627908,1.86103283231323,-0.0632221607629506,0.0152714452817262,0.0650404385942248,-0.0587417569677462,-0.125926946907879,0.143206096695647,0.0092374789187396,0.153145700986229,0.155403823250317,15.4447252976464,0.913558342564928,0.983447899131648,0.176586815640772,0.240241403376099,0.158208868758681,0.456101128282367,0.159128354510963,0.0357098481091842,,,,,1.90606506718967,-122.683382350962,1.81024695524326,AttemptLanding,AttemptLanding,1,0.527356186600258,0.193050197672233,0.199539231031754,0.896801543137712,0.329684947218364
18,1.81523645804232,2.79263854026794,-1.0441408214726,-1.45339357859033,1.81523645804232,-0.0738413608067504,0.0199789745068894,0.076496444284291,-0.0635078259466338,-0.116543592346809,0.138331457853789,0.0089225211052931,0.181990756123876,0.184129583502832,15.4173608515278,0.781391347043911,1.06495221051701,0.176043826917829,0.240299225924431,0.156270285211474,0.538885474142327,0.156395971162439,0.0412199946300103,,,,,1.87952489310621,-124.36494621675,2.35541478933322,AttemptLanding,AttemptLanding,1,0.520888972178519,0.233939816619551,0.224862299444738,0.897471101445964,0.330546539906012
19,2.61615917196242,3.0,-0.778809746556312,-2.46450964970478,2.61615917196242,0.0063787722252237,0.0063373942986093,0.0089917351827849,-0.0402950378145997,-0.316512659339393,0.320976270465287,0.0207301914352143,0.194083625409631,0.196501804609892,15.4036076742955,2.0987450870712,1.97448112455684,0.0285869950120129,0.0537835733357952,0.141145939522537,0.455280859065381,0.0100876964644743,0.0074971563456344,,,,,3.0,-106.031594526481,1.89992570278222,AttemptLanding,AttemptLanding,1,0.736942806778623,0.0880126710919663,0.060017261977197,0.953702582259773,0.337268471323317
20,1.88968156318407,2.911869764328,-1.01424239306796,-1.56298305083421,1.88968156318407,-0.0695549861648417,0.0136660542255702,0.0708848159938893,-0.0603936862215063,-0.134280863897381,0.152561526455591,0.0098427262566259,0.174422705842525,0.176679804267186,15.3563949990584,1.13881327871182,1.13925697449069,0.177248595414087,0.240321564285066,0.171413600837211,0.468764067964925,0.159343180963448,0.0365135501508204,,,,,1.95533603544456,-121.682915799118,2.18433586718678,AttemptLanding,AttemptLanding,1,0.539251044369189,0.242987894856265,0.229889583053368,0.893476578874937,0.323816177405684
21,1.93219370213715,2.89289021492004,-1.06652972108511,-1.57840737736895,1.93219370213715,-0.0805478409254151,-0.008536132630988,0.0809988903506696,-0.0669952903743296,-0.137253870359247,0.158586183225275,0.0102297038578837,0.185604690473856,0.187958427562697,15.4272816208328,1.03659758942475,1.02978082368794,0.176588686402581,0.240282586767534,0.156017209543587,0.456880831577903,0.159635042119167,0.0363036655374468,,,,,2.01006102178809,-122.843348050567,1.69497129500859,AttemptLanding,AttemptLanding,1,0.552843339415779,0.231006511940441,0.222754147695491,0.895469826409967,0.330659017980628
22,2.63287857503795,3.0,-0.740935020912083,-2.49179108359095,2.63287857503795,0.0092119267594517,0.0063102303493384,0.0111659572667647,-0.0379575611384446,-0.322842652429228,0.326756248453201,0.0210996129578551,0.199162476405072,0.201695092906797,15.4154105847554,1.9695102239874,1.97297553645241,0.0298110456728915,0.0511016688494464,0.13249863578384,0.430887007411168,0.0192945924481807,0.0094328878613085,,,,,3.0,-105.373889448931,1.75434834213177,AttemptLanding,AttemptLanding,1,0.742439971924813,0.0846494127820341,0.0627951631311099,0.954117803331527,0.341111717429404
23,1.66716979081566,2.43529438972473,-0.819653297340447,-1.43448674673905,1.66716979081566,-0.0495724828461902,0.0002871187358592,0.0495733143203509,-0.0386625009087842,-0.111379576011778,0.119947707964909,0.0077361224621064,0.140211392037179,0.142044034314189,15.4486689827612,0.872229222319653,0.780915761694957,0.176352544304133,0.240197122182139,0.134994828543947,0.397123407030074,0.158223703858812,0.0369362065990991,,,,,1.75191981509009,-118.497538474994,2.34135330652042,AttemptLanding,AttemptLanding,1,0.472987417747014,0.181916475713271,0.192902879441653,0.898834731544961,0.340002298424913
24,2.6419582436575,3.0,-0.595860672161297,-2.53949976039883,2.6419582436575,-0.0163083215759209,0.0089914360133036,0.0186227622603356,-0.0288147086356364,-0.342999295806252,0.345486363142863,0.022297717533383,0.201337765814188,0.20333505703377,15.4072429573992,1.61727303537584,1.30842998774129,0.077365240064573,0.240550955134575,0.12832653775926,0.456576886447337,0.0730566467335268,0.099703907494102,,,,,3.0,-102.185830974197,1.86672866647059,HoldLanding,HoldLanding,0,0.745189209715419,0.0839735682581251,0.119109728086823,0.938329713357507,0.342965983218107
25,1.63758841997538,2.50603246688843,-0.919573062740167,-1.33453196779363,1.63758841997538,-0.040005015923951,-0.0011150962126536,0.0400205539521762,-0.0518147040904513,-0.102928187409876,0.118394806456653,0.0076364929041809,0.149892185290976,0.150831603115991,15.4545640437597,0.749790797237998,0.92626488209843,0.163130976121397,0.247478506609962,0.225012127857408,0.49081735912912,0.157723461877684,0.0048001814643172,,,,,1.79680657025774,-122.144595008979,2.11665780985163,AttemptLanding,AttemptLanding,1,0.466856565949966,0.202737012113335,0.193487044190562,0.90526550303023,0.299994609841152
26,1.84749535314215,2.8629744052887,-1.03638942389492,-1.49931128077882,1.84749535314215,0.0069578325972987,0.0061800278872281,0.0093061366387427,-0.0624284292755922,-0.122343128042217,0.14264647786069,0.0092117331674172,0.190227793183308,0.191277068703617,15.3601567052054,1.9985728317579,1.99269133054406,0.0193185634185222,0.0712872966556883,0.135364526412467,0.458336972126701,0.0001096744848693,0.0096088103922573,,,,,1.89015622586425,-123.159855511628,2.29789366803063,AttemptLanding,AttemptLanding,1,0.530920841245298,0.230188911783408,0.141656204155454,0.958980785586938,0.339837988261126
27,1.71449476923492,2.70198106765747,-0.834171187467403,-1.4729759175008,1.71449476923492,-0.069940482275845,-0.0078999354016105,0.0703852260089246,-0.0418654417938533,-0.118911855172971,0.12921246274561,0.0083353256848656,0.169592158722588,0.171654340699078,15.4098068079286,0.936352734193956,1.05050472748962,0.176789946538054,0.240286872582481,0.175204750096406,0.449165831931277,0.157932037106328,0.0365958699956014,,,,,1.77620387229689,-117.832865156267,1.69252784331893,AttemptLanding,AttemptLanding,1,0.491529473269126,0.235088375246711,0.224552630729037,0.895994003817745,0.322131222179375
28,1.73148271280366,2.49257707595825,-0.970663431290315,-1.41432148589077,1.73148271280366,-0.054970505326842,0.0013234697149957,0.0549864349451287,-0.0526455616359017,-0.107226995121077,0.122563985071689,0.0079050090996367,0.137780102956826,0.139755920899652,15.45311149358,0.855871647568741,0.851140267071078,0.175939665082322,0.240223057136554,0.149492733224609,0.446506349858341,0.159617769114325,0.037189558541952,,,,,1.77693740749085,-123.63065316624,1.96106450596768,AttemptLanding,AttemptLanding,1,0.48967990759424,0.18132707811639,0.193260953420749,0.898617930986669,0.333558785233507
29,2.61898599898935,3.0,-0.522747032423427,-2.53535800403965,2.61898599898935,0.0046808084497373,0.0017111061410954,0.0049837588193277,-0.0229406555228721,-0.334781453394624,0.336368348970846,0.0217182746255614,0.198851235908088,0.201463575907414,15.3971560376191,1.88958964344026,1.80667294130179,0.0296678360749939,0.0679167429922462,0.12351090183672,0.525994056129532,0.0213616762296803,0.0058743888236918,,,,,3.0,-100.208461528465,1.65788978925689,AttemptLanding,AttemptLanding,1,0.738688981578642,0.0866418393442736,0.0636153233212999,0.956124018796673,0.345106265850347
30,1.85833369645496,2.62590551376343,-0.950632846490177,-1.57651365559916,1.85833369645496,-0.0677859328747442,-0.0018112454654023,0.06781012686786,-0.0514303694798236,-0.132438812994204,0.145135914967651,0.0093620764822332,0.152300127478705,0.154602650388884,15.3723171596955,1.01092535138403,0.958629382041253,0.176477429875645,0.240265512477105,0.150960358171358,0.453134558534641,0.156526656335108,0.0417602438112832,,,,,1.90894849737311,-119.745808657761,2.28682556372345,AttemptLanding,AttemptLanding,1,0.526476182465767,0.185135515486845,0.195834255311814,0.896286212156693,0.332906507479396
31,1.92123710549118,2.67329382896423,-0.957524582114197,-1.6518238465694,1.92123710549118,-0.0542396526230702,0.0044000951697195,0.0544178348905386,-0.0505542024870304,-0.143963955687925,0.154528050160028,0.0099671915934013,0.124609056655009,0.127024460590557,15.4076278295297,0.915728857080139,0.901213350739112,0.176118368894333,0.240292458471397,0.154828832037413,0.515921653696024,0.154789409618623,0.0394901102729398,,,,,1.95935225919259,-119.13516242978,2.43500788722443,AttemptLanding,AttemptLanding,1,0.537734786915759,0.179189365844703,0.190668952769905,0.897664841062825,0.33118718576115
32,2.61144419099176,3.0,-0.643846833845201,-2.49768941534462,2.61144419099176,0.00597481701684,0.0049253143700173,0.0077432008903437,-0.0308916391881644,-0.324896872777814,0.327645381444011,0.0211614991710978,0.201630704772351,0.20419281391814,15.3970138341279,2.18824810075233,2.02010713520981,0.0153995117328908,0.0518720787725944,0.140420813639668,0.409837785484445,0.0004695491444095,0.0069243300267307,,,,,3.0,-103.01941117063,2.45803111274801,AttemptLanding,AttemptLanding,1,0.737223680381431,0.0888446438567499,0.0560334130142149,0.959234595850995,0.337590749493481
33,1.86412101259103,2.68910431861877,-0.824798567932558,-1.6515483587414,1.86412101259103,-0.0684340621662982,-0.0091725964928814,0.0690460526822641,-0.0399139395656114,-0.146683975866501,0.154191247981984,0.0099459037093205,0.153213725901738,0.155562324134138,15.3834729986476,0.931860243960089,0.973667565176093,0.177137771925669,0.240242260690228,0.151646896031711,0.463786474155538,0.158158805564905,0.0364442410396205,,,,,1.93692079365451,-115.089103932968,2.02115579501992,AttemptLanding,AttemptLanding,1,0.528211401517768,0.198279686847992,0.202513065869221,0.896459109822524,0.332601379541462
34,2.61442856305206,3.0,-0.536437336334292,-2.52560976735844,2.61442856305206,-0.0089513636273515,0.0123281066855727,0.0152351280020857,-0.0257267704272304,-0.338369228084889,0.340339319099944,0.0219709504395087,0.199422493066881,0.201436774474896,15.3761756265441,1.68840848508667,1.52157913919466,0.0628085850896631,0.240492796524262,0.140604443147634,0.440735769401463,0.0019141993785612,0.0098095712330412,,,,,3.0,-101.157933097739,2.44989120223854,HoldLanding,HoldLanding,0,0.737468305042195,0.0895466801136691,0.0581458801595771,0.943374376121529,0.337509136378829
35,1.79552193590113,2.56333780288696,-0.798623741397718,-1.59376807855425,1.79552193590113,-0.0520661493249181,-0.0122564909660006,0.0534893024475392,-0.0361316453167618,-0.133664212403243,0.139962923250064,0.0090274542201585,0.121566363354011,0.123769363873448,15.4228573007935,0.968759013674721,0.826498642409248,0.176276879170966,0.24020846668944,0.128967832564098,0.393534005351501,0.158754567181267,0.0369160929666397,,,,,1.86137587595629,-115.841095627455,1.57706934169797,AttemptLanding,AttemptLanding,1,0.503559722348323,0.182564942187195,0.193520584532265,0.897755964545286,0.342680963304846
36,1.98151489085577,2.82181477546692,-0.89757688282862,-1.74334607441347,1.98151489085577,0.0049433833844181,0.0033797930916707,0.0059883253608873,-0.0466580472405972,-0.160362121301261,0.169713701149635,0.01096034928499,0.162978112006154,0.164365822363937,15.3704304516658,2.0467583604312,2.23353847748634,0.0143540679729372,0.0452373070493704,0.147756319009493,0.429778545293828,0.0002705633556744,0.0086900067141571,,,,,2.00134863438598,-116.022448666907,2.49523553556806,AttemptLanding,AttemptLanding,1,0.561277135367659,0.190165333687005,0.117379453034014,0.959192062287036,0.33433052488467
37,1.79246968111476,2.69751667976379,-0.802272381239723,-1.58512427885416,1.79246968111476,-0.0567035913588501,-0.0010100564671453,0.0567125866722571,-0.0376312176736685,-0.134908561162632,0.141880422049532,0.00915141158849,0.146335504403048,0.148596229695254,15.4175731573593,0.815835482657241,0.980326944820163,0.176601594314593,0.240211188024976,0.130498101700809,0.482184902021178,0.158688217199674,0.0358606314624216,,,,,1.84847057739295,-116.145839673518,1.72951078187697,AttemptLanding,AttemptLanding,1,0.507711160902988,0.214032882252612,0.211988055507455,0.897586498055381,0.342000843688529
38,1.91102007171452,2.94031381607056,-0.77228691743022,-1.7191513991241,1.91102007171452,-0.0823795316587317,-0.0014585769136625,0.0823924431178311,-0.0388167978061262,-0.162314201139463,0.169463994990982,0.0109299307465319,0.196495356974933,0.199078921983085,15.4607782303931,0.924849955686521,0.797545457108488,0.175837957392637,0.240350831914843,0.15634960773004,0.417635739883885,0.155143624950147,0.0405422235352177,,,,,1.9993932608471,-112.620106358339,1.5237048753237,AttemptLanding,AttemptLanding,1,0.549421136853821,0.246696373718378,0.231713173171171,0.898547914488864,0.330511285453315
39,2.61314382082643,3.0,-0.631436100195765,-2.50409009143564,2.61314382082643,0.0054215826180981,0.0031115904855774,0.0062510441875578,-0.0296505339731493,-0.327779204745908,0.330315371486133,0.0213287697160246,0.19946499371237,0.201973965880247,15.3888904864007,1.9372595428353,1.87230162432254,0.025999924030172,0.0568978826806168,0.125161087387954,0.474080719554323,0.007839311298892,0.005665124249179,,,,,2.9987372183553,-102.731971335258,2.01252443210603,AttemptLanding,AttemptLanding,1,0.737233145396429,0.0881886650817733,0.0584573825856468,0.957067771671531,0.344372850049798
40,1.92266596643717,2.63732242584229,-0.290245381534796,-1.88836442392943,1.92266596643717,-0.0491911898920653,-0.0097631357453536,0.0501506927427671,-0.0070018180178622,-0.187870693035149,0.188141491412555,0.0121339948106187,0.135743051277404,0.138849314080754,15.4641825813984,0.947224988878814,0.603108192541329,0.175815728589072,0.240236676918522,0.125232913492512,0.370183269259806,0.154855209840681,0.0394031879228088,,,,,1.96262077332345,-97.9255988407311,2.09040936235704,AttemptLanding,AttemptLanding,1,0.540480787199395,0.169991997035659,0.185148167900295,0.899910946422877,0.344340927336661
41,1.86323543577581,2.76287722587585,-0.269216416620857,-1.81944327909502,1.86323543577581,-0.0683180223660233,-0.022800525883553,0.0720223309854036,-0.0084919608204118,-0.17927261435165,0.179739046077284,0.011593116904596,0.181429479278422,0.184258098468975,15.444735315632,1.0819452510248,0.629963420724524,0.176228270852296,0.24025422695803,0.153168073103487,0.39812395160758,0.158553929450185,0.0363318029834326,,,,,1.94919332297993,-97.076725643542,1.8357980820608,AttemptLanding,AttemptLanding,1,0.533714402567344,0.215623496786501,0.21305407588212,0.898435153581536,0.331925300842895
42,2.61559521753254,3.0,-0.62735121577665,-2.50536391899753,2.61559521753254,0.0060108024385508,0.0077194781307274,0.0097836643731308,-0.0298655867141997,-0.326930486119627,0.329518553512871,0.021284715947447,0.198778724391372,0.201482375929699,15.3756504105661,2.14047808859945,2.03171177806138,0.0264631724030594,0.0584382477067804,0.131948684525865,0.46261231063973,0.0070608811513002,0.0059369128471117,,,,,2.97766096785849,-102.83550377438,1.99292668135999,AttemptLanding,AttemptLanding,1,0.737788533194616,0.0882847478569197,0.0582678955136794,0.953986921988992,0.341356140210727
43,1.81976202371958,2.68264198303223,-0.242225009990994,-1.79072238272731,1.81976202371958,-0.0501720654180448,0.001691565035386,0.0502005731100902,-0.0055943015488218,-0.168982086511582,0.169178648631104,0.0109138984556175,0.129489076145045,0.13230486962738,15.3720935498235,1.1695520517414,0.753027118169149,0.1770506459863,0.240228816973388,0.157089186652855,0.418413460202563,0.159827978094474,0.0341643087890626,,,,,1.87761184680711,-96.9149867627548,1.6769814040246,AttemptLanding,AttemptLanding,1,0.511730846917364,0.203351429248862,0.205468899494399,0.896368697814696,0.330182583709842
44,2.52688937129745,3.0,-0.610461537324665,-2.42110169010775,2.52688937129745,-0.0219258365415217,-0.0080218488219262,0.0233472132505653,-0.0272805719051902,-0.306883047700791,0.309239965674426,0.0199586165244668,0.219759375696869,0.221586183828775,15.3939446376761,1.61128493521846,1.23883618359865,0.0627286297619606,0.240278036903251,0.121020248952867,0.459128769493479,0.001910332737278,0.0093069358469513,,,,,2.70268226585959,-102.84402520654,2.00327688289385,HoldLanding,HoldLanding,0,0.718154402445074,0.110730213887345,0.0706715054125129,0.946241876328314,0.346213222687615
45,1.64952232653663,2.50461316108704,-0.236405849833441,-1.608852096141,1.64952232653663,-0.0736242556160123,-0.0255104099440777,0.0779186244137229,-0.0069945223428548,-0.141106659855754,0.141518320495085,0.0091266911261683,0.165823212914005,0.168087005958467,15.4194748535342,0.79989985494035,0.64201744579984,0.176525522772683,0.240243470253573,0.130412393795829,0.466819070490896,0.154852084681842,0.040566910791097,,,,,1.74484723470437,-96.8322370152764,1.88840053758166,AttemptLanding,AttemptLanding,1,0.473490021601461,0.206680518916358,0.207583064021336,0.900407888393557,0.342038936090743
46,1.68160485703012,2.39152312278748,-0.229673100395949,-1.64932165514843,1.68160485703012,0.0051795344441979,0.0051094524549576,0.0072755811759684,-0.0057755633322088,-0.143639074646441,0.14390134696918,0.0092932311885707,0.135090487440196,0.136282413126246,15.4239221444376,2.09673552723856,2.08001208785048,0.0186298454877033,0.061791449492681,0.140170600610548,0.465270163933476,0.0003208725331807,0.0098503763265111,,,,,1.71876069037497,-96.5690723186371,2.31872820419565,AttemptLanding,AttemptLanding,1,0.475684444499948,0.161065466344332,0.100363844849168,0.957867774566163,0.337701955284201
47,1.79898011445999,2.53980493545532,-0.151120390143257,-1.77229850889706,1.79898011445999,-0.0604181094315541,-0.0248540429908062,0.0653304783410629,-0.0039790483933786,-0.166217338190843,0.166383937797095,0.0107328417261337,0.145195045894295,0.147928893871474,15.4171112684327,1.0400702999589,0.749700154296072,0.177862653479316,0.240212766405139,0.151003378642374,0.361015837490821,0.147298814928729,0.0291021224779957,,,,,1.8330973949862,-93.5355183886098,2.21398677144655,AttemptLanding,AttemptLanding,1,0.509313809296959,0.178662839086478,0.183246433412209,0.897006191119767,0.332887387270056
48,1.57390259039111,2.52168011665344,-0.219725333922305,-1.53506940944661,1.57390259039111,-0.0441882454911627,-0.0340876609933931,0.0558083297688415,-0.0067751649031002,-0.140378430293396,0.140788907654931,0.009079511869128,0.173115653217577,0.17391630880525,15.4780353983871,0.691504666560297,0.694287797411892,0.164111856434041,0.245469039311935,0.237047179146327,0.50232994079068,0.16299460679597,0.0047560086976957,,,,,1.76093856199151,-95.8152911333806,2.20565807047682,AttemptLanding,AttemptLanding,1,0.45449061919868,0.223481470533312,0.208260387493115,0.907055702423198,0.294645698157188
49,2.50512684986344,3.0,-0.639857163090651,-2.38936764526065,2.50512684986344,0.007007417862099,0.0051759335054644,0.0087117273113346,-0.0313818530246436,-0.312193628138561,0.315176481880588,0.0203566835854594,0.208275901841775,0.210693149333008,15.3779171338441,2.06079188836406,1.84358483526612,0.0164075469556252,0.0529311279164415,0.141604465447947,0.356857609331815,1.50815450881462e-05,0.0063435191523591,,,,,3.0,-103.690253195533,2.38089050916794,AttemptLanding,AttemptLanding,1,0.710172456496853,0.112943608787804,0.0700796024188317,0.961118980836522,0.337064682023135
50,1.65491299774196,2.30419516563416,-0.137192661495593,-1.63819988343644,1.65491299774196,-0.0400335020818837,-0.0231915466654704,0.0462658526958802,-0.0024711597849951,-0.141444533467265,0.141508072698217,0.0091265683862914,0.11583623428772,0.118255465023299,15.4489638164244,0.747628992934091,0.726996601018151,0.176770248806937,0.240171892980319,0.136857792433235,0.41824892748217,0.159541986524056,0.0369438818454252,,,,,1.72627812567413,-94.411640590645,2.37200272916848,AttemptLanding,AttemptLanding,1,0.464961225735848,0.154570560769989,0.177084024881123,0.90002853164405,0.339174314474118
51,1.57071365013316,2.50774741172791,-0.128613058322014,-1.54380754565412,1.57071365013316,-0.0559257837223623,-0.0300175137246997,0.0634723909678293,-0.0032131184923597,-0.131050223051572,0.131202740092963,0.0084617091908149,0.158087294546924,0.160342219034013,15.4593195712424,0.897899631025823,0.606909047516308,0.176115249056446,0.240208804190968,0.126869150167914,0.412810068042283,0.158848212841156,0.0374377807605608,,,,,1.64198518080473,-93.7945426045898,1.7640484127181,AttemptLanding,AttemptLanding,1,0.450925417175645,0.222469201369587,0.217694464987318,0.900118878711803,0.343613711036483
52,2.61882025182845,3.0,-0.632838667770926,-2.50919106443291,2.61882025182845,0.0070897163721594,0.0035279709402098,0.0079190060735316,-0.0297080654619526,-0.327909902569052,0.330488693160533,0.0213428856471783,0.196049156224095,0.198544321786064,15.3949815843666,2.11360899976386,1.97464304869001,0.0227877816281377,0.0535841626936048,0.130775381703185,0.428471868299566,0.0003009525266353,0.006095998350316,,,,,3.0,-102.899260755177,2.14187018198762,AttemptLanding,AttemptLanding,1,0.738060931511467,0.0872172611187457,0.0546808400225942,0.956484128805222,0.341877608131918
53,1.73554053177705,2.43450403213501,-0.1399342569724,-1.71872008761744,1.73554053177705,-0.0438066856797267,-0.0242047613581615,0.0500489378773208,-0.0026280206508894,-0.155923034054813,0.155988678933706,0.0100626109154914,0.12608327705425,0.128748329882557,15.4242534043949,1.09963596476376,0.75690315140914,0.176228651713835,0.240230545050916,0.165359442956001,0.413223803818552,0.156820848583232,0.0410703542675233,,,,,1.76767167051157,-93.7767495596924,1.98586907061257,AttemptLanding,AttemptLanding,1,0.488560474450391,0.166442426191384,0.18449828491981,0.897298581087438,0.326506914241777
54,2.6075793504715,3.0,-0.548389723596188,-2.51397806122413,2.6075793504715,-0.0161811706101664,0.0142075247677968,0.0215333239966075,-0.0263248666662183,-0.339225583754885,0.34138279890615,0.0220380127291804,0.200701607915325,0.202688462944117,15.3834512574621,1.79549147114847,1.47152036691242,0.0627918259869859,0.240401957728604,0.127946947220119,0.452789610759594,0.001912383250266,0.0078474851953778,,,,,3.0,-101.106544404973,2.26396340166653,HoldLanding,HoldLanding,0,0.735892186047889,0.092242422209958,0.0590490324173415,0.942934708278886,0.343134690124392
55,1.6629627105352,2.35399699211121,-0.157581737413531,-1.64442557008571,1.6629627105352,-0.0375865126283553,-0.019671709167505,0.0424231313452038,-0.002976441344135,-0.142547950814788,0.142633976685007,0.0091997937516412,0.109461358419604,0.111833777715825,15.4522569179219,0.931285042936366,0.632249496157616,0.176374895806164,0.240192656483759,0.157712907902827,0.422122903104727,0.160011938778411,0.0371327812559669,,,,,1.6954412846166,-94.4207914550518,2.23535881878357,AttemptLanding,AttemptLanding,1,0.465823478352553,0.163260287434554,0.182575419243206,0.899527637861179,0.32990537426541
56,1.69548135098805,2.41336846351624,-0.0877011083608632,-1.68158903444583,1.69548135098805,0.003385416990283,0.0058423186040386,0.0067523132976183,-0.0015738344076468,-0.148054881807423,0.148098253140312,0.0095621438621748,0.118758289981703,0.119970976658315,15.3781074961168,1.91100406957717,1.99120385055151,0.0164003416297419,0.0733816742128459,0.135287840227387,0.447880146872229,0.000315106378923,0.0079108243947013,,,,,1.73280982852964,-92.1431804697514,2.41510800545868,AttemptLanding,AttemptLanding,1,0.476122555595143,0.162762524423405,0.100674225349819,0.961139624098404,0.33987207101005
57,1.57318859372363,2.24297499656677,-0.194521719891295,-1.54623709536495,1.57318859372363,-0.0514647042578843,-0.0145003267973593,0.0534684510864277,-0.0044079133897296,-0.127868166094441,0.128055741925119,0.008258865807024,0.13415124514577,0.136247725162939,15.4722548863378,0.809389053529779,0.660433669912601,0.175581043782791,0.240188490018322,0.161265706372284,0.372087906554434,0.156675944669385,0.0390692242327197,,,,,1.65239533729994,-95.8334835366937,2.18288068551782,AttemptLanding,AttemptLanding,1,0.446766503358889,0.160504490005552,0.180143437819804,0.900660870995843,0.32832635272343
58,1.6214783050724,2.5027289390564,-0.111919313122184,-1.59359566731776,1.6214783050724,-0.0632618233943205,-0.0376616474157603,0.0736237596516453,-0.0031035214881957,-0.139328164883381,0.139511346580411,0.0089991175544828,0.179594484992745,0.18191012444658,15.4501591634648,1.02813291275175,0.673337856827055,0.177124742775858,0.240219053343553,0.142726924632083,0.387712656383665,0.15822643698413,0.0363999979739255,,,,,1.68060545220575,-92.4282145747537,2.14510369415388,AttemptLanding,AttemptLanding,1,0.468776239575289,0.211779081915868,0.210626672930965,0.898068929708238,0.33656581127463
59,2.52596753217704,3.0,-0.513446646174756,-2.43883516687001,2.52596753217704,0.0084058443129213,0.0053007458444768,0.0099376116406715,-0.0231543089406436,-0.312906634630751,0.314668323920213,0.0203243356049713,0.208373295315972,0.210882430243199,15.38436308417,2.01933169564534,2.23484757566661,0.0141653223430352,0.0473701498721701,0.147263586121108,0.417218107079637,0.0005680354346734,0.0090273297040791,,,,,2.78982386220964,-100.41262924442,2.49912541512755,AttemptLanding,AttemptLanding,1,0.715767827962516,0.108479200727623,0.0686226459767001,0.959491644553889,0.334549517279508
60,1.63449246980049,2.37339973449707,-0.072200329203995,-1.6162569188553,1.63449246980049,-0.0446575882775753,-0.0300135802053585,0.0538062746109868,-0.0013790299526106,-0.140345991321572,0.140418646461325,0.0090563328648375,0.141765255642442,0.144063335640432,15.4590347659615,0.950509389236904,0.540728449207677,0.17610794086366,0.240188815188944,0.127230486823155,0.379116128229153,0.158883288880386,0.0358058454007218,,,,,1.72864210057146,-91.9462754292346,1.77846265597425,AttemptLanding,AttemptLanding,1,0.464677325741549,0.176118618235413,0.189306273417641,0.900229160837534,0.343453116967487
61,1.6074544139005,2.24516534805298,-0.196115928686481,-1.58023495869389,1.6074544139005,-0.0439512471756797,-0.0223047167801342,0.0492870420997212,-0.0045313923958837,-0.132871964203915,0.133059383087698,0.0085821510885336,0.129496797944808,0.131636254414087,15.445086376319,0.930878261817206,0.685596569000018,0.176147307447279,0.240188453292615,0.138565253446042,0.380500841761977,0.156797966541036,0.0385275388689638,,,,,1.6541677253945,-95.777639022521,1.76620562237546,AttemptLanding,AttemptLanding,1,0.454981761256285,0.152520917902589,0.175210550005071,0.899225472605654,0.33841544291287
62,2.60480334487647,3.0,-0.533533674245341,-2.51785882890377,2.60480334487647,0.0056733431044107,0.0045015980849349,0.007242320574143,-0.0237207966197643,-0.330449722669373,0.332172145892968,0.0214504019806226,0.198702668857001,0.201336492877725,15.3455339722523,2.0912310520862,1.82772083244633,0.0291643864336034,0.0617574598421855,0.132134633297947,0.430066618420178,0.0223953117646863,0.0067014424192981,,,,,2.96888331606625,-100.576107342626,1.70779981180736,AttemptLanding,AttemptLanding,1,0.734881523875938,0.0902470061747202,0.0665385637527203,0.954626041976157,0.341273496312024
63,1.5500734472597,2.26148223876953,-0.0891689176930427,-1.53182534510557,1.5500734472597,-0.0462008492285229,-0.0160162874532217,0.0488982610449588,-0.0017627696947112,-0.126426168718358,0.126497507128341,0.0081598632046426,0.13134062059573,0.133328444692808,15.4093002196765,0.9206603929575,0.871482672321463,0.176174970576058,0.240188122782866,0.168365909324236,0.399250117326864,0.158949215883035,0.0354957902112013,,,,,1.60300708299886,-92.1234906695166,2.36912438937426,AttemptLanding,AttemptLanding,1,0.440018608207814,0.169031659281289,0.184970651593589,0.897831390627637,0.325170706967006
64,2.60991091856034,3.0,-0.584782792062746,-2.51086052629946,2.60991091856034,-0.0152295213807682,0.0107291824369151,0.0186293767274132,-0.0280441275787042,-0.335314425585429,0.337638953589448,0.0217936954364539,0.201984920944181,0.203976953424633,15.3536370016296,1.62565946749775,1.35000532551772,0.0628302240412956,0.240447073018654,0.11820037289168,0.38466831546827,0.0019038822378877,0.007584963084907,,,,,3.0,-102.201792877698,2.32370882248405,HoldLanding,HoldLanding,0,0.73677163563435,0.0911854290572828,0.058315595712387,0.945204664605659,0.347466500937031
65,1.51319763829579,2.1111114025116,-0.125001411331901,-1.49722928537206,1.51319763829579,-0.0341695098914998,-0.0190969535314931,0.0391439527948994,-0.0022344697742621,-0.118648091762277,0.118708686057892,0.0076568326568708,0.106668631011284,0.108713441800704,15.4600935793916,0.948620390061826,0.625384865484577,0.176209677150999,0.240157649422981,0.143725710130579,0.393152959229004,0.158586544056027,0.0336679400505535,,,,,1.55228808798252,-94.2268777224065,2.32199625341292,AttemptLanding,AttemptLanding,1,0.425262058572352,0.141706988294288,0.167749988737028,0.899527977273779,0.336121906608631
66,1.58244234921541,2.3639543056488,-0.136103653308961,-1.55472380331235,1.58244234921541,0.0038500107411473,0.0097966123184415,0.0105259771814682,-0.0036225622657961,-0.130583067064718,0.130765756786221,0.0084437236493077,0.163897582661092,0.16495015336969,15.3884615339985,2.14088965170452,2.00430262899353,0.0264775185835502,0.0516193624444562,0.136167033794684,0.370963074897563,0.0101572016668961,0.0092245862018054,,,,,1.60696450398557,-93.5145725727472,1.96864763378265,AttemptLanding,AttemptLanding,1,0.454974657131382,0.177769952680782,0.114530678442898,0.954191872788455,0.339481318313474
67,1.6481354510462,2.72744822502136,-0.117557053245695,-1.6223910930163,1.6481354510462,-0.0591639404056414,-0.0409215952236996,0.071937116984034,-0.0031076109950435,-0.144146555486956,0.144307496403751,0.0093110312908894,0.167181224725092,0.169516003808604,15.3855048368639,1.11968145580662,0.88601749404327,0.1762804477856,0.240244772069233,0.154969157938105,0.403831616130953,0.159260212845872,0.0359615715056332,,,,,1.70472744872138,-93.0615211949791,1.99467232363652,AttemptLanding,AttemptLanding,1,0.473405987707373,0.256033845591485,0.237479559268236,0.896100712929808,0.331124818694175
68,1.61222942858129,2.24369120597839,-0.138386202827104,-1.59624205863082,1.61222942858129,-0.0382110488508151,-0.0274115326390335,0.0470263370453215,-0.0024113335557537,-0.134294658180312,0.134354824807262,0.0086681614370657,0.0985363859301628,0.100790520696288,15.3916822259772,1.04235497736727,0.847005562594783,0.176961199951034,0.240183954618183,0.182444852026322,0.439089695470057,0.158803426357417,0.0359880204688184,,,,,1.6346567991892,-94.1375227104005,2.13492324076713,AttemptLanding,AttemptLanding,1,0.450085951760935,0.150700395039324,0.174086090524643,0.896674424353352,0.318913399099413
69,2.61143395444691,3.0,-0.399549351602164,-2.54895330150678,2.61143395444691,0.0091876719887759,0.0062924039967665,0.0111358728724722,-0.0164925697774866,-0.337747515540295,0.338655735101967,0.0218679517974782,0.192178695652949,0.195018343520369,15.4203615747037,2.06190536781302,1.84037704442413,0.0258185946000421,0.0479976652185073,0.130455858854818,0.425537937433305,0.0088492991631805,0.0074915955910427,,,,,2.97762147861884,-97.4745863886534,1.99982430832093,AttemptLanding,AttemptLanding,1,0.735386056556583,0.0894689369427324,0.0603386005945029,0.956429912318116,0.342019618286747
70,1.70863472932094,2.43870115280151,-0.0865563282582384,-1.69464233018089,1.70863472932094,-0.0370315365945236,-0.0155448519357429,0.0401618864628606,-0.0017946503280835,-0.151449522323024,0.15150872821233,0.0097736597921751,0.113438697490254,0.115923960689119,15.4171757928066,1.06541594358169,0.808055236421498,0.176249548916059,0.240205901546833,0.156574480858226,0.432341465697123,0.156045834929788,0.0408628806575828,,,,,1.74106956136438,-91.9626622500687,1.81586538554683,AttemptLanding,AttemptLanding,1,0.478820719956741,0.171627957801321,0.187189708424061,0.897155094841946,0.330411341840789
71,1.58888617583684,2.33475756645203,-0.207728310298506,-1.56523625050567,1.58888617583684,-0.04730921190408,-0.0216874154733835,0.0520433042849923,-0.0042251297929001,-0.136549954463184,0.13668326574478,0.0088169420534439,0.12542668611934,0.126756981524018,15.4198793543033,0.871375038840202,0.855231634218597,0.172001676552976,0.24179071206579,0.227116530249027,0.403659595830321,0.125841524102501,0.0049922730339906,,,,,1.67774962146967,-95.9395937551425,2.37327388943415,AttemptLanding,AttemptLanding,1,0.44905437652796,0.177362335340667,0.164162339484539,0.900432966435193,0.299059319889321
72,2.4914853815305,3.0,-0.552240699029861,-2.39852093961245,2.4914853815305,-0.0335418832049327,0.0245265018501183,0.0415524634881881,-0.0253402514666396,-0.316875478774613,0.318957832857355,0.0205803523714294,0.191847876983879,0.19384346384975,15.4035435073802,1.24248363155996,1.16969181408937,0.0160111211532638,0.0655149141419962,0.219515791522425,0.59842810783237,0.0004638290320495,0.0056169145473712,,,,,3.0,-102.28205700878,2.47342362716899,AttemptLanding,AttemptLanding,1,0.703164794511417,0.122033740795138,0.0754689050944115,0.973041632350409,0.302437425990033
73,1.69392739357175,2.34861469268799,-0.172498260363004,-1.67425801470821,1.69392739357175,-0.0427248536548102,-0.0185937820495448,0.0465955132038582,-0.0033433320506043,-0.147736377836934,0.147831787931563,0.009537125379662,0.118371122464246,0.120796657972663,15.4036148884036,1.04811838418613,0.848539646817489,0.176915544502537,0.240208777739178,0.145365325350433,0.426663465982247,0.158493403325045,0.0365255310826533,,,,,1.730743683828,-94.7490683234343,1.67047816239969,AttemptLanding,AttemptLanding,1,0.475873303213666,0.155847153055194,0.177231815724808,0.896639914647989,0.335393188733141
74,2.61130351998239,3.0,-0.552943492834269,-2.51915568766653,2.61130351998239,-0.0093370118691394,0.0113146782555899,0.0146697557809246,-0.0265815178184771,-0.335410870043301,0.337543058958529,0.0217880083289819,0.198054973861265,0.19994523485169,15.3971419645769,1.72942403458735,1.38313441526801,0.0630375414128752,0.24062239381788,0.12186751738941,0.372661409564958,0.001937849221944,0.0097069787383165,,,,,3.0,-101.440236798872,2.42827821455608,HoldLanding,HoldLanding,0,0.736336652298975,0.0901461632304654,0.0584787747094402,0.944025412901842,0.34583665893804
75,1.65854102173108,2.43647718429565,-0.16294793712023,-1.63850805085064,1.65854102173108,-0.0515295718984747,-0.0243277833074413,0.0569836627525284,-0.0033280086130624,-0.143040458048117,0.143137744140205,0.009232113248831,0.124736372929779,0.127019787820443,15.4515882707853,0.954454223312153,0.640018891818493,0.175247346391605,0.240200661419674,0.144700616443342,0.393490619388378,0.154510755378671,0.0410610640408761,,,,,1.72844746755899,-95.0560971705178,1.93325084257349,AttemptLanding,AttemptLanding,1,0.467681563359042,0.185482641414994,0.194892327698825,0.899848323756743,0.33568861491407
76,1.76686395450579,2.57363629341125,-0.233874218475842,-1.73341649282969,1.76686395450579,0.0027520321600428,0.0026006341397318,0.0037864203330651,-0.0060162285163234,-0.158581727006404,0.158844459514033,0.0102542555930008,0.146446471423632,0.147714181036738,15.4112758620374,1.63552894408886,1.87664491110255,0.028362860527622,0.0448076954264927,0.124321973791497,0.370874595280852,0.0230088386489727,0.0064549739917676,,,,,1.80133462105751,-96.2777836497926,1.76436939862285,AttemptLanding,AttemptLanding,1,0.500706557408892,0.182217953314791,0.121904185769263,0.958222918016828,0.344745789426002
77,1.73188667925628,2.4703106880188,-0.150327315803484,-1.71338079443763,1.73188667925628,-0.042870756054746,-0.0288935171174438,0.0516985208310795,-0.003135465077371,-0.154763880811779,0.154857041183243,0.0099886582043264,0.116152270168447,0.118735296791638,15.4366915304422,1.05117076224142,0.674648717134651,0.176437688713886,0.240223462875065,0.112631661474218,0.346797995313822,0.158556821164728,0.0361003825810816,,,,,1.75923009576763,-93.8331549635916,1.63735201413344,AttemptLanding,AttemptLanding,1,0.485583507160004,0.17562346412393,0.188971188617459,0.898221145447959,0.349941483789236
78,1.7768199218286,2.45639514923096,-0.190558821340124,-1.75356556453426,1.7768199218286,-0.0476376576281804,-0.0102090677753219,0.0487193133073615,-0.0041845900225899,-0.162017528741659,0.162153390148371,0.0104595898979162,0.122572837506286,0.125264699086418,15.3783871965107,0.999770262648707,0.779073186834665,0.177030000155597,0.24022031175862,0.146155112315995,0.469404004899335,0.158796849260314,0.0353099545469155,,,,,1.84421771642335,-95.6415120879709,1.93270589821128,AttemptLanding,AttemptLanding,1,0.498871585638245,0.161836300271879,0.180518141083762,0.897508372819118,0.335042172304002
79,2.63022400868819,3.0,-0.417725401307342,-2.56418311903026,2.63022400868819,0.0091058731779167,0.005002593524793,0.0103895557319168,-0.0176868509280966,-0.341525406575409,0.34254468517024,0.0221254825892672,0.19517461607537,0.197969945295487,15.3426224656637,2.12045755542818,2.14609456276166,0.0170719079836222,0.0732725753852118,0.142148214915941,0.457846558435383,0.0002318917423194,0.0076524523506079,,,,,3.0,-97.5958361626102,2.38149684913462,AttemptLanding,AttemptLanding,1,0.740987058042615,0.0851043499293418,0.0539483828998672,0.957941136508126,0.336823015592915
80,1.80783292351153,2.51029562950134,-0.216216594881879,-1.78319390822376,1.80783292351153,-0.0467334002868868,-0.0132263053590386,0.048568980386919,-0.0046540006329238,-0.167711003042698,0.167855900670253,0.0108279240642842,0.122944902485051,0.125689099579231,15.4047785210574,0.995504379281179,0.825517166950415,0.1758647993507,0.240217539658105,0.160462624432675,0.437349593357769,0.156641573553803,0.0405733630765397,,,,,1.84269174465958,-96.4089816842801,1.84984764277736,AttemptLanding,AttemptLanding,1,0.507226599518921,0.166958421918643,0.18454748049586,0.897759573889973,0.328683278029922
81,1.85725905283077,2.60420322418213,-0.2116296711393,-1.82763927601522,1.85725905283077,-0.0566987045080846,-0.0219200739868306,0.0607884260076145,-0.0055175072581629,-0.176427112833106,0.1766589375628,0.0113952336338835,0.141104829063017,0.143940150261884,15.4422974294512,1.03320783109106,0.800340490917061,0.176848964762385,0.240240116897898,0.160477343992054,0.432809908855902,0.158235113550406,0.0355331326155726,,,,,1.90149022471625,-95.3637271300002,1.64926238663422,AttemptLanding,AttemptLanding,1,0.52405711080725,0.179206983322118,0.19077204625972,0.897169066517315,0.328676736003532
82,2.58507647761533,3.0,-0.403239226021485,-2.51875613101798,2.58507647761533,0.0092488146789845,0.0107078434006115,0.0141491513264301,-0.0173817102654083,-0.331022858376526,0.332088251775183,0.0214436993981692,0.204953481305418,0.207644872420164,15.3835502132674,1.97146834764741,1.85587051819165,0.0268132415639619,0.0696842133931909,0.137948499442614,0.459744884562172,0.0123646457999401,0.007379863763427,,,,,2.91783086718893,-97.7855854258006,1.89531623657606,AttemptLanding,AttemptLanding,1,0.730882701848121,0.0959518036130628,0.0657500671242087,0.956521430986427,0.338689555803283
83,1.70254913455731,2.41514921188354,-0.316061403661743,-1.66118161487879,1.70254913455731,-0.0400237939270942,-0.0126910521553053,0.0419876992121167,-0.0075756777227954,-0.14618926748864,0.146550989132799,0.0094523407151077,0.115999907565294,0.118345396036375,15.4563484894127,0.987882066221098,0.664827804574394,0.176379169010051,0.240193823214094,0.136732520992704,0.369988573712525,0.157859992262745,0.0360845461906047,,,,,1.75027764965131,-99.5200046041142,2.00203673721096,AttemptLanding,AttemptLanding,1,0.477682181755891,0.168032762253957,0.184101307073814,0.898824837938724,0.33922999066991
84,2.60914770150072,3.0,-0.424667716069941,-2.53971052809305,2.60914770150072,-0.0194820523291747,0.0087358470080677,0.0213510043301262,-0.0190933076465226,-0.34327294230299,0.344497532894923,0.0222403002624984,0.205632956343648,0.207665481389917,15.3728300143898,1.70711853940978,1.55002041330293,0.0625036208282253,0.240568460884336,0.13415442630104,0.416765492546232,0.0019051733665712,0.010731863812269,,,,,2.95681470906161,-98.270421652992,2.15473623225747,HoldLanding,HoldLanding,0,0.737305816678174,0.0918561179561953,0.0598629104239275,0.943156383528859,0.340375810532871
85,2.05560687989802,3.0,-0.475087245588573,-1.96977350119451,2.05560687989802,-0.0798373818021618,-0.0223107684693163,0.082896187624737,-0.0191501223002115,-0.210957253167317,0.212631935920754,0.0137166860114555,0.208573054287756,0.211922225275019,15.3976525020083,1.09073735980811,0.920700577636826,0.17753729768426,0.240342586248844,0.151852525392487,0.451678837668318,0.157986419535215,0.0374380032174114,,,,,2.10680641889481,-101.731697741666,1.8841685396817,AttemptLanding,AttemptLanding,1,0.590546279694476,0.227686086420814,0.22044165766437,0.895427195935088,0.33250998871445
86,1.97505454415063,2.93032455444336,-0.560644921968825,-1.86467877417142,1.97505454415063,0.0029788505558873,0.0017616582516737,0.0034607788762069,-0.023597142621723,-0.187837498707805,0.190576746210494,0.012306808519013,0.206636282523321,0.208102406760994,15.3965316114553,2.12591778959113,1.8576539613882,0.0297208818164128,0.0509084451502597,0.136056640375571,0.425945442723818,0.0235780346117825,0.0073792282889625,,,,,2.01104491577433,-105.279667622794,1.59178734913358,AttemptLanding,AttemptLanding,1,0.5683016931257,0.215570228443169,0.142504619301468,0.95384006676267,0.339530382055302
87,2.01220879441983,2.72688746452332,-1.1613852175049,-1.62805681666835,2.01220879441983,-0.0590679780917105,-0.0050010101812868,0.0592793061588622,-0.0730697027893525,-0.140487573750593,0.161196135917046,0.0103975136962661,0.140270436354712,0.142843054955521,15.4281193189536,0.862232462770901,1.01220545767068,0.176571218809099,0.240275507555925,0.146841131840141,0.402812241252605,0.159453730559875,0.0386124285502769,,,,,2.06469467336038,-124.238920485483,2.0865966229554,AttemptLanding,AttemptLanding,1,0.565157622836392,0.171670573569076,0.187911551943915,0.896986664077695,0.334737274737715
88,1.96638376003987,2.79360771179199,-1.11860362939786,-1.6018774631873,1.96638376003987,-0.0592327440044722,0.0031301028134577,0.0593153901270333,-0.0689930699415372,-0.136503141012644,0.155722830600136,0.0100445861547484,0.13395706096941,0.136494994499655,15.3952309752717,0.918179869307095,1.00348902081691,0.177073291650781,0.240271470944163,0.142978456409412,0.510811268128663,0.158569250440243,0.0372765654925263,,,,,2.00959748573364,-123.70580417537,2.01648219127583,AttemptLanding,AttemptLanding,1,0.55166800157723,0.196999877334183,0.202230263542951,0.896364527180778,0.336454019373595
89,2.62931164052574,3.0,-0.249546728289024,-2.58374402376493,2.62931164052574,0.0071894227406196,0.0065222853859266,0.0097071111046907,-0.0096884052141149,-0.346787005782613,0.347232416183124,0.0224224829561293,0.191847754265014,0.194632935220028,15.4063357177237,1.93575290003666,1.96294294007604,0.0266706883159448,0.0544996877952957,0.124759408649495,0.437621065321024,0.0090406458013222,0.007747217147447,,,,,3.0,-94.0907171926139,1.9596874898767,AttemptLanding,AttemptLanding,1,0.74007635785087,0.0851845179175682,0.0579459454229275,0.956032045669714,0.344551373933558
90,1.9600016926759,2.65144634246826,-1.07421464988751,-1.62375980157402,1.9600016926759,-0.0554695888146168,0.0048426973341085,0.0556805801041301,-0.0632082299956558,-0.139798226951715,0.156156249178618,0.0100717117116759,0.139113494353802,0.141595595029864,15.4428805473973,0.885743354978249,0.903113232988959,0.175568904629241,0.240261252552681,0.146509495298723,0.425956393425405,0.156222307333508,0.0410158634975777,,,,,1.99637079272466,-122.311062912018,1.73255982297485,AttemptLanding,AttemptLanding,1,0.550986237052881,0.165783152555704,0.183816887579757,0.89816024592278,0.334884668756123
91,1.90689678288795,2.53917813301086,-1.14626057435041,-1.50832557490487,1.90689678288795,-0.050108387427806,0.0028523729259365,0.050189506093642,-0.0710089214203713,-0.120360228484225,0.142746345996199,0.0092079816913439,0.118664983009759,0.121049026316749,15.429229922941,0.949478730361787,0.96137076022622,0.176410967325911,0.2402536277369,0.15899275756986,0.453137795329929,0.158583146279237,0.0369856540702444,,,,,1.94546366280019,-126.251978914843,1.67150860065567,AttemptLanding,AttemptLanding,1,0.532715614033469,0.151464713228157,0.174809555036038,0.896780698910996,0.329336552191173
92,2.61996199853444,3.0,-0.47309597042612,-2.54627404260616,2.61996199853444,0.0031762837713429,0.0028086668869762,0.0042399750327205,-0.0200664789527708,-0.33750133085609,0.338765305710035,0.0218698403361349,0.196033428153817,0.198728650057494,15.4051403832579,1.86060062248666,1.67704854197328,0.026857189618338,0.0552186759753155,0.127026512416656,0.485367072165509,0.0110772175800169,0.0055325563590392,,,,,3.0,-99.2513675644137,1.92400412347148,AttemptLanding,AttemptLanding,1,0.738402262954017,0.0862858790857494,0.0587065739408048,0.958775590327217,0.343543772259264
93,1.68946364199793,2.42333936691284,-1.02596363667054,-1.32022502698908,1.68946364199793,-0.0578112635285331,0.0124099907285374,0.0591282509520439,-0.0584242749509941,-0.0938607060761652,0.114567199228524,0.0073897200441362,0.137905493737278,0.139746370231664,15.4426412337497,0.970993439819043,0.90808757394203,0.176623589131881,0.240199432266174,0.132565175369025,0.407174240934928,0.157441773759532,0.0355049740928738,,,,,1.74681180591764,-126.657123786368,2.27246273890054,AttemptLanding,AttemptLanding,1,0.478472911912448,0.175962217447063,0.188462351809277,0.896923997468794,0.341082144280433
94,2.63928886142573,3.0,-0.215185578583661,-2.59635710060251,2.63928886142573,-0.0044162554096567,-0.0061815157815641,0.0075970026458497,-0.0095282336495227,-0.348219420393789,0.348660808976406,0.0224967199801115,0.196767140356373,0.198751282629206,15.3949673246753,1.40976657799402,1.17415612487852,0.0715993245454773,0.244466892078721,0.223492383386689,0.60346836797256,0.0623489271619041,0.119679979445931,,,,,3.0,-94.2734617915732,1.99251993114192,HoldLanding,HoldLanding,0,0.743560619572704,0.0825527899976155,0.120762300818542,0.943898087918977,0.300670051828138
95,1.62986739152143,2.58164024353027,-1.016772548347,-1.2617213599751,1.62986739152143,-0.0521031258141564,0.0131784162648591,0.0537438961637107,-0.0617480492782678,-0.0940445403746964,0.114939040217378,0.0074121938713643,0.138102350558404,0.139638219197502,15.4726204269393,0.639962165328176,0.76088873696366,0.163241598189583,0.240475726013407,0.163685524353782,0.359779012666492,0.159304841343608,0.0355752594095994,,,,,1.86493072097439,-128.583435678336,1.67520303799522,AttemptLanding,AttemptLanding,1,0.462558948245214,0.224001939332004,0.2181397732746,0.907372515244344,0.327250878064986
96,1.72123418045682,2.64316368103027,-1.06061725058577,-1.32407844227695,1.72123418045682,0.0075353142718313,0.0016877162006265,0.0077220040889087,-0.0643959169891049,-0.0960732773208298,0.12151279001535,0.0078496750190459,0.180589091892297,0.181525942722645,15.4048952448093,2.19738609845029,2.07861425664591,0.0191526528879918,0.0566629788276725,0.146985001774785,0.490978374438105,0.0003060451908664,0.0052230689387341,,,,,1.76269102467469,-127.19753908103,2.28646125247603,AttemptLanding,AttemptLanding,1,0.495300969999681,0.208849838378661,0.127345220907929,0.95682652790882,0.33467333254454
97,1.77262086078927,2.42934274673462,-1.08789219350379,-1.38567624221292,1.77262086078927,-0.0484743327275833,0.0060615428413242,0.0488518498626374,-0.0641978932644853,-0.101851522948421,0.12295847666032,0.0079305951327549,0.120464767931808,0.122473799178437,15.4507172787211,0.762909732996765,0.994102640957499,0.176075254304885,0.240248090668771,0.15901382806279,0.424249118580912,0.155836073110596,0.0404134320769034,,,,,1.81622668042125,-127.513201967813,1.8154606248464,AttemptLanding,AttemptLanding,1,0.49719365604616,0.15671859681252,0.177987428508065,0.898157275623631,0.329327187527649
98,1.8798168462676,2.62937164306641,-1.19119351752755,-1.44012853687024,1.8798168462676,-0.0497580669015466,-0.004894029945943,0.0499981674753243,-0.0767084385201702,-0.109774549506996,0.136750386629957,0.0088212298625788,0.12033369600152,0.122498189642341,15.4078706085534,0.98848119043726,1.04438894818786,0.176341693390387,0.24026692925237,0.156742700781189,0.491045812216948,0.158564803988234,0.0377643462230837,,,,,1.91962505408224,-128.853168090004,2.49271624952456,AttemptLanding,AttemptLanding,1,0.525784130266494,0.177816159983542,0.190895431742784,0.895856602215609,0.330336577430583
99,2.61798083184156,3.0,-0.17348875771903,-2.5793062111883,2.61798083184156,0.0060161352664474,0.0035341724562175,0.0069774105866345,-0.0069193225074308,-0.346778160224474,0.347105765158214,0.022411843171495,0.194155587965003,0.196958874811063,15.3911683012735,1.9191727963657,1.83106973392012,0.0286565341032111,0.0502869297986298,0.130298753218595,0.451206239779541,0.022785205951092,0.0061204402168308,,,,,3.0,-92.2002194325483,1.64022307081775,AttemptLanding,AttemptLanding,1,0.737519996786629,0.0872335047765317,0.0646924756907065,0.956205541639006,0.342089443013958
100,1.61878369788866,2.5872848033905,-1.02167610151858,-1.22525177737297,1.61878369788866,-0.0748105244841496,0.0057147439557043,0.0750284804062618,-0.0601090597512201,-0.0832632521893403,0.108086494631154,0.0069716383082137,0.156296885519196,0.157927744745029,15.4567985850121,0.872719379758535,0.919935814565175,0.176793068703488,0.240204475821541,0.154374608255184,0.333031493507731,0.159068371549786,0.0368101245804395,,,,,1.68546986904653,-128.540481584722,1.77549080780035,AttemptLanding,AttemptLanding,1,0.463261201719315,0.23166797014573,0.223083335956998,0.897518317692855,0.331389062997696
101,1.67429154708579,2.35230422019958,-1.08317658458869,-1.26177820431676,1.67429154708579,-0.0517649986246578,0.0013516951698855,0.0517826434478109,-0.0635247792128735,-0.0843765271845204,0.108356801687216,0.0069906290773439,0.108160901552005,0.109920190760696,15.3876191823705,0.969813701345413,1.13974775438111,0.176346105737838,0.240187316806026,0.167293870695017,0.506951300666441,0.155288497262893,0.0408158073131805,,,,,1.69807149429304,-129.55767099295,1.77027702555083,AttemptLanding,AttemptLanding,1,0.468461784041683,0.162046336082703,0.181087023294488,0.895251821407516,0.325647168579992
102,2.62516737622162,3.0,-0.140623726369521,-2.59006358177512,2.62516737622162,0.0040992082426075,0.0081004854888751,0.0090786217771056,-0.0048516192731199,-0.348703205935222,0.348945225042645,0.0225341032957966,0.193611347186835,0.196521866648151,15.3853935771838,1.99371477971769,2.01120484271848,0.0223193013938892,0.0628919118837589,0.133030353298517,0.490635359346872,0.0005561759711114,0.0067489938430014,,,,,3.0,-91.8482151525671,2.14324795747612,AttemptLanding,AttemptLanding,1,0.739349006988729,0.0860017543426045,0.0543024215053299,0.9573731236982,0.340875398533992
103,1.63940086316418,2.5579092502594,-1.04587755354738,-1.23270820769792,1.63940086316418,-0.0725693967297167,0.0063738745565287,0.0728487722516817,-0.0632286221852749,-0.085823343554725,0.112165508258748,0.0072345843576272,0.171056572008192,0.172747865772934,15.3768036071577,0.886781467383165,1.04794852131852,0.176264906345937,0.240252251722739,0.138615487651753,0.452482886900256,0.156611850962796,0.0410150720391508,,,,,1.75398132014352,-128.600052606655,1.95963927077552,AttemptLanding,AttemptLanding,1,0.471723136665035,0.220019995342566,0.216531835950716,0.896666096915804,0.338393116599221
104,2.68183856591946,3.0,-0.37903024725848,-2.61956778680701,2.68183856591946,-0.0305037956522705,-0.0108364720575018,0.0323714484669515,-0.0139442818003892,-0.351452130491843,0.352160158043061,0.022734011259038,0.200810249077906,0.203044397854199,15.4148302992141,1.82946686105938,1.40699627222103,0.0632006140970978,0.240271691889343,0.138229360347342,0.480291847388798,0.0019312631669657,0.0099232295377792,,,,,3.0,-96.2939600424606,1.561750893606,HoldLanding,HoldLanding,0,0.755765830482695,0.0775210882203965,0.050979439222203,0.942970339761391,0.338564728734515
105,1.72534645963835,2.53390121459961,-1.09957817637664,-1.29784017824599,1.72534645963835,-0.0708592386075108,0.0263273781462799,0.075592079850295,-0.0688463775252525,-0.0931196377853765,0.121867256610528,0.0078605836950402,0.169383362768423,0.171296619109993,15.4226213621405,0.832190553804469,1.01455238344859,0.1755847770483,0.24025883237651,0.148272220586598,0.484936698763287,0.156155008266864,0.0418905946213096,,,,,1.78074250763471,-129.221424924807,1.53908269739951,AttemptLanding,AttemptLanding,1,0.494351713058893,0.195783367838837,0.202105190098344,0.897697488397433,0.334101235294845
106,1.86349031478665,2.63654804229736,-1.08878468301819,-1.4895008457518,1.86349031478665,0.0023878914058296,-0.0005444571771425,0.0024491751639638,-0.0655295020160553,-0.117695981059112,0.138809257555313,0.008962382001626,0.147463914739771,0.148607001891825,15.3726168255141,2.04908998414863,1.97053519453001,0.0204089184858194,0.073103801647067,0.132138318780766,0.515995201941255,0.0007367769804846,0.0108503797815913,,,,,1.88415857146299,-124.959215831678,2.23943382855121,AttemptLanding,AttemptLanding,1,0.526652150988138,0.174387004136637,0.108905251565605,0.958212771496044,0.341271858319659
107,1.6345349973118,2.62831425666809,-0.993862093274413,-1.26875861716479,1.6345349973118,-0.0720351829229378,0.0040804597520302,0.072150659945208,-0.0578521580858733,-0.0892375851401638,0.111469038336976,0.0071896464254264,0.177022027738175,0.17881260367077,15.4537868518963,0.885168300448357,0.889723725329712,0.176539042996566,0.240204082573106,0.154667856418652,0.415337697406668,0.15903165677348,0.0352363227414692,,,,,1.72726488943798,-126.550224489005,2.36574074534201,AttemptLanding,AttemptLanding,1,0.4716385200173,0.236827954345121,0.225590717220467,0.897784898299175,0.331258730480599
108,1.71664878726006,2.33099293708801,-1.03838097975542,-1.3522740310107,1.71664878726006,-0.0420681660940723,0.0110834374485001,0.0435037146022414,-0.0582640155485539,-0.0970633311036197,0.115772482875521,0.007468171834903,0.116773724927753,0.118679767766083,15.4095945976023,0.835773746432883,1.08925465487755,0.175719820184327,0.240216840064361,0.159760384149094,0.507558016182596,0.155933882497467,0.0408798579005884,,,,,1.72684939224008,-126.925173742408,2.4129526359673,AttemptLanding,AttemptLanding,1,0.481508963489231,0.146203114721701,0.171891219482614,0.897014866754683,0.328995384822625
109,2.63066943114418,3.0,-0.305875410446717,-2.57694599889442,2.63066943114418,0.006675049849074,0.006929034361046,0.0096212165376411,-0.0128133609060207,-0.344909849541594,0.345569124760478,0.0223153704297917,0.198071791995888,0.200805189643198,15.3817371541538,1.98936123232736,1.84494163043762,0.0285691057369059,0.056712199922304,0.128417148743591,0.422527750110087,0.0195274808012939,0.0053773629078885,,,,,3.0,-95.4171668207032,1.72656217413019,AttemptLanding,AttemptLanding,1,0.741672886233754,0.0848632676911273,0.0615522456645847,0.955588781781251,0.342925711669515
110,1.624673050522,2.28851175308228,-0.954721177466543,-1.30253246969087,1.624673050522,-0.0500449582693243,-0.0062094729795998,0.0504287160540776,-0.0494229569615519,-0.0895765356021649,0.104186881103217,0.0067194039146833,0.115343526932973,0.117047707692024,15.4643025144658,0.775000445606929,0.813993030374792,0.175422300207512,0.240154147804476,0.141584773461292,0.398592276003815,0.156147196325124,0.0405905444489209,,,,,1.65985778043302,-125.136897277648,1.52536098860295,AttemptLanding,AttemptLanding,1,0.456655688344273,0.158608972685975,0.179324335515288,0.899803901156388,0.337073434017203
111,1.54108722897984,2.37188458442688,-0.928115709164691,-1.21788217549792,1.54108722897984,-0.0395199448508493,0.0119619289351586,0.0412906016529664,-0.0467189058390341,-0.0790605139141452,0.0937922362929336,0.0060496739095836,0.0969523500976543,0.0985057062526472,15.4484924838836,0.813370223459517,0.900938574920346,0.175687294665727,0.240171306240808,0.14224726628229,0.397694854202657,0.156662413087989,0.0394639559636748,,,,,1.59306398738573,-126.486183134521,2.15637637971373,AttemptLanding,AttemptLanding,1,0.430657735645154,0.194499348611961,0.20067787775873,0.898686783537009,0.336778992763427
112,2.62510848723128,3.0,-0.243069760701854,-2.58255818554374,2.62510848723128,0.0049661440606273,0.0058293357318773,0.007657920207592,-0.0092406744748699,-0.347735599207203,0.348138352536518,0.0224824126331449,0.192159600113339,0.194941023277893,15.3734615716681,1.99404642782156,2.03326168864284,0.0136085440370128,0.0484042169465629,0.135142052459012,0.432354378228836,0.0001035959342691,0.0077865521616233,,,,,3.0,-94.1056534981467,2.49033839556322,AttemptLanding,AttemptLanding,1,0.739017134583919,0.0857545424110212,0.0543302415973833,0.961552592780702,0.339936865573773
113,1.77160438975772,2.51771855354309,-1.03293459170254,-1.42582663227274,1.77160438975772,-0.0514842772892337,-0.0014046031201626,0.0515034340400703,-0.0581484721444635,-0.107617830495837,0.124667697782619,0.0080412118856587,0.119114969147437,0.121087212531215,15.4342618041612,0.949611059936673,0.894973251926401,0.176871185082602,0.240229856131102,0.139203460366018,0.403729975425183,0.159556167566334,0.0359343297335501,,,,,1.77528590773906,-124.910768203071,2.07385712593973,AttemptLanding,AttemptLanding,1,0.496645279774969,0.177317983092387,0.190371671101154,0.897071245008346,0.338131795392881
114,2.59332914578171,3.0,-0.38858012105119,-2.53306401274375,2.59332914578171,-0.0118842211827501,0.0151064980570566,0.0192208479695455,-0.0168953672335122,-0.343149919170559,0.344111524486764,0.0222186799427255,0.200874553165869,0.202958791623385,15.3986297723253,1.78675696353797,1.66750196621246,0.0627437258338427,0.240447638470234,0.149534008782837,0.421684251878293,0.0019114739787352,0.0091379562347684,,,,,2.9979851142919,-97.9705526263991,2.43604619745224,HoldLanding,HoldLanding,0,0.732146197199801,0.0950247643268646,0.0611872957629472,0.941487531206468,0.333540440540961
115,1.83407632696549,2.68932271003723,-1.05994598921067,-1.47322412066935,1.83407632696549,-0.0649229033415425,0.015381694616044,0.066720161177537,-0.063224350664635,-0.116238977139185,0.136520835978782,0.0088062702711479,0.1519438737008,0.15416989760138,15.4141562524436,0.935582296274186,0.990026933953116,0.17681013324609,0.240235569796378,0.144436853312621,0.433569839371248,0.158566009654047,0.0359455288621008,,,,,1.89315516909655,-124.179562229341,1.93001390622041,AttemptLanding,AttemptLanding,1,0.519921000044405,0.204662465740358,0.206342362917081,0.896465146568026,0.335805842972169
116,1.66387333359607,2.42344379425049,-1.01129963913122,-1.30807342016813,1.66387333359607,0.0016098889347823,-0.0021929205153312,0.0027204122424543,-0.0549947143480605,-0.090024040945488,0.107730297434053,0.0069559605894324,0.110869367456424,0.111748532360871,15.372069123055,1.76676726215761,1.91731016605466,0.0275469412123557,0.0562542740895986,0.135487509103831,0.510515110910705,0.0203259261153814,0.0067302944953308,,,,,1.69700248239393,-126.66944677606,1.76763561138651,AttemptLanding,AttemptLanding,1,0.466049262097792,0.171402095891695,0.11432238229167,0.957280206743583,0.339783329287186
117,1.55238496577801,2.27535223960876,-0.925285080704543,-1.23283921819669,1.55238496577801,-0.0441494701188774,-0.0165633082968428,0.0471542033493718,-0.0504736889663484,-0.0866164094394595,0.102518546072158,0.0066116228679358,0.131888983513992,0.132828542664883,15.4790672543107,0.648239027979756,0.832744772461664,0.165868418736003,0.245964187972492,0.212525551985414,0.482238795190031,0.153899140058711,0.0052234622597495,,,,,1.6721231422542,-125.43586516234,2.28963959492362,AttemptLanding,AttemptLanding,1,0.440535032740447,0.171312573892637,0.173086602961181,0.905429489342816,0.305544199117594
118,1.57792643947496,2.44169497489929,-0.988248804920242,-1.21859557319199,1.57792643947496,-0.0371678540868363,-0.016609128776504,0.0407101036124307,-0.0576621221337064,-0.0860671564665568,0.10574684660208,0.0068204839731994,0.140884719552463,0.141948138551938,15.4470282340863,0.576727797583444,0.986711307976252,0.166768476274321,0.24540403507695,0.238868971751575,0.481418104348459,0.26498623378354,0.0051485527383951,,,,,1.78141492798702,-127.597402747289,1.76415919684672,AttemptLanding,AttemptLanding,1,0.449170011570377,0.201811439466087,0.240730724134783,0.904331597462013,0.293836012554856
119,2.57419219583173,3.0,-0.371614787653475,-2.5159301354966,2.57419219583173,0.0063300169637425,0.0038115603824956,0.0073889855400237,-0.0153579223394289,-0.330591618890796,0.331432434137231,0.021405546127635,0.204847345218316,0.207461717709016,15.3912025198162,2.08911243476396,2.02229376324771,0.0172434042995086,0.0491111874541036,0.140935367811477,0.434141253615591,0.0004516027428485,0.008416066910355,,,,,2.88139783872518,-96.8469577847742,2.3560470042705,AttemptLanding,AttemptLanding,1,0.727943595763598,0.0971614032868645,0.0615579422696754,0.959074392008725,0.337362058750455
120,1.70557058542161,2.60296368598938,-1.01913072016913,-1.33813205127122,1.70557058542161,-0.0667157443129202,0.0160684177704866,0.0686234988096194,-0.0605066387639925,-0.0990802378179754,0.121340676782676,0.0078265256593703,0.17021525118824,0.172201990463084,15.4384988653519,0.967397270561792,0.76695632869411,0.176720986748081,0.24022796592498,0.150511164552069,0.377259813157428,0.158286192865446,0.0358374102613036,,,,,1.76744363452008,-125.864521808831,1.57792488166955,AttemptLanding,AttemptLanding,1,0.489259220871714,0.214494422409511,0.212077858046581,0.898012442631806,0.333106149087969
121,1.69097133544651,2.70245575904846,-0.9771413968601,-1.34932309249865,1.69097133544651,-0.073573858316349,0.0149938396467851,0.0750861362363765,-0.05619226439371,-0.101441462351449,0.121252877822802,0.0078212634518991,0.173549992595291,0.175335438929039,15.4072697727998,0.973108029960336,0.928737734185875,0.176674899735098,0.24026451334314,0.128986180292704,0.416418368217124,0.158559250739475,0.0360174504302402,,,,,1.76448514358837,-124.664357217421,1.5,AttemptLanding,AttemptLanding,1,0.485992777238211,0.241349786953774,0.228377904980604,0.896719476271302,0.342672808758798
122,2.62302380700574,3.0,-0.379865817464823,-2.56217437505449,2.62302380700574,0.0045513363723976,0.007939686649069,0.0091516821874514,-0.0159131209364419,-0.341404910449425,0.342270858539175,0.0221015517269837,0.197465487943669,0.200177469340368,15.3917057324908,2.00073278944808,1.96489452631871,0.0265641015178079,0.0527714354265648,0.138004276399424,0.470242837391274,0.0109322067042718,0.0060658801755908,,,,,3.0,-97.1526305433791,1.94365694190861,AttemptLanding,AttemptLanding,1,0.739508509069604,0.0864974518247416,0.0589630042393826,0.955559448902928,0.3386647660447
123,1.61232532319185,2.36086106300354,-0.919731439503932,-1.3115566687936,1.61232532319185,-0.0427566581662396,0.0038417528548845,0.0429289049772141,-0.0460493531072895,-0.0916295855241337,0.104447468446717,0.0067389080943196,0.113549220732374,0.115241557324649,15.3683105924333,1.04943833923184,1.09288646921893,0.177272794011157,0.240195134231522,0.153023835693911,0.474918110783023,0.156941694538871,0.035847079648401,,,,,1.66518818535526,-124.488998271363,2.48353512504334,AttemptLanding,AttemptLanding,1,0.453001730982756,0.176290840703453,0.188561670351898,0.894531050928023,0.331989406358262
124,2.59861311586163,3.0,-0.521315724629345,-2.51553559903998,2.59861311586163,-0.0129271373880757,0.0182319053024424,0.0223497931088279,-0.0232470052440129,-0.340263732522773,0.341880090192387,0.0220734719578254,0.193533555082458,0.195510333004209,15.366289672442,1.84225042802205,1.57573972364229,0.0623822267575243,0.24048438130939,0.13724915102335,0.492291691758388,0.0019288592846893,0.0082770875246523,,,,,3.0,-100.530616564359,2.39648547189009,HoldLanding,HoldLanding,0,0.732065564163944,0.0944095110010847,0.0605128274028106,0.941953249715304,0.339000377322956
125,1.55999745186922,2.38914775848389,-0.810027895796988,-1.30702195730467,1.55999745186922,-0.0541937967061722,0.0120904626661146,0.0555260919650449,-0.0388041215091477,-0.0938485145446047,0.105002690337103,0.0067719263421321,0.158697937707799,0.160277669898889,15.4132941660215,0.80819370656335,0.850219179173655,0.176593103776838,0.240197228234586,0.12022985909363,0.469541793532658,0.15890281362698,0.0341704232720799,,,,,1.59718321662841,-120.692341177793,1.5,AttemptLanding,AttemptLanding,1,0.448054854478236,0.196738602515226,0.201092242694812,0.898673061152219,0.346564507069498
126,1.550642570923,2.25507616996765,-0.864157633233779,-1.27434383160422,1.550642570923,0.005243146520344,0.0022630922735508,0.0057107067927185,-0.0407199056087357,-0.0855075301483121,0.0965773600523248,0.0062349854467485,0.112223467331119,0.112989148901693,15.4137725443905,1.57450371642693,1.9719905189617,0.0224133415689741,0.0486614092851499,0.12778188631303,0.420949069102691,0.0051974358309906,0.0080422554390177,,,,,1.57811714801433,-123.111297136965,2.11913515155777,AttemptLanding,AttemptLanding,1,0.436102515359807,0.159544522697044,0.100961141621946,0.960928017366031,0.343208050527542
127,1.51034939689124,2.34311246871948,-0.762469753937112,-1.28650371064407,1.51034939689124,-0.0469690882657767,0.005191066576786,0.0472550782955964,-0.0331297234842975,-0.0885641567994453,0.0965976730498813,0.0062298177495387,0.113184619386656,0.114588381168649,15.455099356239,0.709620072146125,0.779355576197146,0.175639946752555,0.240153131205088,0.124183778574223,0.422706185189966,0.155905378045151,0.0415369574770262,,,,,1.53181850141805,-119.504479623187,2.44475710746331,AttemptLanding,AttemptLanding,1,0.425677515404728,0.196035122182213,0.20201670061397,0.900480932243882,0.344807209522568
128,1.60671792254352,2.40282225608826,-0.869182792194371,-1.33299393044322,1.60671792254352,-0.0551281228498401,0.0053795003313428,0.0553899715901893,-0.0425415046029263,-0.0950401637930376,0.106672762180953,0.0068803771571737,0.132866827604534,0.134567152299007,15.4627176974343,0.769628351986269,0.924487673076174,0.175084198369346,0.240201310004055,0.183405947574136,0.437764021935953,0.15606056917527,0.0395834752188155,,,,,1.67347133841587,-121.814224359451,1.55619135630131,AttemptLanding,AttemptLanding,1,0.455371543138073,0.189278303172434,0.197321225858907,0.899146989189836,0.318486245522606
129,2.63874059257699,3.0,-0.516132742515639,-2.55269805729375,2.63874059257699,0.0068059401271511,0.0012876041330023,0.0069266691430796,-0.0234218270699629,-0.338506164699622,0.340185455021,0.0219637127874308,0.19921544900384,0.201958085185439,15.4185225472503,1.85819520910243,1.92101115343973,0.0262927074962109,0.047378401411906,0.139794200788791,0.473204317005488,0.0104612909424555,0.0089535330789314,,,,,2.98812679975473,-100.15154225882,1.96478174833499,AttemptLanding,AttemptLanding,1,0.744055775057618,0.0825532560130759,0.0574372464594574,0.957159881974778,0.337869244093871
130,1.61193177305363,2.31636452674866,-0.910391145559346,-1.31755760526818,1.61193177305363,-0.0415990138020393,-0.0012584297165765,0.0416180440993305,-0.045465855877867,-0.0932083107375594,0.105628487955804,0.0068137751269901,0.122459046008036,0.124136752096073,15.4185358290226,0.974994105108425,0.981719714644717,0.175998785581131,0.243116913845924,0.158660744059883,0.43616714544574,0.156455472612882,0.0407282852082325,,,,,1.67291748571223,-123.514973806059,1.97278994343319,AttemptLanding,AttemptLanding,1,0.454675823233517,0.166127344332924,0.184022457735746,0.896626427197088,0.329484113751163
131,1.49884405872166,2.12699246406555,-0.743501356616874,-1.2911852008107,1.49884405872166,-0.0350187531577276,0.0046272937905908,0.0353231499238997,-0.0308132592546757,-0.0886124503336806,0.0949158504695142,0.0061213589370157,0.105224855236314,0.106791628943685,15.4720548405738,0.728453513416992,0.744006003722467,0.176214609068893,0.240153009232236,0.131607705093609,0.395512308622841,0.156242965564684,0.0420235285220553,,,,,1.54515709711904,-119.107877075441,1.89573607395846,AttemptLanding,AttemptLanding,1,0.421050074781179,0.147809302021758,0.173408182340732,0.900323370688029,0.341507686625063
132,2.61899578730797,3.0,-0.455913844741153,-2.54693439049845,2.61899578730797,0.0040278469009983,0.0052482181767936,0.006615689282993,-0.0195135412829004,-0.337144406100397,0.338377147601036,0.0218487235287715,0.196318849136484,0.199050356845135,15.3486949642476,1.9894762306329,1.76497395591656,0.026519906498593,0.056191235474853,0.12846240650359,0.420155331509324,0.0109126233984962,0.0055053920343092,,,,,3.0,-98.8062245222683,1.9460772112386,AttemptLanding,AttemptLanding,1,0.738208947984485,0.0869388242242557,0.0590153101180783,0.957240795284958,0.342905597109515
133,1.62737925420671,2.39665675163269,-0.84547378079302,-1.37788796880155,1.62737925420671,-0.0469044273843099,0.003746576954012,0.0470538218120732,-0.03933157419636,-0.1003636828546,0.109444597395814,0.0070595350525221,0.110323634974897,0.112125498183943,15.3988076739022,0.908664552827463,0.90960503085711,0.17752710139369,0.240178170942521,0.12449846877604,0.474502201437051,0.156647939615714,0.0403099019640356,,,,,1.68330103474598,-120.509023497779,1.55230730971891,AttemptLanding,AttemptLanding,1,0.456392900758579,0.181713970919725,0.193307835216448,0.896950045431348,0.344667347210649
134,2.67791530779265,3.0,-0.639306416214317,-2.56418911703947,2.67791530779265,-0.0302862309906001,-0.0068054808592454,0.0310414296922926,-0.028413164336588,-0.338617426623335,0.341023510494473,0.0220131474955256,0.201003910569437,0.20308622626963,15.4110094286877,1.66955590746258,1.53174816109474,0.062893779939762,0.240249704381305,0.117925416394608,0.420103888755299,0.0018394796259927,0.0083832096240121,,,,,3.0,-102.269542710179,1.77181313226763,HoldLanding,HoldLanding,0,0.754727993998631,0.0781599845235751,0.0507619770778634,0.943400006634312,0.347588703824619
135,1.69064051718325,2.42871260643005,-0.868462301978821,-1.436850409269,1.69064051718325,-0.0487951008288741,0.0027715577465927,0.0488737495721649,-0.0419513184902518,-0.109591791614597,0.119139383779434,0.0076862252412325,0.119197208534009,0.12111032644929,15.3945409299407,0.897051645039822,1.11958245019126,0.1770308461667,0.240211515971825,0.156775698086924,0.485646642490986,0.156458815406472,0.0346227139736299,,,,,1.71044333906111,-120.370167332204,1.92309586943205,AttemptLanding,AttemptLanding,1,0.475059536538725,0.175026407502094,0.187143173601614,0.895639594739835,0.330321911961367
136,1.63772195079255,2.63640594482422,-0.764408088272899,-1.42950271066105,1.63772195079255,0.0047102716247771,0.0028647636435759,0.0055130326965051,-0.033818969423315,-0.10855359524577,0.115727793121639,0.0074721397530712,0.13940406647376,0.140270197938302,15.3870796004115,2.03031902629902,1.76473856992251,0.0248648748900918,0.0634746086137525,0.127756604719685,0.493804811490524,0.0091798402998761,0.0079731717005211,,,,,1.66149639163359,-116.91481150861,2.03382185963607,AttemptLanding,AttemptLanding,1,0.46477989313234,0.225714621318152,0.142408036976884,0.957749252870356,0.343219286791251
137,1.47494932243953,2.26535153388977,-0.709843252681468,-1.26937102424686,1.47494932243953,-0.0651876366472099,-0.0015453488453095,0.0652059512215132,-0.030765488466807,-0.0886183294182592,0.0962588229728539,0.0062089809207447,0.159879426803667,0.161321152131631,15.3526137697682,0.968905738879613,0.953654484523806,0.177686552008552,0.240180049694048,0.122661773842419,0.456299622239536,0.158624177804982,0.0372951637395765,,,,,1.50463962214456,-118.009747287404,1.85628341090921,AttemptLanding,AttemptLanding,1,0.425584049743534,0.189794921966915,0.197938465483624,0.896050893668983,0.345483656070036
138,1.59724269897346,2.31601572036743,-0.732980152665816,-1.40738989854807,1.59724269897346,-0.0440167850280022,-0.0069068833024889,0.0445553857704718,-0.0300106260920707,-0.104589161400611,0.109949169800247,0.0070932255563405,0.107656312807614,0.109426354736426,15.4061679397933,0.988845925574762,0.963975193639363,0.177220762824234,0.240212101058642,0.167418452503433,0.433989993493644,0.156360983669556,0.0409775180442625,,,,,1.62198882751374,-116.427624599585,2.30280288151289,AttemptLanding,AttemptLanding,1,0.447816657340207,0.169892417204897,0.1863301364952,0.896046024079772,0.325591798887363
139,2.62175958810443,3.0,-0.526595214680957,-2.53700234750312,2.62175958810443,0.0095230911240012,0.0049212295047895,0.0107195039248485,-0.0230812397819959,-0.335086929073381,0.336671071097401,0.0217397451107375,0.195731322313087,0.198442352493636,15.3728352111614,2.06009720645368,1.83692554836952,0.0264761872858393,0.0543831587984196,0.133376234408276,0.474919213507937,0.0146929875714264,0.0090928251547668,,,,,3.0,-100.33835635475,1.87132589276631,AttemptLanding,AttemptLanding,1,0.738824360659908,0.0870693350627263,0.0620782996105082,0.956142441854898,0.340721673596322
140,1.48962533207579,2.40452861785889,-0.714679177671011,-1.28101321427239,1.48962533207579,-0.0617546164038653,-0.0101141255836616,0.0625773775697786,-0.0342268049956471,-0.0990132455310446,0.107676893065066,0.006944315551837,0.174554327934543,0.175525323963285,15.4643429769091,0.75173738889981,0.726334445107,0.169191002404947,0.241572149491221,0.263546102806503,0.501841082478104,0.160770476105799,0.00497932246283,,,,,1.62484937329115,-117.662804067615,1.73911949210508,AttemptLanding,AttemptLanding,1,0.432338486679534,0.217325758522323,0.203659662763061,0.903791077244616,0.282868398752665
141,1.45248750425302,2.46485877037048,-0.747074888445145,-1.22195742638525,1.45248750425302,-0.0940197844705133,-0.0064570628505938,0.0942412517560028,-0.037255374459585,-0.0894970499349263,0.0998284798391126,0.0064378299342669,0.176352820349394,0.177925562766495,15.4553702325056,0.569121899064893,0.605043920991126,0.165669618137671,0.240180118637186,0.130059358052936,0.394151599353146,0.156836553894121,0.0390842750837941,,,,,1.58700801541868,-119.377240163094,1.80780256690131,AttemptLanding,AttemptLanding,1,0.422915113687438,0.245061097698363,0.230954257349906,0.90793960234501,0.342195840865362
142,2.62156495991969,3.0,-0.613118188415003,-2.51408841593989,2.62156495991969,0.0052520046537605,0.0009660582255902,0.0053401143600444,-0.0293241981314517,-0.328825305598718,0.331415756598421,0.0214019550295823,0.201030879084712,0.203703314669837,15.3720056369143,2.11981328589981,1.87812205248507,0.0176889701575707,0.0561700369035371,0.132048078906397,0.487533072287741,1.31583461155073e-06,0.0097729898022833,,,,,3.0,-102.460692774955,2.35250761231208,AttemptLanding,AttemptLanding,1,0.739824652245885,0.0861269049840773,0.0552305422793869,0.959743165833905,0.34131196493049
143,1.43806722035279,2.03930115699768,-0.636983602679353,-1.27431606013477,1.43806722035279,-0.0390826902532314,0.0106516465567455,0.0405081998094196,-0.0235963734972128,-0.0870948634545288,0.0914886105482087,0.0059009010748928,0.118515729355194,0.119987940825174,15.4034436611516,0.819429451423714,0.866122922755507,0.175926375505126,0.240148802767296,0.155454894820207,0.453107709154974,0.158632533841973,0.034149443916769,,,,,1.50542716708844,-115.316950545559,2.4047483095813,AttemptLanding,AttemptLanding,1,0.407482180259113,0.142704139043494,0.168543811406404,0.898793186450315,0.330908935635464
144,2.67900143408602,3.0,-0.569966341281552,-2.58478613088314,2.67900143408602,-0.0236312146554079,-0.0105201345435682,0.0258671130376922,-0.0248561481390615,-0.342059769277177,0.343897263778667,0.022198604143363,0.200090435947389,0.202084525409242,15.3935107429273,1.74054311069158,1.44196317344661,0.0631534251410265,0.240362612488437,0.127028992621939,0.462794100903747,0.0018698100969213,0.0082329688645833,,,,,3.0,-100.955060334027,1.88961218542166,HoldLanding,HoldLanding,0,0.754817287504787,0.0769669813875554,0.0500050224021246,0.943417880911258,0.343542669945805
145,1.61801330261939,2.37480664253235,-0.738087369472404,-1.42722621477207,1.61801330261939,-0.0451122265420033,-0.0023303318587216,0.045172374634823,-0.030377369900854,-0.107964143745847,0.113388773682343,0.007314581130147,0.115004956614334,0.116806780092153,15.3748252784878,0.963051596981572,0.925122360094789,0.177256268663479,0.240193753412695,0.174522825834908,0.484421070733703,0.159118791088152,0.0357373923926601,,,,,1.68254359450145,-116.590495520199,1.88370310595684,AttemptLanding,AttemptLanding,1,0.454831570050269,0.178560103496799,0.190850940219438,0.896536213148375,0.32243429962893
146,1.72751737199101,2.51858234405518,-0.804019089163065,-1.51573958245839,1.72751737199101,0.0051816629462646,0.0048298768116858,0.0070835966079917,-0.0359652787343789,-0.120633095605299,0.127297327254703,0.0082186708327613,0.120204949668217,0.121201479812751,15.4163306495647,1.91217344231021,1.86914368534329,0.0261529080652264,0.0545290899005278,0.122713971469203,0.44083099049137,0.0125226853891268,0.0051897238854764,,,,,1.779143412243,-117.297381887505,1.92963713145275,AttemptLanding,AttemptLanding,1,0.484911595160152,0.17928827809257,0.115025777128256,0.957213197107252,0.345460457124799
147,1.41833828429918,2.01908779144287,-0.696358331277197,-1.2192640693434,1.41833828429918,-0.0484194722216461,0.001844156688782,0.0484545787734816,-0.0277406965195624,-0.0795155217683285,0.08583467523507,0.0055360544521024,0.107766052507374,0.109157744941974,15.4595318809123,0.771763402800833,0.85988109887813,0.175804549342119,0.240137262796843,0.14251059765427,0.397887534132738,0.15942439690193,0.0358449394592043,,,,,1.48754464037965,-118.732441752547,1.50405932791515,AttemptLanding,AttemptLanding,1,0.400055091468176,0.144051978549135,0.170320998081161,0.899277661387177,0.336661956598102
148,1.69960851000773,2.60907912254333,-0.7842141688887,-1.48057663636304,1.69960851000773,-0.0683753541673773,0.0002841051979892,0.0683759444050158,-0.0385247807267961,-0.120256404571044,0.129288902736027,0.008339265295897,0.175848461497549,0.177866178805196,15.4632946063824,0.922084945995417,0.836687693856333,0.176551547295173,0.240224245299212,0.171297646487652,0.41062540306257,0.159334493297664,0.0349375167120986,,,,,1.75445964810256,-115.915142708198,1.75016915869312,AttemptLanding,AttemptLanding,1,0.4888021717631,0.217166477628097,0.213819768463048,0.897905298467864,0.323867712672155
149,2.58595011824349,3.0,-0.610672041490606,-2.4796682071916,2.58595011824349,0.0078173607184866,0.0034649297600923,0.0085508401251169,-0.0287454070502381,-0.320851244790955,0.32329426160252,0.0208801298909878,0.200472516376684,0.202988926934912,15.34356638167,2.07700043158856,1.93841986615408,0.0268235428946806,0.0593087990074771,0.138616954699984,0.475135501829082,0.0208261073951365,0.0054046936182123,,,,,2.89228411426449,-102.374592577792,1.79076142875068,AttemptLanding,AttemptLanding,1,0.730184483585248,0.0947288774181518,0.0680587173159582,0.955038497641825,0.338392464577785
150,1.50049734719702,2.34697794914246,-0.65114320584695,-1.32726200424293,1.50049734719702,-0.0589661395426174,0.0084987465719033,0.0595754505300033,-0.0264771391964666,-0.0966718276518971,0.102343442004687,0.0066026972478866,0.159772650536007,0.161361853516663,15.3298694619176,1.04356122778743,1.03217784094678,0.177627694313547,0.240172718786888,0.129000666897381,0.447815288505375,0.155743899552642,0.0393904413211412,,,,,1.57055207434036,-114.528428258895,2.23067849813354,AttemptLanding,AttemptLanding,1,0.432404996622537,0.201380301368224,0.204371488577271,0.894876774446029,0.342666370267831
151,1.50710580252961,2.12295484542847,-0.662888846055091,-1.34321054486425,1.50710580252961,-0.0409302801289761,-0.0100446178973925,0.042144776427703,-0.0245853470975091,-0.0953087488510828,0.0992874123402113,0.006403036288226,0.108227462250749,0.109813761693404,15.4699107594843,0.711467437128024,0.696395293917457,0.175347383079954,0.24015363291992,0.129070941979399,0.431956649166585,0.156347153369169,0.0399311053296992,,,,,1.53043490962982,-115.371127707452,2.36897438648362,AttemptLanding,AttemptLanding,1,0.423857633013244,0.146292576997322,0.171783571856096,0.901264529858951,0.342635136898045
152,2.61724969176544,3.0,-0.656037154649305,-2.49996505451323,2.61724969176544,0.0043582345699505,0.0066061555853886,0.0079142592947839,-0.0317443081832762,-0.32552324438561,0.32842758688592,0.0212121265329172,0.198764935795521,0.201367277121955,15.4155041019569,2.14303304872228,2.09413077485348,0.019541103617358,0.0510836984386323,0.146748563855106,0.397024480543107,0.0003587618373218,0.0067505124967275,,,,,3.0,-103.235441300153,2.24899602482848,AttemptLanding,AttemptLanding,1,0.738206706561843,0.0875697668901522,0.0551560416565596,0.956937446720369,0.334778416064398
153,1.50019911374595,2.07513856887817,-0.704867554998575,-1.30859035658752,1.50019911374595,-0.0421024033547117,0.0030843972848947,0.0422152327348069,-0.0284099798084205,-0.091239594467174,0.0971007757230573,0.0062635732285984,0.119973358274757,0.121550072635031,15.4008523996835,0.94377918205599,0.929416958091097,0.176365842616402,0.240177972757717,0.142931668100732,0.447610853986637,0.158377679349299,0.0372818676387228,,,,,1.53053947457772,-117.277382087191,2.45208968633541,AttemptLanding,AttemptLanding,1,0.424363111525926,0.137100836739466,0.166207624532196,0.897099109019215,0.336474814177452
154,2.59187946642671,3.0,-0.612511448244308,-2.48770562307237,2.59187946642671,-0.0104767072566409,0.0191659704613407,0.0218425231753645,-0.0297537861364427,-0.335331008524588,0.337851532824652,0.0218105275281516,0.195813720011678,0.197740825220769,15.3546370788194,1.5915230415463,1.61281021853156,0.0628610602403999,0.24047694402606,0.139750563173534,0.471359804796781,0.0019519920405803,0.0094174262437621,,,,,3.0,-102.931426400997,2.31566990992766,HoldLanding,HoldLanding,0,0.730716022757942,0.0958315826361412,0.0617910202338157,0.943392565693474,0.337888638589541
155,1.65191069065324,2.34509801864624,-0.776515899076764,-1.43796467093739,1.65191069065324,-0.0625211013912152,0.0020783753150462,0.0625556373408569,-0.0349285352795648,-0.11004442657338,0.117609191494113,0.0075863241632201,0.138381877935219,0.140309924904171,15.4101853943296,0.922884855451319,0.94239302802201,0.176628946997965,0.240190053243617,0.137682928460364,0.44984173429526,0.155457508817322,0.0416709928229835,,,,,1.68981233095603,-117.495671617653,1.64456331570114,AttemptLanding,AttemptLanding,1,0.468571502488366,0.167435682310915,0.184706723826847,0.897029771702298,0.338807587350949
156,1.60635886184348,2.512455701828,-0.712000229571355,-1.41532697334658,1.60635886184348,0.0027505119023835,0.0023934093846346,0.0036460559797691,-0.0314246036357034,-0.108623794425709,0.115468475770769,0.0074567792608389,0.170173659907954,0.171047106745626,15.3420033879998,2.04776742991856,2.01701793754283,0.0203237216221483,0.0732684784405104,0.142585161011593,0.505538811293039,0.0005875178955677,0.0068287264326054,,,,,1.64682358488304,-115.230680905002,2.23085454859092,AttemptLanding,AttemptLanding,1,0.462571784507386,0.204540232592809,0.125468431868602,0.957900539873158,0.336628817328181
157,1.63866615818964,2.62076425552368,-0.723905798704516,-1.44554577895297,1.63866615818964,-0.0790753001654553,-0.0195100139154711,0.081446569843295,-0.032459991443226,-0.114413404671302,0.12125507035037,0.0078210162981471,0.171332502388894,0.173172356692228,15.3946928614652,0.843038550737126,0.931764267199878,0.175797604480046,0.240197181046305,0.131424765420287,0.413737942624376,0.158181529188856,0.0343551573466401,,,,,1.69535374865113,-115.407012304463,1.56921311349965,AttemptLanding,AttemptLanding,1,0.471612113522351,0.235903943038096,0.224338052174259,0.898156318476186,0.341588993146539
158,1.61006367850948,2.57391476631165,-0.76324055246601,-1.39202306291502,1.61006367850948,-0.0702300770276278,-0.0068020428135462,0.0705587096377467,-0.035906696876709,-0.105303239899184,0.114127118781607,0.0073611543197027,0.158026221954839,0.159892992923812,15.4534860664046,0.974834433859101,0.733158425408554,0.175684006774281,0.240195874717983,0.137982106867379,0.454041430329183,0.158646482419371,0.0379257654396484,,,,,1.65925020896733,-117.23842078182,1.93483210978522,AttemptLanding,AttemptLanding,1,0.461328912853957,0.229802258189074,0.222182090087986,0.898738052718614,0.338674619170054
159,2.57111361592908,3.0,-0.735719739408593,-2.42952888084184,2.57111361592908,0.0051277649873029,0.0094739138949367,0.0107726049892162,-0.037564437875428,-0.308876608026024,0.313010378102402,0.0202123772063589,0.206305501408261,0.208720736365211,15.3985411401646,1.9182437064345,2.07000851231207,0.0267780110441843,0.0478308492929039,0.130448828638509,0.422103094035398,0.022047161771968,0.0075119590232168,,,,,2.88835322200788,-105.56852442763,1.68170452157789,AttemptLanding,AttemptLanding,1,0.727374444854131,0.0984744139973125,0.0716150084266945,0.955274727044899,0.342022742827329
160,1.51436784083411,2.18468236923218,-0.65713844975447,-1.35293952527293,1.51436784083411,-0.0503089940476304,-0.0156654082104606,0.0526915543183619,-0.0242938351603878,-0.0971768423443789,0.101078525092532,0.0065198065024888,0.10971511726709,0.111246892482785,15.3824784014321,0.862597348434489,0.896696247522254,0.17624708979056,0.240164744338021,0.129175215440436,0.456974746604275,0.155594370484769,0.0410402901818327,,,,,1.56544004446909,-115.546181583882,2.28623867895703,AttemptLanding,AttemptLanding,1,0.426080802718987,0.160480887181264,0.180365327741848,0.898053433993631,0.342588793137584
161,1.65150970500588,2.32576060295105,-0.772871540161675,-1.44609237641092,1.65150970500588,-0.0545996187862053,-0.0063608623406095,0.0549688906684056,-0.0334709317399908,-0.110867325790117,0.117216945923975,0.0075617686612701,0.116301889990667,0.118132845895431,15.4292678541636,0.995900447443257,0.951491833735862,0.177097315663367,0.240177158707061,0.158760830842093,0.443106535654266,0.155337731986867,0.041379105142242,,,,,1.70136515468512,-117.053321105748,1.86514295264139,AttemptLanding,AttemptLanding,1,0.464029157180653,0.161784081993538,0.181156388514738,0.896150402816195,0.329439630736847
162,2.59646415428535,3.0,-0.733363999490786,-2.45497374117608,2.59646415428535,-0.0108151982969862,-0.0128975653249684,0.0168319845982273,-0.0376713401934395,-0.315122809370016,0.319192918957234,0.0206108560592864,0.209628763320369,0.212113923732385,15.4004495944592,1.93686946797517,1.94772960040381,0.0250330472257309,0.0703634127905182,0.164432766651019,0.508982428983856,0.012134989613948,0.0099200559543565,,,,,2.85921158454158,-105.062668776886,1.89567931231901,AttemptLanding,AttemptLanding,1,0.734813225889238,0.0938814291288038,0.065329479268904,0.956961626564157,0.326918770377325
163,1.54481427115623,2.37031483650208,-0.732427965969293,-1.34989542723205,1.54481427115623,-0.0372681323742459,-0.0150551637615908,0.0401941742862399,-0.0329072355037841,-0.106734921281248,0.112817655673569,0.0072754094482151,0.125899139634009,0.126805339296919,15.4654200575918,0.582195291045889,0.789642088497083,0.164420493532242,0.247710016862513,0.241911409277207,0.496303600573185,0.151469480299912,0.0051836929377525,,,,,1.71874998102098,-116.787170824054,1.78669469416856,AttemptLanding,AttemptLanding,1,0.437311540167713,0.193106559155292,0.18506868376545,0.907011030966041,0.292483818099019
164,2.52621846262691,3.0,-0.77638063918259,-2.36662143100029,2.52621846262691,-0.029780454644303,-0.0100931685507353,0.0314443560947738,-0.0388553078601063,-0.291350618748396,0.296130249186106,0.0191233882558991,0.225331417107177,0.227048802495284,15.307138813822,1.88577395990459,1.72290644418599,0.0629816816515992,0.240369728837355,0.141963212616079,0.452078013120794,0.001928253221601,0.0095957163020346,,,,,2.64390369362176,-106.697557678757,1.51593807570073,HoldLanding,HoldLanding,0,0.719068017199566,0.11236564452632,0.0717657395301729,0.940155241713489,0.336905238837298
165,1.57764749438971,2.46619272232056,-0.694357074615963,-1.39300919787488,1.57764749438971,-0.0686389985480203,-0.0120418507632118,0.0696872893107388,-0.0304669957943597,-0.106919518947748,0.113296132796012,0.0073075046512189,0.16702840925993,0.168783599731689,15.4591311560867,0.870947820126341,0.804849508283444,0.175912781398111,0.240215155532499,0.164710876899503,0.421269809716495,0.156488051873766,0.0404650775736402,,,,,1.65443912380199,-114.70021335318,1.67290166674431,AttemptLanding,AttemptLanding,1,0.45446271845026,0.212698679324743,0.211884026535217,0.898876630292011,0.326795165822443
166,1.65631904689763,2.35178637504578,-0.729219997392259,-1.47517042920978,1.65631904689763,0.0014468857716617,0.0013690308126663,0.0019919146071724,-0.0300050016736036,-0.114356007051501,0.119312392847789,0.0077064777951535,0.117140205064507,0.118070053389777,15.3886696966863,2.09596421496697,2.14137059488588,0.0253357093944364,0.0721883044793896,0.143886424812107,0.519811196263928,0.0088447828375683,0.0094037224263486,,,,,1.6985678915868,-115.061450151433,2.00983817262187,AttemptLanding,AttemptLanding,1,0.465299089850658,0.156845333177981,0.101457749929026,0.954038800368224,0.336050477861286
167,1.51925791719475,2.41543173789978,-0.708110770932466,-1.33178664710477,1.51925791719475,-0.0435974505145623,-0.0038811693727416,0.0437698659704324,-0.0283006545323472,-0.0941199456353205,0.0994230781455519,0.0064139017611003,0.111712091828334,0.113380916556,15.42299585922,0.959116951385539,0.954528770897828,0.176339293141599,0.240170628129354,0.130348796130671,0.480758925283085,0.158251668667422,0.0352217671883707,,,,,1.53242316823457,-117.234742424214,2.44116120671628,AttemptLanding,AttemptLanding,1,0.427811627896467,0.209663585086544,0.208940141356451,0.89679456561126,0.342067201719702
168,1.72639438849968,2.42273092269897,-0.842833155830509,-1.49383390779184,1.72639438849968,-0.0406551230441667,0.0097857037912035,0.041816253161008,-0.0391779673087855,-0.117894198188877,0.125791608191479,0.0081125489820329,0.115445628544084,0.117384437150415,15.4526979671688,0.837804792728548,0.777647101820573,0.176337365572247,0.240201175971276,0.161426851878091,0.411572173627262,0.155916531344453,0.0397350234092893,,,,,1.76822611766951,-118.998443980142,1.82572939697332,AttemptLanding,AttemptLanding,1,0.48384872436333,0.16434203327436,0.182350555539266,0.899138480899562,0.328254732498626
169,2.47175894612851,3.0,-0.769711507678494,-2.31638694107551,2.47175894612851,0.0059475046018636,0.0033731521804015,0.0068374678515761,-0.0397960227474545,-0.283562294769858,0.288424498489382,0.0186282213249838,0.217148872579527,0.21939777426761,15.4056055308363,2.15343775204171,1.96222169863493,0.0234736219715576,0.0472275911658332,0.141320799717385,0.421516234829232,0.0073135747352606,0.0080823366051052,,,,,2.66549340284327,-107.193726307889,2.08526350800371,AttemptLanding,AttemptLanding,1,0.703015273821126,0.120107772893873,0.0782541728892054,0.955925864758905,0.337190755681162
170,1.7485392909722,2.33512759208679,-0.780004541640048,-1.55227872641824,1.7485392909722,-0.0519306919898707,0.0007512424559065,0.0519361255368013,-0.0339987100531411,-0.127128300750119,0.132855458516314,0.0085684103242755,0.11533190499395,0.117450414390835,15.4467263703798,0.718935329605616,0.867001333159293,0.176130243098797,0.240215651567214,0.144204835153388,0.430880168623517,0.156995915863775,0.0394025303041678,,,,,1.77840570795084,-115.675983280215,1.78135974547577,AttemptLanding,AttemptLanding,1,0.489767227137421,0.141503990765863,0.169006549903519,0.899473947528877,0.33590896215405
171,1.61437184464287,2.64348316192627,-0.797385723998184,-1.37725782306177,1.61437184464287,-0.0736821551603447,0.0071331038372082,0.0740266246658964,-0.0392580513239358,-0.105550524281348,0.115893904748452,0.0074761117271036,0.165678196340391,0.167417601784256,15.4315736383985,0.978586099600232,0.978776809518226,0.176566577883245,0.24020682824402,0.164213488418606,0.448150029369009,0.158448207955574,0.0377629327200546,,,,,1.68221562017466,-118.331726157389,1.50277506677631,AttemptLanding,AttemptLanding,1,0.463982678928284,0.245121594244179,0.231226357839106,0.896337431058161,0.327016227369508
172,2.42070390069764,3.0,-0.845582506669663,-2.23203503075361,2.42070390069764,0.009005763441652,0.0080772784631933,0.0120973634540326,-0.0470345128339475,-0.264215165576679,0.271258383372668,0.0175155820987993,0.228235858244469,0.230306713386207,15.3969234001527,2.02152083171836,1.87630151274011,0.0161998691080693,0.0461109972540735,0.132394424523445,0.424825817950563,0.0001491820613823,0.0075305964396567,,,,,2.5789773418386,-109.450212225276,2.37095108015067,AttemptLanding,AttemptLanding,1,0.691582382863278,0.132559472309604,0.0823403852294843,0.961274318453792,0.341158033545135
173,1.53742718495227,2.24008917808533,-0.726390937155551,-1.33728171029214,1.53742718495227,-0.0517863250427535,-0.0003610594663458,0.0517875836989133,-0.030524985101264,-0.0956018800098254,0.10212326137198,0.0065874119338623,0.124140256177497,0.12571737760283,15.4186081295893,0.906508719295094,0.91095302172201,0.176276137222829,0.2402018989445,0.146700983331156,0.38592423039962,0.15791660444539,0.0356147822605058,,,,,1.60572032516396,-117.151648626796,1.51801841539856,AttemptLanding,AttemptLanding,1,0.435124058174505,0.167593338799738,0.183691990724038,0.897581874852023,0.334799562963931
174,2.33524349403842,3.0,-0.758943027575595,-2.17621685378757,2.33524349403842,-0.0267508972976526,-0.0149684609830752,0.0306539610887631,-0.03684261285919,-0.24897770756792,0.253859486657131,0.016385896203697,0.236799790450273,0.238257283415634,15.4136197012195,1.5532599514356,1.43080994833045,0.0635727468131157,0.240348518967715,0.123962333300534,0.454359742694101,0.0018615259819577,0.0092740167199709,,,,,2.36078838964489,-107.709824257803,1.86516062509613,HoldLanding,HoldLanding,0,0.670383055093372,0.155190106707629,0.0973137786218004,0.94476736309528,0.344905629644207
175,1.64317314125396,2.28469824790955,-0.813351270092557,-1.41120617055816,1.64317314125396,-0.04781709602178,0.0051266977245552,0.0480911395322994,-0.0378641985221225,-0.106584281392641,0.115061117959676,0.0074201185673604,0.1253996792597,0.127215052328851,15.4626069889495,0.770215096539595,0.570796783705309,0.177283127316815,0.24017621659739,0.122547100715524,0.409213731861581,0.160004120311135,0.0354335448957559,,,,,1.70036876942666,-118.357386427334,2.16927844781027,AttemptLanding,AttemptLanding,1,0.46362251480016,0.153159857911761,0.1758937825242,0.900821914425382,0.345534621904211
176,1.75406199733549,2.74037313461304,-0.88778186755317,-1.48259212229571,1.75406199733549,0.0061113539857552,0.0050055499803345,0.0078996315195605,-0.0474503688834317,-0.119585910281028,0.132958854512239,0.0085844087045066,0.188627566153087,0.189640527525577,15.3587450802282,1.91116558997066,1.86994124797597,0.0264436063876073,0.0579100948474566,0.129449711327286,0.481948773654333,0.0217218293445101,0.0066479999539347,,,,,1.79740384781532,-119.424856454763,1.53639617869741,AttemptLanding,AttemptLanding,1,0.505677971461246,0.223368271666034,0.146092563903662,0.95706950022233,0.342466794965651
177,1.92608425061445,2.85245442390442,-0.968572763985218,-1.63339745180602,1.92608425061445,-0.0759372385944209,0.0118201283097556,0.0768516729720641,-0.0563641236330247,-0.148798918041037,0.163857024846382,0.0105706962869874,0.205788436810005,0.208260108396623,15.3854056247369,1.09410011419989,1.01774597152081,0.176965985354637,0.240308481679634,0.152830359797612,0.481977382991954,0.158726553541955,0.0350504857730447,,,,,2.00389774569212,-119.82849383685,1.5,AttemptLanding,AttemptLanding,1,0.555274488509845,0.222522762368455,0.216804423518807,0.894923930934876,0.332075395645506
178,1.82442569974306,2.5343701839447,-0.9884128684598,-1.51456323254946,1.82442569974306,-0.0615813310359449,0.0026877679925335,0.0616399580543361,-0.0552341253717463,-0.122675557979977,0.137593939297349,0.008875982733708,0.14650788409852,0.148671088562212,15.4288212896215,0.97484732855568,1.0751670990435,0.176834311092394,0.240256962995577,0.189383947696111,0.470864743506911,0.15936223110446,0.0352284937568115,,,,,1.88108853169074,-121.75609313085,2.1550091767036,AttemptLanding,AttemptLanding,1,0.516247737643926,0.171038167921997,0.18626092038796,0.895475588236952,0.315829356579506
179,2.50288434650587,3.0,-0.652894197677668,-2.38486717199229,2.50288434650587,0.006744848145152,0.0064194169750846,0.0093113850098235,-0.0310841437626334,-0.299270576202891,0.302205125968273,0.0195198813656436,0.212714919065652,0.214991564819588,15.3386858473233,1.98315130089434,2.1872062275246,0.0269401575557491,0.070535202079281,0.148306682920428,0.506200218841255,0.0208369435960479,0.0106693185440398,,,,,2.73243854491602,-104.018907315581,1.50890747473609,AttemptLanding,AttemptLanding,1,0.710434138698816,0.11355810928798,0.0812754815910865,0.953762826355977,0.334085918702032
180,1.77328227420111,2.63723087310791,-0.888092645932801,-1.52167574529034,1.77328227420111,-0.0425330154193293,0.0001084981027916,0.0425331538038177,-0.0436385937745981,-0.122836197813622,0.132043685999554,0.0085179524052077,0.116374520972099,0.118506410032422,15.4013169934171,0.96031192210769,1.0243607652497,0.176355588729803,0.240239361244495,0.164449465942143,0.459201980094873,0.15915510054534,0.0375275641191743,,,,,1.85620598441334,-119.444845846151,1.56465265035763,AttemptLanding,AttemptLanding,1,0.49657655512678,0.202186179618063,0.205693694965638,0.896228348805862,0.326911348470159
181,1.83441046180341,2.5177149772644,-0.890363978926018,-1.59070285524311,1.83441046180341,-0.0492273328206522,-0.0005442924558581,0.0492303417712366,-0.044038831741408,-0.135077817006078,0.143812380192669,0.0092760939310054,0.1375890866075,0.139647706469162,15.4015477981725,0.905982471103935,0.960929144024586,0.176309003849328,0.240258466663777,0.151484827630234,0.49014156812203,0.156745293216331,0.0395653596665271,,,,,1.8944468966032,-118.434379956689,1.8379024317836,AttemptLanding,AttemptLanding,1,0.517105664441409,0.162769078636784,0.181713425459985,0.897176906813612,0.332673409942118
182,2.42309973271794,3.0,-0.443549913890935,-2.35078263208317,2.42309973271794,0.0066407954965352,0.0083009133684183,0.0106303963979143,-0.0188484584004632,-0.293126762232331,0.294403876567941,0.019010958378807,0.216640668325512,0.21893016333731,15.388805005763,2.09918935601174,1.9290062361812,0.0257659245126242,0.0477431997093109,0.136357814302569,0.411059946464237,0.0101097135464108,0.0066206013499892,,,,,2.61222307005049,-99.3162222201901,1.94642621748293,AttemptLanding,AttemptLanding,1,0.689945961392246,0.131751466144747,0.0859515771074716,0.955466929519315,0.339396526976636
183,1.81701253314276,2.62106347084045,-0.969123887064822,-1.51590989314768,1.81701253314276,-0.0576741850538627,0.0077758160274879,0.0581960044721331,-0.0528481911085648,-0.122395250913115,0.136587221832922,0.0088116821814305,0.143011725021695,0.145211312766776,15.4109993041065,0.970077946474921,1.08441040805749,0.176945242498828,0.240213266978617,0.152769081606694,0.379585907396949,0.158159504470223,0.0357734480089139,,,,,1.87171872539055,-121.350351106356,2.20846683779993,AttemptLanding,AttemptLanding,1,0.513578938058091,0.191580728468539,0.198250076727696,0.895384970250689,0.332102630397025
184,2.51041207412229,3.0,-0.249145644981499,-2.46499660457946,2.51041207412229,-0.0047104440038826,0.0051766371393434,0.0069989895546531,-0.0110249728626904,-0.316110851250462,0.31666994313397,0.0204443009899788,0.217041325637434,0.21880957238157,15.3601075804423,1.76267989049977,1.49514570409296,0.0787378939496904,0.24126039390874,0.152990217960523,0.460589002498004,0.0822564436758219,0.119608496189085,,,,,2.70378156394852,-95.0700514349474,2.29567260442855,HoldLanding,HoldLanding,0,0.713205134242259,0.111440431407504,0.146916676870191,0.935033851924783,0.332004347573101
185,1.97342370111476,2.82743310928345,-1.16216459387461,-1.58017847112239,1.97342370111476,-0.0536251267214643,-0.0154796168272424,0.0558146284858311,-0.0788419693493365,-0.14131765253084,0.164877271031025,0.0106355886571496,0.154946936361038,0.15652929320386,15.4437222417129,0.796169163014581,1.06383925876829,0.171097081752811,0.246657493499786,0.247178435730336,0.534904303218974,0.12646541282532,0.0048973013720759,,,,,2.15708888634091,-124.745911655981,1.60851895512216,AttemptLanding,AttemptLanding,1,0.55755217893804,0.202384798727025,0.179418566243375,0.899837107238158,0.290142917453184
186,2.05533605355483,3.0,-1.13372598467107,-1.68289345832195,2.05533605355483,0.0074257808517336,0.0065287089355848,0.0098876823180945,-0.0748729396690061,-0.154148915963313,0.177367168590453,0.0114507314552412,0.215364255266472,0.216734824081327,15.4071450948284,1.82986957570174,1.95353480561524,0.0239453294296094,0.051227499370438,0.134292813752156,0.376103115194033,0.0076698693637027,0.0086629119399908,,,,,2.10837557196529,-122.363616262261,2.10270823685892,AttemptLanding,AttemptLanding,1,0.591436579097553,0.214362129708481,0.135176258449761,0.958300586574848,0.340314304999042
187,2.04855459123044,2.7692289352417,-1.10739135001637,-1.70842897747109,2.04855459123044,-0.0534224406005341,-0.0033635187012748,0.0535282207603748,-0.0670451870535627,-0.154074896326989,0.170708088259405,0.0110110469087882,0.140659145629035,0.143348663742784,15.4537050079045,0.875697885468389,1.000094003191,0.17622929257417,0.240290968703631,0.166249504516119,0.408096466778556,0.158786770611762,0.0342275008610089,,,,,2.09849345512064,-122.244984043751,1.90929349307751,AttemptLanding,AttemptLanding,1,0.574950957076675,0.171965234541934,0.186197402724291,0.897146988873448,0.326111331326169
188,2.01551037060248,3.0,-1.13921246420834,-1.63197935588511,2.01551037060248,-0.0838900467926596,0.0037261374204883,0.0839727577905536,-0.0753323981960208,-0.146219685202237,0.17057936010318,0.0110033851300151,0.205012770094604,0.207640099405755,15.4240648826999,0.950615908488731,0.983496978200182,0.176870557315831,0.240329813185789,0.164928276928857,0.420909949302231,0.15920500020891,0.0380762693699715,,,,,2.08252249604559,-123.526280590972,2.25084338321068,AttemptLanding,AttemptLanding,1,0.578997452041812,0.236905172209377,0.226746797330788,0.896368120089529,0.326698543587175
189,2.48942169497244,3.0,-0.764779482396583,-2.3372450760103,2.48942169497244,0.0056925962941957,0.0038533364911397,0.0068741439236199,-0.0391321664625241,-0.288413292299138,0.292968534455675,0.0189217060442953,0.212932248266362,0.21510295152531,15.3811025230571,1.96563960177213,2.22021073423863,0.0241802331042838,0.0591821670939358,0.144454042489611,0.47744176522159,0.0061623247092554,0.0112882536548797,,,,,2.71977714743149,-106.924123588306,2.06050796129417,AttemptLanding,AttemptLanding,1,0.706866375631047,0.116140378350531,0.076527857503075,0.955021059379202,0.335798203337951
190,2.01800859854525,2.97230410575867,-1.09667509021039,-1.67203963148436,2.01800859854525,-0.0651519968919163,0.0177777560800171,0.0675339271051585,-0.0669378578058697,-0.149282953600367,0.167537656716567,0.0108072732001533,0.151479532083647,0.153980128167164,15.4017872672784,1.04528488023069,1.02195011250161,0.175556859958455,0.240325064798494,0.174845958222491,0.462659826578881,0.156080220031783,0.0414151633886091,,,,,2.06580628279313,-122.281189709167,1.63635557735218,AttemptLanding,AttemptLanding,1,0.568931651912167,0.227097709092297,0.22068767155021,0.89597900936359,0.322290685234448
191,1.99637206019582,2.97619366645813,-0.986599598325813,-1.70425089709297,1.99637206019582,-0.0819468624257298,-0.0042621700009301,0.0820576282531875,-0.0584575092134439,-0.158570147860546,0.173578832926173,0.0111987846430105,0.188988101527878,0.191609568375139,15.4082187632753,1.15840363084186,1.12413010425398,0.176842879273044,0.240327389971864,0.193677274042882,0.454628583418589,0.158008203859491,0.036228313990811,,,,,2.07634549688122,-118.754548572983,1.92788807944075,AttemptLanding,AttemptLanding,1,0.570687796393913,0.235503759922104,0.224702056695553,0.893644366730582,0.313921211536497
192,2.47348573774,3.0,-0.965273091118411,-2.24211187911081,2.47348573774,0.0085516057481547,0.0059938159485385,0.010442978047321,-0.0577031933701033,-0.265479590387858,0.275418665087347,0.0177934593349465,0.219273013042577,0.221416922306578,15.3744464286515,2.22597488895116,2.31142507957389,0.0177177256494168,0.0496493642656422,0.155390194796648,0.469983589839688,0.0013044999414556,0.0079420403305579,,,,,2.68099720733185,-111.612146549017,2.36258989171369,AttemptLanding,AttemptLanding,1,0.703879581191981,0.120380254983843,0.0756959454077213,0.955490137422595,0.33093769120149
193,2.04351915539922,2.83668661117554,-1.05793006929424,-1.72424005538557,2.04351915539922,-0.0675296717635422,0.0087832619805429,0.0680984747223504,-0.0635087737065698,-0.158155669356473,0.174423547941464,0.0112530294482391,0.158034193911511,0.160833886331961,15.3839148707273,1.15570046162912,1.111318571539,0.176683324896403,0.240290054167782,0.172314403448132,0.476787478546497,0.158515994181487,0.0364883692168971,,,,,2.11900443077325,-120.570247299149,1.73560333503646,AttemptLanding,AttemptLanding,1,0.577105218706184,0.190947397915436,0.198288489615865,0.893846045148335,0.323415820689719
194,2.47679776354478,3.0,-0.993318813677957,-2.23444482410833,2.47679776354478,-0.0222127405920179,0.0020196083350606,0.0223043642015486,-0.0589474946374568,-0.267494980459246,0.277880620630396,0.017939571665071,0.224517686279599,0.22605460406999,15.3527241702947,1.80152227609126,1.48355951434519,0.0628980391171041,0.240230816203166,0.12413065308821,0.512444910662983,0.0018764476009233,0.0094248986277003,,,,,2.61715863552686,-112.220792726245,1.96761817314735,HoldLanding,HoldLanding,0,0.705690324425939,0.121809636639375,0.0773469945597649,0.94273962351659,0.344830820849684
195,2.0491118640513,3.0,-1.01676883365555,-1.76295542372598,2.0491118640513,-0.043815028420919,0.0043373640649771,0.0440291885294073,-0.0572872923661496,-0.164359163287102,0.176499628097514,0.0113863818328567,0.147778111433157,0.150651580537521,15.4209053206636,1.09568082407388,1.06547812568785,0.17691613738301,0.240288403087813,0.169824386814773,0.477110494287625,0.158019460443396,0.0370496996402751,,,,,2.08957514186263,-119.371133784789,2.41965642863388,AttemptLanding,AttemptLanding,1,0.576560146521185,0.222021848485515,0.216916598450494,0.894561396703224,0.32452249474899
196,1.93575328508747,2.9746241569519,-0.923441975045739,-1.67134818545726,1.93575328508747,0.0083892319173501,0.0078650700463484,0.0114995016847277,-0.0517430647555443,-0.151919166716335,0.164579561632062,0.0106278159279431,0.207642750628934,0.208887402891617,15.4014463599012,1.95754654536479,1.96261982502572,0.0272918330216901,0.0562624654229667,0.131784094983839,0.522678055323494,0.0207980899752539,0.0093426412127195,,,,,1.98818975952798,-117.123132335998,1.5,AttemptLanding,AttemptLanding,1,0.557978356601649,0.235854188145031,0.154153432508928,0.95555277629323,0.341429291118294
197,1.91592251368471,2.61312651634216,-0.854681770174313,-1.70190511942902,1.91592251368471,-0.0432618343475604,0.0002602417031984,0.0432626170828793,-0.0406465932561959,-0.1525260704841,0.159274060184873,0.0102733173902382,0.125167978899429,0.127531505099182,15.4496461509514,0.985366416172124,0.894781180919662,0.177245403722435,0.240245851749248,0.15487922888404,0.405160878125131,0.159103889458085,0.0373209577714674,,,,,1.96491164649544,-115.571452830696,1.73343953515461,AttemptLanding,AttemptLanding,1,0.536418971335759,0.164802380396455,0.183165525368464,0.896604709875918,0.331164787162649
198,1.80799794917139,2.51434206962585,-0.795586019094203,-1.6108500261816,1.80799794917139,-0.0501543582075813,-0.0023892336878755,0.0502112346475334,-0.0353864942478852,-0.136790947898558,0.142582728754914,0.0091963626497412,0.123422347698579,0.125680718094376,15.4265673087632,0.97581434874466,0.771751206150232,0.175352251962714,0.240205795907298,0.122316434427537,0.43169683388543,0.154791564544179,0.0427683551382305,,,,,1.88489007794024,-115.359098105949,1.5284301304429,AttemptLanding,AttemptLanding,1,0.507268930064578,0.16813282012097,0.185228072122281,0.898593001801612,0.345637140254428
199,2.48176676254209,3.0,-1.12162136002067,-2.17870838943478,2.48176676254209,0.0092938834863628,0.0076638705908503,0.0120462103041326,-0.0739442218850953,-0.251246974638044,0.267064127645494,0.0172517794392118,0.214070715459969,0.216102873325541,15.3820676573858,2.27220031208936,1.91981333543325,0.0277606936688706,0.0545970644238514,0.14343614421543,0.443037219099265,0.0210270397638334,0.0121536297898739,,,,,2.68563096804021,-116.007396076949,1.6850034608142,AttemptLanding,AttemptLanding,1,0.705025044676331,0.118810950317121,0.0850514229381934,0.953182403077887,0.33625060257092
200,1.89432760630105,2.81608963012695,-0.826157991891869,-1.67697487674837,1.89432760630105,-0.0765955686622447,-0.0060442978938939,0.0768336819091912,-0.0419737316940959,-0.152710734520053,0.161395702343721,0.0104123625933214,0.185949830881331,0.188370477013921,15.3557029260537,1.06887099276996,1.1171095289042,0.177519351890163,0.240298956556473,0.182234730373004,0.503238331391028,0.158408709664654,0.0376563839580495,,,,,1.97177383483815,-114.893051128023,2.10203458187651,AttemptLanding,AttemptLanding,1,0.542828123749731,0.221482630377513,0.216986679718776,0.894064762813193,0.319006786500887
201,1.82414348141567,2.47730851173401,-0.759803864799753,-1.64518833044452,1.82414348141567,-0.0515291743455981,-0.0189113647403603,0.0548898490167534,-0.0326904718425733,-0.142669985609597,0.147549346045985,0.0095179171981874,0.115012509594101,0.117333530168775,15.3710396022911,1.0070091414595,0.950547342643682,0.177845064010327,0.24022808094304,0.135597427883807,0.494197494327374,0.158770193618516,0.0356154992610266,,,,,1.87135485490829,-114.338554000358,1.82341369026149,AttemptLanding,AttemptLanding,1,0.509904967744601,0.157025270808031,0.17773078362231,0.895696667048312,0.339734476496086
