scenario_id,mean_wind_speed,max_wind_speed,wind_velocity_x,wind_velocity_y,wind_velocity,wind_acceleration_x,wind_acceleration_y,wind_acceleration,wind_body_force_x,wind_body_force_y,wind_body_force,mean_wind_body_risk,mean_wind_gust_risk,mean_wind_risk_raw,min_thrust_margin_n,mean_abs_roll_deg,mean_abs_pitch_deg,mean_abs_vz,max_abs_vz,mean_tag_error,max_tag_error,stability_std_z,stability_std_vz,mean_imu_ang_vel,max_imu_ang_vel,mean_imu_lin_acc,max_imu_lin_acc,wind_speed_cmd,wind_dir_cmd,hover_height_cmd,gt_safe_to_land,label,success,onto_wind_condition,onto_gust,onto_temporal_pattern,onto_drone_state,onto_tag_observation
1,2.037852565179,2.75775289535522,-1.25715799701758,-1.58628126165154,2.037852565179,-0.0581848640731715,0.0140439185645338,0.0598557437165448,-0.0854855467995169,-0.132154571330122,0.161113152063632,0.0103923961650887,0.128978744989515,0.131630151212172,15.4023389914703,0.87463895813646,1.03261902767408,0.175269183451415,0.240281671770384,0.115999087061262,0.43930330757302,0.154696543525535,0.0418828355581341,NaN,NaN,NaN,NaN,2.0716688985117,-127.374480982322,2.31472368639318,stable,stable,1,0.569753380956834,0.17295112730435,0.187754817748432,0.897379809814353,0.348444850194995
2,2.36616875923286,3,-1.42626555009644,-1.8469346047242,2.36616875923286,-0.0109851788487924,-0.0167938282895546,0.0200675564770353,-0.115570895691902,-0.18402114892759,0.227314670073096,0.0146835580429211,0.233615034079154,0.235357148516705,15.3708828558111,2.12968278147537,2.29976370862314,0.0209080218021815,0.100332152442349,0.159868593885301,0.48083965773047,0.000568901417341381,0.00652885313640074,NaN,NaN,NaN,NaN,2.42882567996652,-126.095851442396,2.29562827713516,stable,stable,1,0.67804976549877,0.146291081193396,0.0904016222036483,0.954743195248135,0.328947291606533
3,1.76365819719971,2.62538480758667,-1.09602922619097,-1.36567476273877,1.76365819719971,-0.0590327996437614,0.00671228211256739,0.0594131817439461,-0.0676115006761324,-0.102646359648308,0.126001974263663,0.0081272994646144,0.134752701673123,0.136085535475334,15.4031769438468,0.71434276559534,0.857074247315572,0.179107423718137,0.241349495221991,0.256996028950414,0.387488809279844,0.143339321153945,0.00453949658829041,NaN,NaN,NaN,NaN,1.87319628751653,-127.297520073929,1.739648084456,stable,stable,1,0.497525959681657,0.204780903990122,0.188225633383488,0.898099440182346,0.285779542688705
4,2.3218188511795,3,-0.653768782263609,-2.19253507728288,2.3218188511795,-0.0127943728154077,0.000640426990414252,0.0128103911911266,-0.0331715397750626,-0.265273891595875,0.269182561612738,0.0173630166025956,0.240316313535366,0.24108415534206,15.459610867834,0.984168370361084,0.887981880838055,0.0755531279217629,0.249445032327553,0.313807775452827,0.645119730348716,0.0893344703066982,0.12383533392563,NaN,NaN,NaN,NaN,2.46779887999601,-105.553838771394,1.5,unstable,unstable,0,0.667368524716278,0.154939330202987,0.177698837665402,0.947513684065411,0.260529877576521
5,1.83302115822981,2.71988344192505,-1.06475181300277,-1.47732324148751,1.83302115822981,-0.0514394785258357,0.00308671596998141,0.0515320072041566,-0.061721616583343,-0.116015431155804,0.134088880843725,0.00864829045865893,0.121823833259352,0.123785668871209,15.4421142307568,0.687643144035526,1.05374206704049,0.197878845383141,0.241957642148649,0.242100595539238,0.434262864206446,0.123717082566933,0.00497030852779546,NaN,NaN,NaN,NaN,1.88084050141636,-125.058018224367,1.81199113677927,stable,stable,1,0.513562775968856,0.208991548485525,0.182187684040261,0.887378264935689,0.292399735315894
6,1.8847830698243,2.66040086746216,-1.04058225960243,-1.5565040887196,1.8847830698243,0.00473415862966279,0.00161439470480182,0.00500185247620348,-0.0592259327957976,-0.128065004291808,0.143589448122523,0.0092731586852391,0.136792156738328,0.137909976051046,15.3908928420991,2.04038295963489,1.98667579467906,0.0311924686190458,0.0526966681467321,0.135475801964986,0.410180369697134,0.0196939308270745,0.00615186762941801,NaN,NaN,NaN,NaN,1.9161886291726,-122.783489357006,1.75676944610296,stable,stable,1,0.530190813830021,0.175431010755823,0.116248507373194,0.952762589763725,0.339788532460006
7,1.92583276854979,2.62475872039795,-1.08253762135652,-1.57693249356579,1.92583276854979,-0.0506664545614022,-0.00838819270279694,0.0513561232438927,-0.0642008272902628,-0.131451931010137,0.149123264496688,0.0096197626016879,0.128796074054079,0.131227463091974,15.4345057264928,1.06537263206858,0.977718670994439,0.17666908153004,0.24025327540482,0.148131059450352,0.435631547858598,0.15809642580577,0.0353039816436093,NaN,NaN,NaN,NaN,1.96867067391655,-123.586570068552,1.59434633734214,stable,stable,1,0.539800897565005,0.166673628427216,0.183107066698994,0.895612598996628,0.334163973577621
8,1.89903968008789,3,-1.12869432969635,-1.49253637941009,1.89903968008789,-0.0840534973344988,0.00646420935542925,0.0843016987773759,-0.0747207784243091,-0.121520896237037,0.149457544019803,0.00964076183034836,0.186521168979277,0.18901019663688,15.4083618725744,0.877246870515591,1.06718988512557,0.177170188623059,0.240258506614044,0.158294328242557,0.510523285446753,0.158935897240746,0.0359557971687697,NaN,NaN,NaN,NaN,1.96461919299708,-125.030810267647,2.07541744697669,stable,stable,1,0.544212620684146,0.263171383422744,0.241615841939187,0.896137188322718,0.32964696522553
9,2.61171808298802,3,-0.810261578835701,-2.45068512125026,2.61171808298802,0.00778230638629747,0.00185120927064711,0.00799945425975649,-0.0427082502145506,-0.313891724202954,0.318811519986034,0.0205884504554121,0.198882036857807,0.201301749354319,15.4034828544602,2.21596607346479,1.85935924708622,0.0304113898779653,0.051715458730583,0.139937741738056,0.456567265128864,0.023720262068889,0.00759505477996189,NaN,NaN,NaN,NaN,2.98365709536118,-106.900241715489,1.61384370402076,stable,stable,1,0.736718505334336,0.0888299979419837,0.0666021755642786,0.952773891828117,0.33780544811642
10,1.87646550620162,2.60312938690186,-1.12416003568585,-1.48851298796186,1.87646550620162,-0.0542858864989016,0.0106352746529177,0.0553178681794104,-0.0684962818280666,-0.117438860730994,0.138685088521184,0.00894692752907922,0.124441153501746,0.126662267901569,15.4032795716558,1.06566562703865,1.05582343882154,0.175261696159536,0.240235519255058,0.132502272626375,0.427158654281428,0.155744727618106,0.0410482306226107,NaN,NaN,NaN,NaN,1.92399487038037,-126.353098118705,1.96948950600592,stable,stable,1,0.52572325523408,0.173640982323778,0.18833109765296,0.895700309259902,0.341110101054944
11,1.87455254273127,2.78689432144165,-1.16802297655618,-1.45108074084103,1.87455254273127,-0.0489337267635928,0.0103165025615319,0.0500093975176271,-0.0738092175686393,-0.111561875230819,0.13674126771544,0.00881932454705978,0.122749359258628,0.124976476831692,15.4143411203906,0.789367756663577,0.98888953238637,0.176270062655114,0.240206722940874,0.148206199515337,0.469306105159784,0.155536872333865,0.042040094065003,NaN,NaN,NaN,NaN,1.90759543141243,-127.844704273722,1.90005727931872,stable,stable,1,0.524875973428009,0.214445289754735,0.213081979600621,0.897892947115622,0.334130577993184
12,2.62876946014046,3,-0.789171608806445,-2.47364055509457,2.62876946014046,0.00667733469461025,0.00316581931740981,0.00738980450176667,-0.0415237384292333,-0.318541142863802,0.323282848877404,0.0208742001207989,0.198061014518835,0.20059573942384,15.4167398910577,1.91252653808052,1.87807856611822,0.029465072918478,0.0527686090558224,0.12806625676274,0.488006256665179,0.0225090715149902,0.00582026423569516,NaN,NaN,NaN,NaN,3,-106.299635778902,1.59525337918183,stable,stable,1,0.741124337255557,0.0848816689603873,0.0630494928827435,0.955484137722057,0.343081663661005
13,1.99243984526436,2.67910361289978,-1.07191777000491,-1.65516981154219,1.99243984526436,-0.0753671589110053,0.00429378394354895,0.0754893715887912,-0.0647255527822323,-0.145759813655718,0.16373303209714,0.0105637933714229,0.155425575341365,0.157902940194741,15.3831432411363,1.11679166897641,1.15565030352743,0.176403470184424,0.240280736646786,0.174549450236107,0.411490495226621,0.154941897926445,0.0430520498276498,NaN,NaN,NaN,NaN,2.02726066309477,-121.319262228342,2.42441377801548,stable,stable,1,0.562897880109444,0.168339065842582,0.185521796097054,0.893943363695258,0.32242246656173
14,2.58778223654803,3,-0.70621841308425,-2.45791865307423,2.58778223654803,-0.0144708143492789,0.0183625569639654,0.0233792208207667,-0.0355280294677107,-0.326272465494022,0.329876245862897,0.0212936766808646,0.202612056592958,0.204512831203403,15.4237519306275,1.67163021817336,1.50855846401783,0.0628203805860565,0.240504041648648,0.137195436584315,0.449613210206184,0.00191614511786919,0.00917289612661996,NaN,NaN,NaN,NaN,2.96211416560549,-104.652706865072,2.28199343957259,unstable,unstable,0,0.730977829320155,0.0970351872605002,0.0624083310001846,0.943602612918327,0.339024250406971
15,1.76307623934101,2.42816066741943,-0.935181884292951,-1.48002215364398,1.76307623934101,-0.0463937968521374,-0.00446643537884533,0.046608297880858,-0.0478349723050999,-0.115707872453017,0.127290189594329,0.00821302404302164,0.117403985651668,0.119463188835825,15.384806588437,1.09752202393988,1.12004720172408,0.17707415796965,0.240211426546359,0.171798844559429,0.46913036599687,0.158080363675997,0.0380648769438077,NaN,NaN,NaN,NaN,1.78867162897179,-121.8764556945,1.85411542405643,stable,stable,1,0.494046301591435,0.158188850929135,0.179013023403147,0.89403916281353,0.323644957973587
16,1.76176521530917,2.44658303260803,-1.00360400912704,-1.43357083160319,1.76176521530917,0.0033602786474673,0.00238312087817347,0.00411955552318584,-0.0546403122491766,-0.107896392600827,0.123273760227623,0.00796298404717134,0.119877064854347,0.120869872782087,15.401446211127,2.04972643238114,2.27815924376801,0.015080973289446,0.0611509820742539,0.14344905528968,0.520879598922782,0.000170243505302303,0.00642541856851794,NaN,NaN,NaN,NaN,1.79698325918466,-123.928221238646,2.45912224337717,stable,stable,1,0.493978031972196,0.154839260738162,0.0953157360661288,0.958454697328391,0.336244864315698
17,1.85835823516718,2.68398118019104,-1.0148569763528,-1.52436076823435,1.85835823516718,-0.0777498142918892,0.0138314982979792,0.0789705259422163,-0.0603767871266021,-0.127412983271447,0.146630864419438,0.00945866508684044,0.185555265505761,0.187862236747047,15.4559003059638,1.00350051275508,0.949106972375978,0.175688413920837,0.24029222240423,0.181223991310718,0.408925459993495,0.15552195543153,0.039913863444442,NaN,NaN,NaN,NaN,1.90606506718967,-122.683382350962,1.72059217335754,stable,stable,1,0.53313464339399,0.200243092386442,0.20378085667416,0.896813877084981,0.319456003861903
18,1.7870180862862,2.71298217773438,-1.04300174363513,-1.42110821826261,1.7870180862862,-0.0768844760498823,0.00546209675764821,0.0770782534730441,-0.0636078998626341,-0.111251391529064,0.133667823030391,0.00862225487840063,0.183803326164578,0.18589066019878,15.4198247121124,0.905401458221467,1.00549458940769,0.176032296701233,0.240233728311663,0.162911045763943,0.434905506041456,0.156068984346928,0.0393283191696664,NaN,NaN,NaN,NaN,1.87952489310621,-124.36494621675,2.23222209012237,stable,stable,1,0.513716288382743,0.222472933712564,0.217148960241405,0.896969668418012,0.327595090771581
19,2.62073828703584,3,-0.770397534308447,-2.47258838154927,2.62073828703584,0.00736647633200846,0.00702813238074463,0.0101813367644584,-0.0394985917576624,-0.318261360773409,0.322508378757773,0.0208329390162523,0.194648498063697,0.197157526738754,15.368131049847,2.09355050549608,2.30777993735686,0.0146091477566423,0.0559138440007443,0.15445866811763,0.503024323359428,1.05572029650078e-05,0.00799412010718452,NaN,NaN,NaN,NaN,3,-106.031594526481,2.48999995534792,stable,stable,1,0.738295048557307,0.0872004638237541,0.0552319231507081,0.958113544070691,0.331351703058831
20,1.90331339111199,2.6059103012085,-1.02283696214666,-1.59293910182215,1.90331339111199,-0.035886913693045,0.0183966514224795,0.0403275012612024,-0.0566181542731488,-0.134066569022959,0.147469965963058,0.00951203682757091,0.125268657177509,0.127647079927686,15.4494337754162,0.947265278634133,0.965513708942184,0.176328277524966,0.240242104813973,0.155972987740037,0.438534862073839,0.159695183470555,0.0359016063732118,NaN,NaN,NaN,NaN,1.95533603544456,-121.682915799118,1.85822126403098,stable,stable,1,0.533079653615402,0.165477680002934,0.183317374690044,0.896806883477989,0.330678672115539
21,1.9622585394898,3,-1.09576824476306,-1.59740157547543,1.9622585394898,-0.0760811154788588,0.0140201819838503,0.0773621460106151,-0.0702305063156805,-0.139750997568281,0.162104333775163,0.0104567484095452,0.184550982406897,0.18717935539697,15.394024533629,0.958804723431378,0.939854723079439,0.175678683558671,0.240307488628896,0.156402388587487,0.467733227509043,0.158348351996091,0.0365288038316743,NaN,NaN,NaN,NaN,2.01006102178809,-122.843348050567,1.5,stable,stable,1,0.56070481494334,0.247674888716742,0.232265179954977,0.897242619712365,0.33048782729445
22,2.62632970068367,3,-0.743599890309947,-2.48485361462804,2.62632970068367,0.00508566987594625,0.00269491176575672,0.00575557012921579,-0.0380642509625217,-0.322624015983098,0.326698581851481,0.0210973615999963,0.196102910740216,0.198542508744095,15.3993077307334,1.92652193865175,1.90679648563854,0.0274588518423126,0.0488076073967206,0.136566033156098,0.420124651067418,0.00886737834287466,0.00669596266183654,NaN,NaN,NaN,NaN,3,-105.373889448931,1.94362371106138,stable,stable,1,0.740063088597798,0.0851310052031971,0.057454555676591,0.956151643602277,0.339303985263956
23,1.68927737370433,2.3783004283905,-0.824393550473569,-1.46164020921835,1.68927737370433,-0.0491189928037538,-0.0112354854341057,0.0503876134282545,-0.0377027984991167,-0.113455392117938,0.121103248734975,0.00781236201085683,0.119074894871678,0.121096197426104,15.3915337205328,0.988118509164533,0.98022847730693,0.176209461906212,0.240184568283697,0.150772659027156,0.424598126727939,0.154691734142425,0.0417629767950469,NaN,NaN,NaN,NaN,1.75191981509009,-118.497538474994,1.95542675169996,stable,stable,1,0.474693205806377,0.164267916432901,0.182499168717199,0.896429685581761,0.332989929321264
24,2.61742930491921,3,-0.564481022964092,-2.52140115788987,2.61742930491921,-0.0130767501024421,-0.00166295704574899,0.0131820643063871,-0.0264018275025358,-0.330602290548666,0.332748251879076,0.0214640724443355,0.197989033557721,0.199594538718404,15.4436439769433,1.10976611488525,0.780234970585343,0.0749839221247225,0.241578876360181,0.337966969454318,0.874769406162246,0.0686404298256639,0.118969625501112,NaN,NaN,NaN,NaN,3,-102.185830974197,1.64048347806092,unstable,unstable,0,0.737900055722138,0.088495118182681,0.126865610610308,0.947658030408941,0.249792458020303
25,1.71749391588005,2.62520670890808,-0.936814790461483,-1.4064513670308,1.71749391588005,-0.0776253780528933,0.00699064282782606,0.0779395176082124,-0.0526274691958859,-0.109848443374465,0.126926675139054,0.00818763878432556,0.180777420636475,0.182685889275255,15.4384390881288,1.03749850132929,0.927274018255588,0.176095635135769,0.240239780497559,0.153223510734944,0.428313936934662,0.15622397746192,0.042903656978856,NaN,NaN,NaN,NaN,1.79680657025774,-122.144595008979,1.96676554592592,stable,stable,1,0.494535555423064,0.218524289992813,0.216148782678145,0.896514684063949,0.33190066189558
26,1.84327087673455,2.72814059257507,-1.02649987925413,-1.51103727003027,1.84327087673455,0.00595879091888282,0.00373525164941466,0.00703273020237627,-0.0584683274848168,-0.121608690621944,0.138284885642172,0.00893117040266846,0.150026968606135,0.151128280090263,15.4043925825629,2.0373092440574,1.99176639725913,0.0189082764084347,0.0678962712637359,0.136080194708419,0.503403600296449,0.000233104855264461,0.00560332902430715,NaN,NaN,NaN,NaN,1.89015622586425,-123.159855511628,2.32088562213493,stable,stable,1,0.5217645564806,0.200385019934553,0.122372188309284,0.958888838899724,0.339519913462925
27,1.72111974906601,2.72266459465027,-0.83618402462745,-1.47628079431165,1.72111974906601,-0.0844827154179221,-0.00834258014471909,0.0848936266621746,-0.0428681789406682,-0.119167671360266,0.130273721859252,0.00840178223755414,0.178051321089426,0.180022436025026,15.4630590227837,0.837892464913391,0.766323989666992,0.176086876087284,0.240243061517358,0.141969173564846,0.405952842775648,0.158419306435726,0.0371506254672692,NaN,NaN,NaN,NaN,1.77620387229689,-117.832865156267,1.70061855648391,stable,stable,1,0.494969753622609,0.240911421811189,0.228464752076548,0.899352004098941,0.336902589526735
28,1.71934655590637,2.52336502075195,-0.973686261403562,-1.38676063113928,1.71934655590637,-0.0761352339722091,0.00479646476242726,0.0762861712646547,-0.0563891569812992,-0.105913630831451,0.125120847550918,0.00807094017996261,0.176832911275846,0.178854500580211,15.4146029701372,0.920712883324648,0.965712776128511,0.176049136248774,0.240269708301281,0.160585761841837,0.459473788967951,0.159034720864362,0.0369265401557486,NaN,NaN,NaN,NaN,1.77693740749085,-123.63065316624,1.896318604113,stable,stable,1,0.494263315024408,0.194889952655442,0.201043902539113,0.897153515979909,0.328628550292517
29,2.62152945756115,3,-0.518655560591497,-2.53614469356953,2.62152945756115,0.00732907496173151,0.00395146886783357,0.00832643056826499,-0.0233232800619457,-0.334373949508653,0.336085440315808,0.0216990506626976,0.199632970761615,0.202311878782012,15.3977364120004,1.86061466496741,1.84802376957867,0.030146104689273,0.054337798817412,0.136355203163759,0.449637534126287,0.0225760086307727,0.00531463597151451,NaN,NaN,NaN,NaN,3,-100.208461528465,1.5,stable,stable,1,0.739536897772708,0.0866823843195902,0.0639758071041634,0.955787645669644,0.339397687482774
30,1.8477051515837,2.57464623451233,-0.936863657386825,-1.57802502534612,1.8477051515837,-0.0470874479186719,0.00525801455141136,0.0473801062526932,-0.0481278912151194,-0.131655903883141,0.142210897770631,0.00917414106289029,0.120522220926724,0.122875871288572,15.4406299524936,0.991390383147409,1.0606185168534,0.176033675188346,0.240219799036772,0.143784130955165,0.398305008964941,0.158864834022458,0.0374831680780484,NaN,NaN,NaN,NaN,1.90894849737311,-119.745808657761,1.56744174816411,stable,stable,1,0.517296548013367,0.172248096471936,0.187585693719504,0.895860235334392,0.336095941797705
31,1.91072295485316,2.5919885635376,-0.955657536633405,-1.63458841688948,1.91072295485316,-0.0605431189449121,0.00902933034366629,0.0612127279087676,-0.0516131602927012,-0.142313755099061,0.154285445210334,0.00995218007205116,0.145122950251685,0.147622459278865,15.4058091081312,0.912072124051248,0.958375183055848,0.17593427003588,0.240272906035308,0.137880296949536,0.462169674005415,0.159172195156141,0.0349155369922748,NaN,NaN,NaN,NaN,1.95935225919259,-119.13516242978,2.26399016251627,stable,stable,1,0.539050613149949,0.164507095403939,0.182144013995819,0.897336493283361,0.338719868022429
32,2.62271673503927,3,-0.651664608222415,-2.50911225020882,2.62271673503927,0.00506532596880606,0.00470995080038786,0.00691673070983216,-0.0308887266824618,-0.327651516896512,0.330372522728469,0.0213311775950427,0.194231369700955,0.196843848290587,15.386427924172,1.86947858778667,1.81458128847109,0.0300394640097157,0.0572141412448241,0.131040881598553,0.475615761135064,0.0230096239199014,0.00626015099842527,NaN,NaN,NaN,NaN,3,-103.01941117063,1.51162965056482,stable,stable,1,0.738759899001922,0.0861568019129673,0.0641969992126185,0.956034083253117,0.341759608178421
33,1.8654956817627,2.71449756622314,-0.809061959477971,-1.66010898020255,1.8654956817627,-0.0569155906318017,-0.00448369423703685,0.0570919256198113,-0.0383856484448126,-0.146259637886752,0.153366491236398,0.0098928098776646,0.140805283847884,0.143116339629141,15.4129155378904,1.02645362579358,0.933129612159145,0.176289249214374,0.240241525423214,0.176227795637941,0.428776738520747,0.157889575001663,0.03599763948151,NaN,NaN,NaN,NaN,1.93692079365451,-115.089103932968,2.13148920924868,stable,stable,1,0.526088783062547,0.2014922770339,0.204158561386073,0.896458649951756,0.321676535272026
34,2.68260969476002,3,-0.594971241980953,-2.57857656646544,2.68260969476002,-0.028611309693507,-0.0107157369785867,0.0305521531380689,-0.0265526558177796,-0.340170743930326,0.342322069982199,0.0220958257327924,0.204232890855243,0.206338590649275,15.3801701591816,1.68129437392219,1.33245038740956,0.0629852177552577,0.240308359807043,0.12331473070217,0.419949248305477,0.00185748455511962,0.00932446906469898,NaN,NaN,NaN,NaN,3,-101.157933097739,1.54823639913469,unstable,unstable,0,0.756630303399194,0.0770140467543081,0.0504246927672761,0.944827967997622,0.345193453021258
35,1.79816514853663,2.56158709526062,-0.803012944434977,-1.59520307736261,1.79816514853663,-0.0559379395349894,-0.0143538116275672,0.0577501946980252,-0.0364160947044933,-0.133850521629406,0.140152260229757,0.00903883778401286,0.121571487451776,0.123743202981304,15.4300784074314,0.898184253483025,0.718232850211854,0.175466656531555,0.240223747557711,0.170497797219597,0.486151683031371,0.156498379026245,0.0395767075673127,NaN,NaN,NaN,NaN,1.86137587595629,-115.841095627455,1.57706934169797,stable,stable,1,0.504259346872696,0.182357473707535,0.193360849371774,0.899566251633763,0.324223201235735
36,1.97456427641138,2.88436532020569,-0.895206173726008,-1.73669016250583,1.97456427641138,0.0053020986820583,0.00400112283788695,0.0066423816811551,-0.0465758677897119,-0.159614490854783,0.169019488998664,0.0109167401000272,0.164491827855045,0.165811464655503,15.4200195932595,1.96901131452146,2.29631717177888,0.015527506794763,0.0541075096932536,0.147507839933684,0.444125462836967,0.000157965982515204,0.00749310674457682,NaN,NaN,NaN,NaN,2.00134863438598,-116.022448666907,2.44584430490718,stable,stable,1,0.559712766640802,0.205923004828597,0.126348776089436,0.958722951353116,0.334440960029474
37,1.82310356789787,2.5523784160614,-0.822154951624043,-1.61542985786773,1.82310356789787,-0.0506394008804539,0.00371403398338394,0.0507754169846103,-0.0376239738654832,-0.137139118422846,0.143465450840437,0.00925325366079719,0.113079958438341,0.11545641418095,15.422475104433,0.890071570702392,0.821554568459355,0.175375078726395,0.240217685547073,0.129276685801381,0.423262513987162,0.155166168349727,0.0416191914287027,NaN,NaN,NaN,NaN,1.84847057739295,-116.145839673518,2.42871079867275,stable,stable,1,0.509252234275623,0.173395667283972,0.18813439328777,0.898863969543389,0.342543695199386
38,1.93542308823482,2.63105058670044,-0.767679637276807,-1.76212358180064,1.93542308823482,-0.0567682455427521,-0.00539430590583557,0.0570239619651943,-0.0342978615199191,-0.164019040754032,0.168831225072827,0.0108918407125161,0.135756033925316,0.138562843372187,15.3840547953678,1.06639211823875,1.01078723155064,0.17731949260772,0.240256258657907,0.175755984527803,0.503932459664979,0.159070650586008,0.0339142637507418,NaN,NaN,NaN,NaN,1.9993932608471,-112.620106358339,2.15381604999167,stable,stable,1,0.543825392203724,0.166970580181716,0.183212874581869,0.895019558804938,0.321886229098754
39,2.62170274799883,3,-0.628596546016149,-2.51436128356828,2.62170274799883,0.0074392281437685,0.00309685403454456,0.00805807795236012,-0.0292166648333319,-0.328676936035722,0.331152031931898,0.0213853965372884,0.192299437020373,0.194970650944823,15.3970088481074,2.20643910386895,1.84588712597827,0.0173712811422838,0.0486356972661242,0.135718907301583,0.393296613210747,0.00018163468380902,0.0057650838884303,NaN,NaN,NaN,NaN,2.9987372183553,-102.731971335258,2.36188120784522,stable,stable,1,0.738114862988652,0.0865941959915298,0.0541336382623026,0.959474653337201,0.339680485643741
40,1.89187859441783,2.98776388168335,-0.301362032651643,-1.84416289832318,1.89187859441783,-0.0675236202048279,-0.0206014173700973,0.0705964424261081,-0.0100175121751761,-0.186063903151519,0.186650423990315,0.0120454959217777,0.195441889789114,0.198391079180808,15.3283082667391,1.34807397763346,1.06404164358496,0.177461922581419,0.240269853601631,0.16467832385726,0.44146429004656,0.158579621107225,0.0357419081610545,NaN,NaN,NaN,NaN,1.96262077332345,-97.9255988407311,1.5,stable,stable,1,0.544179174347583,0.259516870746195,0.239187011564039,0.892316701685431,0.326809633841218
41,1.89589224715491,2.53631043434143,-0.270299536227854,-1.86485000773452,1.89589224715491,-0.0424508507199896,-0.025622745346725,0.0495842697430744,-0.00619709314559318,-0.182774153372747,0.182990953219189,0.0118021585303868,0.123658457462497,0.126609723742983,15.4635368692153,0.982783163702713,0.643738768174249,0.175314464031874,0.24021885499782,0.148757124508099,0.393589214787365,0.155346211578043,0.0394262049624923,NaN,NaN,NaN,NaN,1.94919332297993,-97.076725643542,2.22349219466226,stable,stable,1,0.530893210656572,0.153184541569865,0.175290287447814,0.89956295280503,0.333885722440845
42,2.61746302057668,3,-0.626622479543762,-2.50965586979012,2.61746302057668,0.00640512833439226,0.00833878957428247,0.0105148029246485,-0.0291640605874604,-0.327885787473167,0.330329726570501,0.0213254646174498,0.196189651121448,0.198784090810343,15.3956156821544,1.85560635060711,1.75210731388364,0.01376833589729,0.0527485876214656,0.122790077079378,0.476529751316593,0.00030401807406832,0.00758134025731169,NaN,NaN,NaN,NaN,2.97766096785849,-102.83550377438,2.49339244748639,stable,stable,1,0.737746956982517,0.0879985342397656,0.0556910906905485,0.964769510401785,0.345426632409165
43,1.82864525574166,2.64775776863098,-0.243310651314643,-1.80102709330356,1.82864525574166,-0.0493118140376342,-0.0254511173881064,0.0554924713811287,-0.00546146077007645,-0.171232657722635,0.171410430749554,0.0110557757445575,0.124304030664393,0.12704943311124,15.4374185130499,1.0230470709136,0.605108271664313,0.175367786739123,0.240214468566681,0.144327799393613,0.394936201292677,0.155994005635068,0.0408199705941695,NaN,NaN,NaN,NaN,1.87761184680711,-96.9149867627548,2.23451544009283,stable,stable,1,0.51304862148669,0.194473935153305,0.200858655933731,0.899523457510183,0.335854311380617
44,2.5354298559519,3,-0.626295077324717,-2.42447377252919,2.5354298559519,-0.0267177211215899,-0.00764182631332672,0.0277891009450487,-0.027787548887572,-0.306824102871867,0.30930143136301,0.0199601989848266,0.21897198893265,0.220819556491411,15.4072787761564,1.50520372131223,1.18041985010079,0.0624422196277729,0.240283201541294,0.104334308222031,0.427385794663436,0.00191387058938658,0.00858183161587718,NaN,NaN,NaN,NaN,2.70268226585959,-102.84402520654,2.03509387597277,unstable,unstable,0,0.720278539552121,0.109622950917416,0.069745045743425,0.947677562125011,0.353629196345764
45,1.64586535982184,2.47781848907471,-0.227730622179908,-1.61471415066182,1.64586535982184,-0.0518106050338988,-0.0224444881650704,0.0564632078699984,-0.00543043958242008,-0.139457896314456,0.139691296627366,0.00900968752198599,0.136421036067024,0.138592728780172,15.4666425885334,0.861646050361479,0.711647055773431,0.176552869528746,0.240202863254125,0.1696725636011,0.437033606221546,0.159089706301646,0.0362496305052743,NaN,NaN,NaN,NaN,1.74484723470437,-96.8322370152764,2.39270917975959,stable,stable,1,0.466615975041857,0.197541042191396,0.202412845269002,0.899361976544567,0.324589971732844
46,1.68117266036196,2.43822431564331,-0.229628865834077,-1.64949415363845,1.68117266036196,0.00578286641275238,0.00852456396142199,0.0103009579496333,-0.00563578345525674,-0.143554832875912,0.143806381982486,0.00928478818669191,0.137900435836683,0.139042857537633,15.4258622588919,1.92478227066613,1.80087881170684,0.0187165228292732,0.0520044522458281,0.131637621198117,0.41003249789442,0.000287738349639095,0.00530326821496575,NaN,NaN,NaN,NaN,1.71876069037497,-96.5690723186371,2.28464923306761,stable,stable,1,0.476121280937383,0.172225131395736,0.105391423717471,0.961368687223861,0.341494390578615
47,1.67770591284099,2.5174834728241,-0.147231075729789,-1.65907368091794,1.67770591284099,-0.0321091870998247,-0.0196842386653817,0.0376625695890131,-0.00316577156419748,-0.157724739691756,0.157806959742311,0.0101788705856605,0.139028243551718,0.140296224085084,15.4609595723101,0.785372985654013,0.794131726456782,0.165271453663658,0.243558366990296,0.221132886403152,0.454838058212619,0.157367197912514,0.00505305603194127,NaN,NaN,NaN,NaN,1.8330973949862,-93.5355183886098,2.0697006349451,stable,stable,1,0.475447488241282,0.195854755420851,0.189291305023223,0.904953879001586,0.301718717154155
48,1.53126827160517,2.34127140045166,-0.257099446690668,-1.49712022983623,1.53126827160517,-0.00821316264880064,-0.0118488147039485,0.0144170194764438,-0.00631382975502885,-0.13310590700389,0.13336037998773,0.00860169992117274,0.134942020848723,0.136599657859846,15.4570853437368,0.6552866264796,0.776191827384024,0.143621720269108,0.245176437362387,0.216193276789619,0.50716269962113,0.157100331442064,0.0416806427426386,NaN,NaN,NaN,NaN,1.76093856199151,-95.8152911333806,2.13508936603622,stable,stable,1,0.435658137333349,0.184893824227807,0.19591526142745,0.916941809156517,0.303914099204614
49,2.61818938550343,3,-0.681222135423448,-2.49449220626165,2.61818938550343,0.00587508686300222,0.00805053570728761,0.00996633186393741,-0.0333673592431573,-0.324534604616693,0.327729476850213,0.0211555392310454,0.197648585656727,0.200208987546884,15.4239718704466,1.79744599557203,1.49737442096329,0.0273136796382802,0.0456071586866176,0.125110117753235,0.386521228602148,0.0101443035751266,0.00510753749059037,NaN,NaN,NaN,NaN,3,-103.690253195533,1.91131228083439,stable,stable,1,0.738225633643625,0.08773454910345,0.0590065951890076,0.960455285479511,0.344395503220784
50,1.71072482182676,2.5441415309906,-0.179666661153704,-1.68513505149074,1.71072482182676,-0.0550988193274368,-0.0186639656317198,0.0581740793169909,-0.00447113661388245,-0.151872963244364,0.152049868519555,0.00980907859135073,0.141336162232001,0.143937815906172,15.4107779492459,1.10403106697541,0.776585277339586,0.175788679028899,0.24019988408829,0.167722065358491,0.407923444593825,0.156620736705237,0.0418864422281179,NaN,NaN,NaN,NaN,1.72627812567413,-94.411640590645,1.5318823978584,stable,stable,1,0.484980849001703,0.198184007436647,0.203751054312924,0.89732938920879,0.325456859840671
51,1.60321395219983,2.2086615562439,-0.140526626493235,-1.58126005439484,1.60321395219983,-0.0434487884067703,-0.00767576451945482,0.0441215885363891,-0.00308431446375991,-0.132031562237806,0.132147910526653,0.00852508846101979,0.120284119142606,0.122511496471077,15.399808212336,1.00634732573718,0.875398039391477,0.176013294772032,0.24015095722346,0.143636513117816,0.440734647879139,0.158588709427754,0.0362636755571303,NaN,NaN,NaN,NaN,1.64198518080473,-93.7945426045898,2.1886750923084,stable,stable,1,0.452026019880838,0.144314668808252,0.170259463253415,0.897208210459402,0.336161549725415
52,2.62370934414624,3,-0.633758743170375,-2.51332572949927,2.62370934414624,0.00767649790739871,0.0046554704518734,0.00897786306704235,-0.030026098022969,-0.32867202307413,0.331315539699372,0.0213936991209871,0.19512238059103,0.197767971489937,15.4017387254414,1.87226469565456,1.94995317716215,0.0272845337160817,0.0468165422255312,0.124146947663174,0.413937603141638,0.00888948402790526,0.00657923250194371,NaN,NaN,NaN,NaN,3,-102.899260755177,1.9513474947892,stable,stable,1,0.739209419403652,0.0863113391293863,0.0581301334503369,0.956326021284114,0.344823578816367
53,1.69833897544234,2.58827066421509,-0.146601484328962,-1.66774651769736,1.69833897544234,-0.0724626265555583,-0.0323126626063136,0.0793406605218268,-0.00410115704371255,-0.15218080249515,0.152386556703176,0.00982941005162219,0.176319073247294,0.178767399788441,15.4263008286978,0.966473288308786,0.762587847430313,0.175581782259697,0.240226758996322,0.142067357284424,0.416777718598944,0.155955166772335,0.0410030435602269,NaN,NaN,NaN,NaN,1.76767167051157,-93.7767495596924,1.56419267219304,stable,stable,1,0.488643873408978,0.214780417736204,0.213091855754358,0.898623628517916,0.336858952318034
54,2.68532531823103,3,-0.587761222068083,-2.58468749931577,2.68532531823103,-0.0297023994580059,-0.00921222896472014,0.0310981944180266,-0.0256797977492385,-0.341728827360512,0.343723255133402,0.0221916268004987,0.203609165019859,0.205687092156176,15.4004922899164,1.75415495932287,1.55487645893456,0.0629460239383439,0.240267600846163,0.13027796447393,0.417252582746145,0.00183233194347369,0.00877550112829034,NaN,NaN,NaN,NaN,3,-101.106544404973,2.01174158765457,unstable,unstable,0,0.75722416995951,0.0765031390413226,0.0499073444968268,0.942527455458805,0.342098682456031
55,1.63698370754719,2.42821788787842,-0.146392996563671,-1.61955744861585,1.63698370754719,-0.0399831510210365,-0.0217697904875561,0.0455255548394865,-0.00278443998377114,-0.139129184725387,0.139204214323134,0.00897943423739487,0.121715401310529,0.124003425636164,15.4326216265825,1.00628398746666,0.746890125740144,0.176529222541895,0.240179674730461,0.151006786062046,0.431304357940429,0.158808181342604,0.037710281746793,NaN,NaN,NaN,NaN,1.6954412846166,-94.4207914550518,1.62532397087037,stable,stable,1,0.461329673806483,0.186374042295099,0.196118669033212,0.897960449268142,0.332885872861313
56,1.70791061586361,2.40397477149963,-0.0929283798210295,-1.69449934952431,1.70791061586361,0.00234197048855596,0.00340809746705384,0.0041352090774477,-0.00161758348873119,-0.150485892092789,0.15052836992846,0.00971664654373662,0.115797517055383,0.116988961828741,15.3893896872746,1.60548190458056,1.78595427422103,0.0296791325844472,0.0480738162124253,0.116755838291945,0.393558411310406,0.0234303854569121,0.00599830360417865,NaN,NaN,NaN,NaN,1.73280982852964,-92.1431804697514,1.53820688208243,stable,stable,1,0.47884062326271,0.157372556682304,0.10701823996751,0.95851343516005,0.348108516314691
57,1.59674611003012,2.45742154121399,-0.217662945601832,-1.5614370715389,1.59674611003012,-0.0599210522015284,-0.0298774885042019,0.0669566786531188,-0.00588257993873007,-0.13216572922241,0.132468678044,0.00854530751757571,0.158966336461073,0.161119843223377,15.4095345579176,1.05249050615356,0.799547063397033,0.176872558722154,0.240190869415916,0.133544017701451,0.415812588186753,0.159287062074581,0.0361591307948492,NaN,NaN,NaN,NaN,1.65239533729994,-95.8334835366937,2.25183670698635,stable,stable,1,0.458022931319375,0.205927363102775,0.207499442507081,0.897011996878168,0.3406471032438
58,1.63645794967677,2.33345890045166,-0.0988070276639387,-1.61754979721324,1.63645794967677,-0.0536499268941781,-0.0238880692007451,0.0587278001111079,-0.00228074937717817,-0.139254834569321,0.139341936523619,0.0089866022380102,0.135255976685427,0.137539772653018,15.4686871300236,0.743222962179662,0.650376060649536,0.175561711644445,0.240169068158116,0.135298829206281,0.400038362914807,0.156584527732756,0.0413577723941134,NaN,NaN,NaN,NaN,1.68060545220575,-92.4282145747537,1.76604533581129,stable,stable,1,0.463896741111076,0.167591977278053,0.185187499765108,0.901269437569834,0.339867187019431
59,2.53562375295122,3,-0.518520151103665,-2.44951482270387,2.53562375295122,0.00517884876512233,0.00460610200905146,0.00693084772952032,-0.0231211807920699,-0.314790984547739,0.316504658400849,0.0204408467734815,0.212072151346055,0.214578519012766,15.4007454769496,2.1004574742,2.03950597661847,0.0301628897797747,0.0726238207823739,0.131734006803796,0.46652837055707,0.0236024657145757,0.00476906906876501,NaN,NaN,NaN,NaN,2.78982386220964,-100.41262924442,1.51946326923615,stable,stable,1,0.719082037922879,0.105755311003053,0.0756773782979621,0.952390270853682,0.341451552531646
60,1.69893283457369,2.21051335334778,-0.0983909991822905,-1.68241732325473,1.69893283457369,-0.0459159228979038,-0.0160795095771528,0.0486500010668859,-0.00205539666459442,-0.149514597408896,0.149578640866927,0.00964891363646639,0.114225294991411,0.116587376184116,15.3783630302545,1.09667577626076,0.758481138907712,0.177651873601871,0.242105327503396,0.146368966550773,0.444528699943633,0.157998591394343,0.0363645457725128,NaN,NaN,NaN,NaN,1.72864210057146,-91.9462754292346,2.20522549950379,stable,stable,1,0.476366231123142,0.124024783586431,0.157859937517127,0.896597830294169,0.334947125977434
61,1.5956798079046,2.32811641693115,-0.183606892706576,-1.5696266841049,1.5956798079046,-0.0482920438686231,-0.0188133042633629,0.0518272314359438,-0.00413239055384871,-0.131710983399736,0.131877750959927,0.00850594690541926,0.136309670419438,0.138422161702494,15.4253068796407,0.889659087548258,0.719535294622166,0.176302285491687,0.240184221019009,0.118791702659955,0.417572174472246,0.1577465762064,0.0367941607746262,NaN,NaN,NaN,NaN,1.6541677253945,-95.777639022521,2.49139036290751,stable,stable,1,0.453199047781727,0.174299896127563,0.188069221928741,0.899205187108532,0.347203687706687
62,2.59643904740196,3,-0.53246601672736,-2.50825402827048,2.59643904740196,0.00532096072714302,0.00504331577863177,0.00733127936330315,-0.0239831867872987,-0.329229419156087,0.330992366144939,0.0213715582503825,0.203028734876012,0.205580201960982,15.4129266241404,1.83887371878788,1.92205311989655,0.0163478711133767,0.0747657071150112,0.133246630687896,0.446560037605668,0.00027635973505255,0.00493458711056546,NaN,NaN,NaN,NaN,2.96888331606625,-100.576107342626,2.38476898169446,stable,stable,1,0.733499786366054,0.0921452822178304,0.0572043911925434,0.962275924996505,0.340779275249824
63,1.55577695089699,2.52652096748352,-0.0988742271254229,-1.5308072413861,1.55577695089699,-0.0624132346260375,-0.0305353028804651,0.0694824911649442,-0.00237882631493314,-0.129019629638313,0.12915508440256,0.00833163342225338,0.165338662079096,0.167425256049343,15.383788669174,1.01581453149056,0.818397956676463,0.175987888469068,0.240200855374115,0.162031884191397,0.428417234375135,0.1557848607539,0.0414784084428258,NaN,NaN,NaN,NaN,1.60300708299886,-92.1234906695166,1.84350993574538,stable,stable,1,0.448358904782398,0.231155860445543,0.223014289773521,0.897594386215582,0.327985829248268
64,2.68715170601469,3,-0.632710315726747,-2.57840496433533,2.68715170601469,-0.024260227942409,-0.0079674725020248,0.0255350597784333,-0.027940774319333,-0.339886904306486,0.342199764958275,0.0220890003886313,0.196544189085934,0.198672090406515,15.406315376008,1.65033826396652,1.56007373897915,0.0634936426677937,0.2402098169882,0.126665612481176,0.423089083763664,0.0019017588562597,0.0103783952290333,NaN,NaN,NaN,NaN,3,-102.201792877698,1.74875732752238,unstable,unstable,0,0.756308206351888,0.07507229377274,0.0496625643234483,0.943028512928673,0.343704172230589
65,1.53309779151066,2.15209436416626,-0.134982224662212,-1.51745932320548,1.53309779151066,-0.0387537982996391,-0.0220691466906038,0.0445971312788222,-0.00222751730998994,-0.121694402716968,0.121754308825203,0.00785322892254028,0.0967651310470242,0.0987034236103191,15.4367405720857,0.895215300927532,0.763637566091329,0.176517626871589,0.240175451937869,0.160843930519031,0.443676119634703,0.158807446508509,0.036509300267211,NaN,NaN,NaN,NaN,1.55228808798252,-94.2268777224065,2.20106648669304,stable,stable,1,0.42856676245824,0.147450369581961,0.172327418274368,0.898707342609057,0.328513808658208
66,1.59970564866146,2.17334222793579,-0.125790324487237,-1.58410755131764,1.59970564866146,0.00271178178651108,0.00538079784297899,0.00602550793582256,-0.00224206822619472,-0.130973222275412,0.131032415113894,0.0084619373368043,0.107076776453591,0.10816978296822,15.3961512390521,2.10149647569784,1.90419783708451,0.0299454412422198,0.0681806204718557,0.133990293611041,0.440895883591227,0.0239310638121996,0.00832421289053272,NaN,NaN,NaN,NaN,1.60696450398557,-93.5145725727472,1.59263208271629,stable,stable,1,0.448222129570033,0.130172906791626,0.0917667589416014,0.953553966921315,0.340448758395093
67,1.6834189427779,2.31742238998413,-0.122230780134851,-1.66798990782373,1.6834189427779,-0.044076916150729,-0.0222916221521999,0.049393227830694,-0.00230993108578712,-0.147507620191498,0.147564686162725,0.00951669428227316,0.114745217107159,0.117173460628993,15.4735101222019,0.873810247775187,0.552334294695565,0.175786608611892,0.240190796403907,0.126173313210382,0.347365962677804,0.155868312625362,0.0401463334869296,NaN,NaN,NaN,NaN,1.70472744872138,-93.0615211949791,2.15040369369529,stable,stable,1,0.472346410199906,0.151706200723695,0.174897192768009,0.900901274288927,0.343922971906497
68,1.5968805423519,2.41637015342712,-0.151552868183052,-1.56778593790274,1.5968805423519,-0.0634408136637649,-0.0365547220987528,0.0732187444991895,-0.00402666311816856,-0.135090598619811,0.135282874369335,0.00872447286906458,0.168041457943265,0.170227366621543,15.4589133957879,0.769873067669955,0.628562616850186,0.177247385343903,0.240225375023296,0.127656526835842,0.394890905756545,0.156023469101403,0.0358172657962611,NaN,NaN,NaN,NaN,1.6346567991892,-94.1375227104005,2.31999151386678,stable,stable,1,0.459880284618147,0.197808598983444,0.201053383724684,0.900388598378248,0.343263765850737
69,2.61396005042022,3,-0.39954411640802,-2.5517033763639,2.61396005042022,0.00862783321373257,0.00487425290296975,0.00990948269719948,-0.016414820366098,-0.338545375520214,0.339447958743449,0.0219163920900577,0.195925552600584,0.198713120159217,15.4027813508932,2.02279177146432,1.64748182884954,0.0210527493433307,0.0490349343023387,0.12375940458587,0.388959862452219,0.000268898930469964,0.00747124722805104,NaN,NaN,NaN,NaN,2.97762147861884,-97.4745863886534,2.18335434524127,stable,stable,1,0.736798637477235,0.0886757271499374,0.0560417640995636,0.960635761325869,0.344995820184058
70,1.71193961517231,2.42304873466492,-0.0862665757303599,-1.69799459366318,1.71193961517231,-0.0400690964156272,-0.0168061650613674,0.0434508880419578,-0.00177565217278322,-0.152291504749077,0.152346807323546,0.0098265603859974,0.122863251174141,0.125340834591297,15.4217011583696,0.923420169053834,0.777702642628768,0.176989747708129,0.240194941886545,0.160211454107139,0.399827464222533,0.159008848938075,0.0357145086181326,NaN,NaN,NaN,NaN,1.74106956136438,-91.9626622500687,1.70981538722182,stable,stable,1,0.481585397630875,0.167965548026862,0.184437022387108,0.898139161197001,0.328794909285716
71,1.50711429686773,2.51394176483154,-0.213033526164084,-1.47770685049243,1.50711429686773,-0.0332882104801437,-0.0359365453938659,0.0489851023456697,-0.00514526442115634,-0.124881880445654,0.125105224118594,0.00807046130915257,0.134554488152581,0.135603684300443,15.4263423548992,0.833233023352205,0.880238116829724,0.169089663501774,0.24538558558066,0.237546886242907,0.483932734964828,0.16230702335458,0.00513216192109321,NaN,NaN,NaN,NaN,1.67774962146967,-95.9395937551425,1.98768913576024,stable,stable,1,0.429017882691484,0.235516782388563,0.215312764955975,0.901992180719112,0.294423606114264
72,2.41875575972883,3,-0.544858612274177,-2.32670082547223,2.41875575972883,0.00886681365783624,0.00576980061302088,0.0105787987766479,-0.0249149506340921,-0.305440173053993,0.307452360669298,0.0198422489701708,0.205301538581102,0.20723888786778,15.4498309068395,1.47411062445047,1.34135428389084,0.0279599108231151,0.0622713660747111,0.123264430243738,0.382999171769148,0.0202468459130399,0.00504161137565469,NaN,NaN,NaN,NaN,3,-102.28205700878,1.78800294203701,stable,stable,1,0.686449313501245,0.132719400503398,0.0904635517131226,0.963898534594332,0.345215808780561
73,1.67975513596792,2.62851595878601,-0.183244266449666,-1.64659788202954,1.67975513596792,-0.0687570035482064,-0.0344951418680774,0.0769249007111927,-0.0051914486383881,-0.148659824528607,0.148914869462999,0.00960505159588775,0.17379327169451,0.176163039772101,15.4245914493399,0.918586749163145,0.687866210384696,0.176529530408165,0.240208701119776,0.127949214502891,0.37466420141018,0.160001901338099,0.036774092506964,NaN,NaN,NaN,NaN,1.730743683828,-94.7490683234343,1.93213239774782,stable,stable,1,0.4831673108792,0.227574083597788,0.221028803584199,0.89911310439947,0.34313368244316
74,2.67749008221122,3,-0.591089582531005,-2.57375623025803,2.67749008221122,-0.0267957088199413,-0.0115076730615145,0.0291622452917087,-0.0273501799625291,-0.338754797522278,0.341106580046134,0.0220214269055862,0.212374340832612,0.214355846507316,15.3925961861493,1.7387659633131,1.54613649506513,0.0628635380055307,0.240298191324417,0.130717759620351,0.447706124643468,0.0018982828709679,0.00965152270494511,NaN,NaN,NaN,NaN,3,-101.440236798872,2.02324406406747,unstable,unstable,0,0.756868524557788,0.0779111431392889,0.0511000117795391,0.942758283109977,0.341903217946511
75,1.67623289291923,2.35851788520813,-0.1720260200255,-1.64995277653715,1.67623289291923,-0.0566611110032587,-0.0142824922754074,0.058433475728564,-0.00413398138408413,-0.144552879175821,0.144717401024338,0.00933489443787964,0.129598227807044,0.131938645364284,15.4273231169618,0.995930353994595,0.741506878980264,0.176711175603478,0.240215024690052,0.146618819678705,0.429727128006893,0.156518091735518,0.0410667535459114,NaN,NaN,NaN,NaN,1.72844746755899,-95.0560971705178,1.62120198990398,stable,stable,1,0.473383167184652,0.164226927148572,0.183033117541826,0.897993119653459,0.334836080142798
76,1.75331443209313,2.56508374214172,-0.219811270594623,-1.72734864074987,1.75331443209313,0.00529112608733842,0.00385280798336638,0.00654523831718945,-0.00471547041288191,-0.155956713030397,0.156117162211852,0.010087784990331,0.117901961538021,0.119168804438497,15.3635820202957,2.341254601038,2.27522152298945,0.015831652009258,0.0500636195922395,0.149584192264216,0.404030366520251,0.00029719792988942,0.00696958341751682,NaN,NaN,NaN,NaN,1.80133462105751,-96.2777836497926,2.44644995077272,stable,stable,1,0.491384276112535,0.183848055119084,0.112975315010297,0.955811861592298,0.333518136771459
77,1.71234613979185,2.5789155960083,-0.154891262119249,-1.68791800196541,1.71234613979185,-0.0537636791463503,-0.0353165754036866,0.0643256845559842,-0.00381248597211929,-0.152212160990411,0.152358656288804,0.00982729115458436,0.15135044933972,0.153921726065684,15.4056213221102,0.992633849596865,0.730152349267932,0.175669420415671,0.240216369620719,0.145365147077056,0.445796590576106,0.156023864504099,0.0426770660005942,NaN,NaN,NaN,NaN,1.75923009576763,-93.8331549635916,2.1377234125456,stable,stable,1,0.487409982490963,0.206771169817299,0.208925574761104,0.898629112515369,0.335393267965753
78,1.7551806327459,2.40048050880432,-0.199250661481343,-1.73110598026685,1.7551806327459,-0.0496182411452291,-0.0130304236949869,0.0513006997614748,-0.00440526184651096,-0.158095139898838,0.158247027783024,0.0102081382666146,0.116769762103898,0.119345871862515,15.4055950164504,0.914062463731476,0.876893498993465,0.177220526803228,0.240206960599785,0.143811843805307,0.428133225320559,0.159531343531165,0.0358212184664034,NaN,NaN,NaN,NaN,1.84421771642335,-95.6415120879709,1.94511714504058,stable,stable,1,0.491917343104742,0.154597600402749,0.176687277212981,0.897317939748404,0.336083624975419
79,2.63756555019812,3,-0.418432870431477,-2.572093143417,2.63756555019812,0.0104606653057041,0.00507797227966412,0.0116280402953808,-0.0175372196245292,-0.343088364243631,0.344077445136713,0.0222180636143457,0.188352052033995,0.191116877433484,15.3607801440728,2.14442639605799,1.70275533262459,0.0298434884020407,0.0676684427679992,0.132980355738316,0.457772658571057,0.022005317901062,0.00615711759776594,NaN,NaN,NaN,NaN,3,-97.5958361626102,1.67132358984585,stable,stable,1,0.741574188872863,0.0836795585929085,0.062226828298839,0.954850399359331,0.34089761967186
80,1.80482339779003,2.51768589019775,-0.227291364447447,-1.77889847005642,1.80482339779003,-0.0512643930134872,-0.0198509977441459,0.0549736309741258,-0.00501109424319717,-0.16722449786103,0.16738639783218,0.0107955884659635,0.12587293863575,0.128706246155193,15.4143818466994,0.936596563407594,0.592273800098591,0.175782770684803,0.240223113738691,0.132387181012898,0.437175118222211,0.1561802773663,0.0410848657324182,NaN,NaN,NaN,NaN,1.84269174465958,-96.4089816842801,2.48913687272376,stable,stable,1,0.507027488641712,0.170472559803662,0.186636943664866,0.900096061801479,0.341161252883157
81,1.8454846385363,2.90023016929626,-0.21148717534,-1.80935500515343,1.8454846385363,-0.0689428958949992,-0.045065445678741,0.0823651460789832,-0.00644756189971241,-0.177802690444118,0.178113198175625,0.0114899775393334,0.181081828521218,0.183910692877117,15.3419338090171,1.12636596057345,0.85959318516058,0.176445685760343,0.240264036892683,0.164164876934299,0.465052211588094,0.15612493140999,0.0419204925917016,NaN,NaN,NaN,NaN,1.90149022471625,-95.3637271300002,2.00598738715291,stable,stable,1,0.528911375518436,0.252418021202139,0.236083486613615,0.896173192403347,0.327037832473645
82,2.57672955359902,3,-0.405196798062915,-2.5109539109949,2.57672955359902,0.00881531911689071,0.0095510516585709,0.0129974012370669,-0.0173085571095989,-0.330015514848476,0.331053512574254,0.0213799832489077,0.208431547179903,0.210977452899313,15.3645400581001,2.04874041072309,1.96856922275749,0.0167345692109946,0.0530435763783038,0.134650026233796,0.380838726888698,0.000152837495444886,0.00508834146414436,NaN,NaN,NaN,NaN,2.91783086718893,-97.7855854258006,2.37206368259942,stable,stable,1,0.729323371539602,0.0976187073336821,0.0604894581629241,0.96006813970287,0.340155543896091
83,1.68380627136102,2.46938586235046,-0.312614516121817,-1.63973684068299,1.68380627136102,-0.0582498693712554,-0.0190427252531983,0.0612835431974777,-0.00792508220238591,-0.143044188577787,0.143481608668385,0.00925339389915873,0.133430369818646,0.135706375570114,15.4699576398581,0.914195259093217,0.569155105169852,0.175789563991158,0.240188773608424,0.116036523833145,0.34896979449873,0.155963981175066,0.0423383985389479,NaN,NaN,NaN,NaN,1.75027764965131,-99.5200046041142,1.54101307292367,stable,stable,1,0.476156280810296,0.187990724225495,0.197507540788883,0.900450322285211,0.348428211629713
84,2.66143458416161,3,-0.447314450893378,-2.59070837367442,2.66143458416161,-0.0288118379123917,-0.0128300079337306,0.0315393580700293,-0.0176098172993607,-0.343846505237053,0.344877163250783,0.0222639541804912,0.201395247316076,0.203467897777366,15.376538682604,1.79019598332188,1.48893511723774,0.0630762045979944,0.240267001198926,0.1355575599823,0.423197365556005,0.00187952030250773,0.00716029556067284,NaN,NaN,NaN,NaN,2.95681470906161,-98.270421652992,1.87097724316521,unstable,unstable,0,0.750409468665236,0.0819594342098097,0.0526147467228006,0.942697296196606,0.339752195563422
85,2.06380284792625,2.84360241889954,-0.466794401151794,-1.99608287822811,2.06380284792625,-0.0501312699909335,-0.010495718226333,0.0512182031312155,-0.0146277365699491,-0.21040686668236,0.211268134156196,0.013627468103822,0.13860113206388,0.142067321111918,15.4293597097352,1.06982865629486,0.745377836784586,0.175774596091711,0.240260060647747,0.155220052068776,0.409031875435332,0.156785936825791,0.0402959720884668,NaN,NaN,NaN,NaN,2.10680641889481,-101.731697741666,1.7132486680612,stable,stable,1,0.57876089033605,0.184844907376379,0.19524266377451,0.897850365222806,0.331013310191655
86,1.97820485634947,2.69306206703186,-0.540732171082038,-1.88823533170187,1.97820485634947,0.00590618030387793,0.00270015839250907,0.00649413744284434,-0.0184671005535698,-0.186155466187936,0.187633006543481,0.0121143435718117,0.136086851939875,0.137633754704873,15.4019540872774,1.86628591787741,1.73927546277472,0.0288680681300734,0.053554746492435,0.135028872190739,0.436279164638617,0.0211429425802229,0.00636615323053474,NaN,NaN,NaN,NaN,2.01104491577433,-105.279667622794,1.74732703764853,stable,stable,1,0.555048045967501,0.162033464268059,0.108931906740927,0.957236555086982,0.339987167915227
87,1.99417569186236,3,-1.15963219557473,-1.58870199746169,1.99417569186236,-0.0889377749638147,0.00894605092444233,0.0893865741745195,-0.0787925249838772,-0.139991838428879,0.167562270830396,0.0108075436709479,0.202155565425743,0.204703797829102,15.448234827714,0.935939456787305,0.932419770786112,0.177410676451677,0.240358298820733,0.145032687963337,0.404414918533279,0.158816490221552,0.0378057959698766,NaN,NaN,NaN,NaN,2.06469467336038,-124.238920485483,1.82977721679012,stable,stable,1,0.572720944062451,0.24269800792963,0.229951473693776,0.896614696414656,0.33554102757185
88,1.94676166252802,2.98915863037109,-1.09889593755998,-1.57738155875782,1.94676166252802,-0.0875590604826594,0.00423788558017432,0.0876615579760972,-0.0704511095075316,-0.135693392337064,0.158419192533629,0.0102203197914503,0.187715897448318,0.190191052327521,15.4216361443297,1.02086622138765,1.06006080909421,0.176447300044876,0.240279139000857,0.157910261074761,0.449663993987084,0.156422659213538,0.0420169918944929,NaN,NaN,NaN,NaN,2.00959748573364,-123.70580417537,2.23529764224142,stable,stable,1,0.557174653806309,0.250610603393643,0.235166450052321,0.895426209023776,0.329817661744551
89,2.62466583403457,3,-0.249431754398856,-2.57838589571269,2.62466583403457,0.00846348693983407,0.00430588794331782,0.00949585605204458,-0.00984263887844074,-0.346662621303964,0.347116674625252,0.0224130551453436,0.199320640076293,0.202044897305622,15.3838355974308,2.06741839370583,1.78260895397983,0.0252218054278757,0.0720081705121585,0.129931854352381,0.509576659826703,0.00759658391495164,0.00659604739252129,NaN,NaN,NaN,NaN,3,-94.0907171926139,2.02266590800051,stable,stable,1,0.740319868537008,0.0861910942850976,0.0574894787770044,0.957138882411389,0.34225250917672
90,1.91476459277643,2.66880798339844,-1.03929414793884,-1.58527776345841,1.91476459277643,-0.0675480064356156,0.00452764780420058,0.0676995773108286,-0.0611718603133529,-0.135113863716635,0.15220246833828,0.00981764033087613,0.15688421333934,0.159211757271308,15.4528627027975,0.992573749566324,0.97168356030434,0.176281274048543,0.24026553691555,0.153220573309134,0.400961109099135,0.157987536027,0.0370211451662342,NaN,NaN,NaN,NaN,1.99637079272466,-122.311062912018,1.83265504101075,stable,stable,1,0.542446242861309,0.182071352063604,0.192921728522733,0.896425912683888,0.331901967418162
91,1.8849549800963,2.59392023086548,-1.13250544802159,-1.49239132620016,1.8849549800963,-0.0530906611969263,0.0043198944972135,0.0532661223930733,-0.0697886389278501,-0.118184209057021,0.140023460347237,0.00903206038648747,0.139379035556954,0.141602040940857,15.401912784292,0.945426963767588,1.01942466144898,0.176799481559605,0.240236943769103,0.156249674554289,0.527136170450479,0.157787769806067,0.037256418665394,NaN,NaN,NaN,NaN,1.94546366280019,-126.251978914843,2.03998736077685,stable,stable,1,0.530975069547185,0.169282637195128,0.18524526861426,0.896162139307782,0.330555700198094
92,2.62139570992129,3,-0.476176813443882,-2.54513868532183,2.62139570992129,0.00418208468766842,0.00321839215680953,0.00527710909588231,-0.0206548310744997,-0.336909264124186,0.338249822428539,0.0218480291618058,0.19643947433392,0.199176970697424,15.3820888879306,2.14958262096535,2.18739391827927,0.0213951775079501,0.0684435376985965,0.148303884871033,0.509785216540823,0.000247830148086644,0.00905571574334168,NaN,NaN,NaN,NaN,3,-99.2513675644137,2.20484780055506,stable,stable,1,0.738874250118494,0.0861534352686226,0.0550951954366899,0.955226167009103,0.334087162279541
93,1.67266974673175,2.42286515235901,-1.02044851421661,-1.30325794568893,1.67266974673175,-0.0640351328017563,0.0125312622318022,0.0652497568275986,-0.0583411625343154,-0.0922340448288679,0.113079863417428,0.00729369748116185,0.132942539567269,0.134793276603275,15.4362421787704,0.83805350040404,0.880532694722707,0.175857939026401,0.240209030684455,0.139621112043903,0.351961636185606,0.155831459038536,0.0408317611854516,NaN,NaN,NaN,NaN,1.74681180591764,-126.657123786368,2.42861691396376,stable,stable,1,0.473003921115789,0.180756421684526,0.192560192408411,0.898567853239375,0.337946172424932
94,2.5846209463699,3,-0.23343423708981,-2.54241064524478,2.5846209463699,-0.0111812960928012,-0.00283809143091169,0.0115358634390802,-0.00944675390806044,-0.345410448699937,0.345849849335799,0.0223085158351366,0.196380902768733,0.197878895870226,15.3750236825617,1.13067380602701,0.804304063180124,0.0806078025231303,0.248653352538332,0.300000719242738,0.772679343017511,0.0978397365666033,0.111054073256177,NaN,NaN,NaN,NaN,3,-94.2734617915732,1.5992533933342,unstable,unstable,0,0.728808031539352,0.0955751953639371,0.14121274394718,0.944492701194664,0.266666347003227
95,1.83130015634202,2.63025093078613,-1.15744293595143,-1.40308542047975,1.83130015634202,-0.0409470978199588,0.00963190388466732,0.0420646929421902,-0.0721453887728964,-0.104221796616986,0.129898642146759,0.00837832246643313,0.127332379945162,0.129433963042934,15.4614074839381,0.842465851024502,0.973055615426943,0.176744951974885,0.240225580426207,0.161426703746896,0.409614443992901,0.15838925317372,0.03710179627457,NaN,NaN,NaN,NaN,1.86493072097439,-128.583435678336,1.92066951059583,stable,stable,1,0.514233500966458,0.187475784622661,0.196372256688023,0.897362712490439,0.328254798334713
96,1.72496757000984,2.64382004737854,-1.06532789194831,-1.32501371135207,1.72496757000984,0.00566645854386361,0.00347340052703445,0.00664629698783677,-0.065336275012747,-0.0962185375775624,0.122200594495074,0.00788966756947617,0.181422346510786,0.182413540036522,15.3746505899391,1.89203166041068,1.8516277296348,0.022190326758565,0.0551035787479016,0.119745938571647,0.475030404135931,0.0017836732192941,0.00784867957089942,NaN,NaN,NaN,NaN,1.76269102467469,-127.19753908103,2.13679332430016,stable,stable,1,0.496474060009928,0.207960295189061,0.128422986064965,0.959490369984646,0.346779582857046
97,1.76851089528743,2.50820469856262,-1.0959583348188,-1.36721349571448,1.76851089528743,-0.0698700894935653,0.0040775741210763,0.0699889706778982,-0.0666884236381688,-0.101259236764747,0.125186347202527,0.00807512035170799,0.141204525642707,0.143148970857079,15.4142608368398,0.885470300034636,0.967686418244249,0.17709904126215,0.240234564002757,0.132191337244817,0.391791235965412,0.15824653057183,0.0355213070196999,NaN,NaN,NaN,NaN,1.81622668042125,-127.513201967813,2.49762690868899,stable,stable,1,0.500232699581397,0.179262417027866,0.190806080498232,0.896889962296734,0.341248294557859
98,1.88305016546636,2.5478880405426,-1.19352068046536,-1.44043472825224,1.88305016546636,-0.0453722182784045,0.0165843508839834,0.0483081658288355,-0.0761865145214889,-0.109910132512297,0.136973562765921,0.00883743561217928,0.124321226103633,0.126556216540753,15.4077979416388,1.03236107598899,1.20819853030517,0.177312658666374,0.240233148256194,0.166916405121824,0.514933037033539,0.159289134654621,0.0368986038735084,NaN,NaN,NaN,NaN,1.91962505408224,-128.853168090004,2.12061080350486,stable,stable,1,0.52745795409918,0.158445018960774,0.179279856469895,0.893739273760216,0.325814931056967
99,2.61439457944404,3,-0.164375884647523,-2.57575264113913,2.61439457944404,0.00265325098476696,0.00278546918951202,0.00384689217341578,-0.00619434537688394,-0.345564634296075,0.345868205273119,0.0223347553153622,0.200862958831578,0.203704947222239,15.3998149320977,2.0676693679154,1.93584215015577,0.0180832827253541,0.0465348191147119,0.13733813970343,0.408468808881872,0.000249846751248202,0.00598594732132294,NaN,NaN,NaN,NaN,3,-92.2002194325483,2.31969788790341,stable,stable,1,0.737912877296193,0.0874664831902165,0.0547676410315293,0.959502196709621,0.338960826798475
100,1.64111591905555,2.55453991889954,-1.03464406194478,-1.24153798160834,1.64111591905555,-0.0740084718381018,0.0132842947504713,0.075191265389196,-0.0622234637829635,-0.0860226589211157,0.112083920714641,0.0072285155889479,0.174526187716853,0.176249273862768,15.4495828152241,0.765805806263793,0.870599970658,0.175915395246176,0.240196594106408,0.148735316697728,0.409313863461058,0.156098477511753,0.0416626028654401,NaN,NaN,NaN,NaN,1.68546986904653,-128.540481584722,2.30545284754696,stable,stable,1,0.472880766520702,0.219305465286248,0.216110417693698,0.899184828415384,0.33389541480101
101,1.66117075810561,2.34255981445312,-1.06662986797993,-1.25343787520062,1.66117075810561,-0.0499934746696998,0.0136916220115178,0.0518344289334434,-0.0619043870235639,-0.0847653140104607,0.108582504490717,0.00700484489474091,0.132928837618746,0.134648589831585,15.3805919099222,0.922229157141483,1.13915928565277,0.177676321404553,0.240217924445782,0.185338995618251,0.531292491538744,0.157902486637399,0.0347368305016087,NaN,NaN,NaN,NaN,1.69807149429304,-129.55767099295,1.90579566820283,stable,stable,1,0.46990858679448,0.162815516315988,0.180499767467406,0.894965215818626,0.317627113058555
102,2.61678379873767,3,-0.146366297134521,-2.58009937446049,2.61678379873767,0.00257855414891227,0.00911280570173863,0.00947059497901334,-0.0052084895749911,-0.346287616400804,0.346563692484571,0.0223740712689691,0.197757591133308,0.200630654046194,15.3807107146479,1.82804634244942,1.7339159638676,0.0285314964761597,0.0573511686827044,0.124313417634928,0.43677578506079,0.0214217735890817,0.00524231566814095,NaN,NaN,NaN,NaN,3,-91.8482151525671,1.5994525333013,stable,stable,1,0.73793514380595,0.0879599210301768,0.0642030374865168,0.957747405069429,0.344749592162254
103,1.70877883658313,2.39128828048706,-1.08692259320296,-1.30364701390375,1.70877883658313,-0.0437284410552661,0.0122812192731607,0.0454203137809432,-0.0637352972533091,-0.0900876561601393,0.113086786649262,0.00729474152929886,0.118185802821223,0.11995232744675,15.418256510123,0.892918512802619,0.950442199817007,0.176033807951722,0.240194227677098,0.134435917078108,0.384404501416712,0.155198863036139,0.0410869283051491,NaN,NaN,NaN,NaN,1.75398132014352,-128.600052606655,1.61229848531897,stable,stable,1,0.479664821911518,0.16189168240489,0.181052983105313,0.897499547567842,0.340250703520841
104,2.62441367289599,3,-0.329875524765623,-2.57267353907476,2.62441367289599,-0.0156871361191867,0.00558053376726591,0.0166501830845636,-0.0139219760521212,-0.35008284193693,0.350793390025122,0.0226485679676736,0.197927659329061,0.20005835985448,15.3714813329397,1.79172095951051,1.57114088920543,0.0625410916627451,0.240407804459314,0.140449690176785,0.421139319585431,0.001906635077748,0.0106461718816036,NaN,NaN,NaN,NaN,3,-96.2939600424606,2.23555964619384,unstable,unstable,0,0.739855318076494,0.087559457163905,0.057254402895905,0.942306968214431,0.337577915476984
105,1.73221909879838,2.68813300132751,-1.10612101415533,-1.3025372248485,1.73221909879838,-0.0663956408407771,0.0221678789652344,0.0699985427025074,-0.0699344604061636,-0.0943929917375577,0.123413712546337,0.0079599218788281,0.177481679412402,0.179451892602105,15.4486254921861,0.748239181608266,0.89849839051398,0.17500796889672,0.240276954697377,0.16936315348514,0.436534228704682,0.158932160515758,0.0373651020832861,NaN,NaN,NaN,NaN,1.78074250763471,-129.221424924807,2.1587068569705,stable,stable,1,0.497815471533322,0.227913694231182,0.220972042171958,0.899557363199251,0.324727487339938
106,1.84110205687807,2.78108215332031,-1.07616293759521,-1.4634412230657,1.84110205687807,0.00550812074692892,0.00357216515732939,0.00656504059956882,-0.0671660731096525,-0.116945460262665,0.140621189144702,0.0090823666742674,0.193829462541328,0.194864731781934,15.3721907500372,2.01381547293946,2.13817048493165,0.0286089790892737,0.0580192534969746,0.134981899978452,0.420501745061619,0.0233383633977765,0.008543661677768,NaN,NaN,NaN,NaN,1.88415857146299,-124.959215831678,1.70091939883702,stable,stable,1,0.529933494857205,0.212699112476093,0.141098859504866,0.953072763643519,0.340008044454021
107,1.68227048528274,2.73373913764954,-1.03335336663315,-1.29788961678704,1.68227048528274,-0.0847360280242517,-0.012151201084527,0.0856028395155405,-0.0619782650881915,-0.0929136949096478,0.117030534422991,0.00754818523668493,0.160709835969416,0.162557025375375,15.456211490655,0.882621514895977,0.848561810737896,0.175713642732644,0.240209855031542,0.145958341981431,0.421442293638803,0.154730398928645,0.0389096866670832,NaN,NaN,NaN,NaN,1.72726488943798,-126.550224489005,1.5,stable,stable,1,0.48111686781714,0.252274300693711,0.234282623576584,0.898541023932269,0.335129625786031
108,1.69143866727481,2.53714442253113,-1.03226720701157,-1.30831578838424,1.69143866727481,-0.0674617986744071,0.0165351713858557,0.0694586652128145,-0.0620083934095834,-0.0949451430695504,0.119121713424737,0.00768538575101905,0.182014425162036,0.183937411332963,15.3943235623758,0.901584549126892,1.08537033529486,0.176382112085138,0.240220765569577,0.154672274542987,0.477694619080949,0.158196249619107,0.0342136861398135,NaN,NaN,NaN,NaN,1.72684939224008,-126.925173742408,2.23853240697098,stable,stable,1,0.487837793539875,0.203017883555021,0.204561514822649,0.896197155579831,0.331256766869783
109,2.6204143140627,3,-0.302329472487542,-2.56648065156287,2.6204143140627,0.0101045175116149,0.00667434645395024,0.0121098379316112,-0.0127908670422134,-0.342672311700198,0.343350541089122,0.0221695874596866,0.202561599521175,0.205224901290808,15.4137072533819,2.00353194080221,1.76223717388912,0.0238661183268106,0.0570323066570571,0.138221428249134,0.436973528523986,0.00350217195871516,0.00787890847509468,NaN,NaN,NaN,NaN,3,-95.4171668207032,2.09602928913247,stable,stable,1,0.739822130674881,0.0876269162900214,0.0569977282718601,0.958478754935449,0.338568254111496
110,1.60938728500057,2.18381953239441,-0.937551623473863,-1.28716334177181,1.60938728500057,-0.0570284347592263,0.00392997958271951,0.0571636869927748,-0.0489719360957185,-0.0887418178103977,0.104633921471826,0.00674898402982189,0.126211296003916,0.127888115657273,15.4313332388563,0.849729674615081,0.956774677328358,0.176722088351017,0.240196223790343,0.149526036039072,0.458378493007915,0.15906299008275,0.035724337270772,NaN,NaN,NaN,NaN,1.65985778043302,-125.136897277648,2.24207837563973,stable,stable,1,0.454747565798273,0.139727264945623,0.167521689324836,0.897444993059222,0.333543983982635
111,1.53642111654217,2.48801064491272,-0.930147634083028,-1.19710141124371,1.53642111654217,-0.0652644045925245,0.00714191948519079,0.0656540137443986,-0.0498922259214696,-0.0794658368163281,0.0981617402965344,0.00633081366951342,0.152895817340104,0.15438568806149,15.4350000825437,0.556478739185965,0.994864902155385,0.176043697749544,0.240195867494589,0.143048922578943,0.4335585941446,0.158858789781443,0.037441431363774,NaN,NaN,NaN,NaN,1.59306398738573,-126.486183134521,1.6306283730262,stable,stable,1,0.440589435356877,0.226144213069846,0.219905500361901,0.899789022514689,0.336422701076025
112,2.62822639184652,3,-0.246782145649017,-2.5794861268274,2.62822639184652,0.00724859447846384,0.00834009438956788,0.0110498550370635,-0.0103049388911573,-0.345228537076901,0.345772203433961,0.0223289322109132,0.199187894371996,0.202001745906567,15.3595477743434,2.12154912651326,1.80407867800222,0.0221377115010651,0.0567022242409331,0.136923782820833,0.445749272525125,0.00102403640166283,0.00504396602050098,NaN,NaN,NaN,NaN,3,-94.1056534981467,2.15449946019157,stable,stable,1,0.741260720340385,0.085674868591328,0.0536942179064251,0.958086925785417,0.339144985412963
113,1.73534145211213,2.5704824924469,-0.999260955616625,-1.38615782166971,1.73534145211213,-0.083582788479931,0.00930745771860792,0.0840994131921535,-0.0585426085222032,-0.105730318116139,0.126592515598594,0.00816336289111652,0.175388379001812,0.177341162802492,15.4890251929061,0.668197307672662,0.684190867991693,0.175196404329748,0.240227860562745,0.140306549368811,0.330231788921507,0.156159591494618,0.0395106852271718,NaN,NaN,NaN,NaN,1.77528590773906,-124.910768203071,2.31140820546706,stable,stable,1,0.498225953123734,0.203324959827217,0.205766760683617,0.90177589074062,0.337641533613862
114,2.68910684337339,3,-0.446102340345744,-2.61632986778724,2.68910684337339,-0.0292231605278849,-0.0121879741134339,0.0316629092824437,-0.0179863578671365,-0.349561225218584,0.350653795442281,0.0226307662185909,0.19895994229772,0.201170138502785,15.4142544559177,1.54429055373172,1.39127723188721,0.0628268940724364,0.240270417045923,0.117572771168684,0.447385844127047,0.00188655064180817,0.00920308782038513,NaN,NaN,NaN,NaN,2.9979851142919,-97.9705526263991,1.8742636355624,unstable,unstable,0,0.757329185933461,0.0757558269427689,0.049638540506807,0.945521377505347,0.347745435036141
115,1.83623414990064,2.41468620300293,-1.05900374124628,-1.48534073967075,1.83623414990064,-0.0464592823943199,0.00913519450107468,0.0473488827657805,-0.0606067420084993,-0.116461810116677,0.133776217601793,0.00863322051438821,0.119819659086828,0.122042554621616,15.3643577085268,1.19714853770619,1.21636119327992,0.177122379371127,0.240235072976168,0.173760712590983,0.480511351786415,0.157861427523101,0.0346662240749869,NaN,NaN,NaN,NaN,1.89315516909655,-124.179562229341,2.4184306549535,stable,stable,1,0.514070950897828,0.138832340455074,0.166065938391388,0.892475519570974,0.32277301662623
116,1.67479643356118,2.43395495414734,-1.02137699393032,-1.30725754331751,1.67479643356118,-0.00644618151732183,-0.00434585436668417,0.00777429780306166,-0.0572777669893218,-0.0911542450871553,0.111122039763751,0.00717745258738731,0.137890575827496,0.138755619547285,15.3876153293041,2.18645416641353,2.08964434803027,0.0228117915782491,0.0571761670331991,0.15773721561291,0.454119556419517,0.00394373321543503,0.0145684884114008,NaN,NaN,NaN,NaN,1.69700248239393,-126.66944677606,2.1719275744417,stable,stable,1,0.474363506192438,0.172235955062448,0.11039197550504,0.954996187311674,0.329894570838707
117,1.48982052008311,2.22756814956665,-0.888611487874948,-1.1825406975551,1.48982052008311,-0.0370371588673459,-0.00790224191633308,0.0378707877429197,-0.048100332957485,-0.0822428760378471,0.0974632172041796,0.00628533277054531,0.128561239500864,0.129307077406123,15.4681530378962,0.485632367713439,0.827947466906791,0.161990872499053,0.246185461936983,0.231116086166504,0.482712001171275,0.120544290558041,0.00488336889857308,NaN,NaN,NaN,NaN,1.6721231422542,-125.43586516234,2.28963959492362,stable,stable,1,0.423146887503387,0.172936194386665,0.159112727388589,0.908683579335601,0.297281739481554
118,1.70827940388306,2.56825494766235,-1.06115968009985,-1.31653943697769,1.70827940388306,-0.0578534405806689,0.00570356898040416,0.0581339082303539,-0.0629771550914707,-0.0937506664663526,0.116940836845838,0.00754233106439898,0.143316587091248,0.145263992769017,15.416312746739,0.745175802543298,0.931760025413376,0.17637054422813,0.240219655978924,0.116790737396507,0.460329219395886,0.158539589362335,0.0359346070379377,NaN,NaN,NaN,NaN,1.78141492798702,-127.597402747289,2.14379503774506,stable,stable,1,0.484593972922619,0.204152380525906,0.206020597864115,0.898638803523418,0.348093005601553
119,2.5791003114005,3,-0.366044877190808,-2.52295270598258,2.5791003114005,0.00659082146090802,0.00644654583638247,0.00921937529066617,-0.0145271914547508,-0.332183154993483,0.332905563991098,0.0215006936824281,0.201806201348861,0.204427760248697,15.3583584644973,2.25385055214818,1.95497764222791,0.0265084782934989,0.0618211501477122,0.144057405093419,0.430430970721853,0.00866113447137711,0.00674533135836689,NaN,NaN,NaN,NaN,2.88139783872518,-96.8469577847742,1.97343365606952,stable,stable,1,0.728645635089872,0.0963926487381764,0.0641378301079745,0.953676396468867,0.335974486625147
120,1.72554244866242,2.38977861404419,-1.02660456387264,-1.36793857705658,1.72554244866242,-0.0512722944289704,0.0103336136085878,0.0523032670702569,-0.057799528464701,-0.100414397567417,0.119160698622219,0.00768756725750698,0.138137150473544,0.140061341183175,15.397785229817,1.02662907616622,1.09952742441393,0.176059814744332,0.243970750265296,0.152366346832653,0.452445420530872,0.155793227484976,0.0404474011599627,NaN,NaN,NaN,NaN,1.76744363452008,-125.864521808831,2.3246902253809,stable,stable,1,0.488156921213281,0.159042069507111,0.179374822018384,0.895264577266133,0.332281623629932
121,1.69233154290474,2.60182356834412,-0.978592899846597,-1.35098155945396,1.69233154290474,-0.0765230025833575,0.00388086357829912,0.07662134837293,-0.0559484559929054,-0.10231289740597,0.121757663608025,0.00785373344947851,0.179250996114401,0.181023836960092,15.4282552455614,0.782519892373653,1.07750026683306,0.175672960052906,0.240227253125688,0.161854327033209,0.435947935886575,0.156333609865398,0.0406189820381542,NaN,NaN,NaN,NaN,1.76448514358837,-124.664357217421,1.60261542385452,stable,stable,1,0.487493178833284,0.218682952925562,0.215461915062924,0.897549075865494,0.328064743540796
122,2.6267208016437,3,-0.378944479343293,-2.56686005275471,2.6267208016437,0.00759853938163033,0.00658450396650083,0.0100545260066824,-0.0157392711245205,-0.342530251084602,0.343372156171122,0.0221760214121748,0.197298918230701,0.200211785765797,15.3813053110642,2.06309877466317,2.0077394046707,0.0223479899337061,0.0545792554262461,0.140669722693747,0.467137699117781,0.00297983278378295,0.00909382843958825,NaN,NaN,NaN,NaN,3,-97.1526305433791,2.12829345989649,stable,stable,1,0.74050123759148,0.0858311493980586,0.0561299064702657,0.956840847909809,0.337480123247224
123,1.63378498844198,2.39455223083496,-0.944144299055242,-1.31547266744621,1.63378498844198,-0.0531336467344835,0.00636659494948185,0.0535137173681259,-0.04977188648346,-0.0932490262209355,0.10853232196583,0.00700091457353847,0.142223356397089,0.143932851596938,15.4374139367191,0.87408574559343,0.985122176353433,0.176182588572222,0.240182807912976,0.150184318773443,0.399249568314268,0.158911804100168,0.0359141234575483,NaN,NaN,NaN,NaN,1.66518818535526,-124.488998271363,1.67299387164917,stable,stable,1,0.46446256723725,0.180983477722576,0.1922772363798,0.897300643470021,0.33325141387847
124,2.60964976137033,3,-0.511088342208356,-2.52712394510397,2.60964976137033,-0.0090857418627265,0.0154779523451872,0.0179476381174791,-0.0238938187718953,-0.341020178592373,0.342743149387231,0.0221312781325142,0.198217451310677,0.200232280025688,15.357046361439,1.86650314776071,1.59049800865825,0.062783274701357,0.240474519133258,0.139876266041196,0.417912797441653,0.00195201925129375,0.0101562320003083,NaN,NaN,NaN,NaN,3,-100.530616564359,2.38555508690413,unstable,unstable,0,0.735953059037225,0.0911192040132138,0.0592322617924538,0.94144621070603,0.337832770648357
125,1.57697830984256,2.27020311355591,-0.821875248560425,-1.33302260097161,1.57697830984256,-0.0450369834874828,-0.00407094668303771,0.0452205980560621,-0.037449676602454,-0.0936036599120426,0.102475453621883,0.0066092114937209,0.0936206495348294,0.0953772414188259,15.4452218207443,0.80154791558487,0.814624402101521,0.176372662177901,0.24014689629539,0.128459903956201,0.377342380487295,0.156045697579848,0.0423781194473766,NaN,NaN,NaN,NaN,1.59718321662841,-120.692341177793,1.52680858366824,stable,stable,1,0.439602997575116,0.164266023812447,0.183323482909881,0.899115172129228,0.3429067093528
126,1.55455455473035,2.31985807418823,-0.871882733933422,-1.2696302088768,1.55455455473035,0.00212365646160504,0.000746983825237269,0.00225120003599923,-0.042321516743615,-0.0853806654595154,0.0977885673475798,0.00631204035678667,0.121833281432577,0.122594448227675,15.4384747083945,1.5756731762298,1.87346694026624,0.0283179357508429,0.048479683492873,0.129188819738612,0.444319560477296,0.0195499675858199,0.00555203911958219,NaN,NaN,NaN,NaN,1.57811714801433,-123.111297136965,1.78461081546569,stable,stable,1,0.439066770906963,0.172606011884622,0.114271404929572,0.958740645494967,0.342582746782839
127,1.47813805051752,2.31298899650574,-0.749468975748027,-1.24929448681738,1.47813805051752,-0.0533722243043508,0.00357984934876094,0.0534921456716195,-0.0341951768840052,-0.0851916487016085,0.0947075873264689,0.0061098703018137,0.157907578288814,0.159454516060118,15.4154495492084,0.949513677111275,1.01210525884103,0.177212465764312,0.240163543886532,0.14724293265797,0.414854755603616,0.158071364607322,0.0366068930869034,NaN,NaN,NaN,NaN,1.53181850141805,-119.504479623187,1.5,stable,stable,1,0.426061050016696,0.197648356220479,0.202154551043911,0.89598104690679,0.334558696596458
128,1.62397686547081,2.26723146438599,-0.87262313776421,-1.35038236045257,1.62397686547081,-0.0655376617933107,0.00138607554604216,0.0655523174171113,-0.0431075603098593,-0.0976331628131473,0.109367734085631,0.00705359741863947,0.127372696539549,0.129110782983767,15.4509181516938,0.760111693205971,0.871945164348436,0.175731235056139,0.240189832956981,0.152737612664784,0.46140954419616,0.156463013328417,0.0405367868487184,NaN,NaN,NaN,NaN,1.67347133841587,-121.814224359451,1.51826703804089,stable,stable,1,0.458882654055636,0.156750209615719,0.178329892567454,0.899311078591146,0.33211661659343
129,2.61248297834875,3,-0.504799875508383,-2.52957953710757,2.61248297834875,0.00556829823219508,0.00594231911060925,0.00814353127426787,-0.0224397359090339,-0.333059193107323,0.334613423441999,0.0216125367777407,0.200014185592147,0.202679194959165,15.3894027895186,2.16604876316021,2.11659423484169,0.0286508549663101,0.049599193668518,0.137771046446031,0.426681306660646,0.0194212043990788,0.00615537222638103,NaN,NaN,NaN,NaN,2.98812679975473,-100.15154225882,1.7935953820023,stable,stable,1,0.737197966551499,0.0886843106051475,0.0640805499359086,0.952025234675401,0.338768423801764
130,1.62705813718322,2.58643317222595,-0.923790755368986,-1.31412738388598,1.62705813718322,-0.0772038510730068,0.00440184400610992,0.0773292367165042,-0.0503740460975089,-0.0951629058536009,0.111699264166353,0.00720451469636635,0.166158943497313,0.167872483963043,15.4507071691339,0.922374520070258,0.87480889738729,0.175810862468356,0.240207851360794,0.141455159816352,0.412296251586823,0.155345166400318,0.0416064593334846,NaN,NaN,NaN,NaN,1.67291748571223,-123.514973806059,2.27487481271649,stable,stable,1,0.467456666708134,0.230036409615974,0.222193763523316,0.89797384191437,0.337131040081621
131,1.49147761834634,2.23656296730042,-0.736298498479784,-1.27893353865079,1.49147761834634,-0.048813031888302,0.00342080446449434,0.0489327496193776,-0.0310615335808844,-0.0883645756152547,0.0956255785873846,0.0061688699005062,0.126787572233027,0.128221117504122,15.3415803367926,0.966574220500656,1.0066152708136,0.177750557325167,0.240176146010432,0.145456696440807,0.512686726452964,0.158151683406918,0.0359032480848641,NaN,NaN,NaN,NaN,1.54515709711904,-119.107877075441,1.62225145221718,stable,stable,1,0.423371588393182,0.176615207611552,0.189314488212987,0.895621089619947,0.335352579359641
132,2.62946335806894,3,-0.4586615482591,-2.55653819705149,2.62946335806894,0.0112163238318351,0.00393456472397087,0.0118864090400637,-0.01978455710511,-0.339839416154937,0.341079305882942,0.022024951006626,0.195960757928098,0.198706108075728,15.3937425503024,1.98850305835866,1.85415829239389,0.0273644906547708,0.0560841768226492,0.128150619082831,0.466037225019247,0.0144057009066684,0.00651312792797009,NaN,NaN,NaN,NaN,3,-98.8062245222683,1.90247081002525,stable,stable,1,0.740931450433531,0.0855499194251658,0.060100895547022,0.95612541548813,0.34304416929652
133,1.64506191215259,2.4037880897522,-0.858013636809066,-1.38963812069146,1.64506191215259,-0.0565455550493054,0.00151334978462518,0.0565658025966631,-0.0405592953827278,-0.10209966308267,0.111643100073981,0.00720064863048615,0.107702356731516,0.109478740793984,15.4535301572323,0.757338860479609,0.902720512313337,0.176395610736926,0.240172717101266,0.137779157888136,0.408099285500186,0.159244309674316,0.0365328218819622,NaN,NaN,NaN,NaN,1.68330103474598,-120.509023497779,1.6087318184215,stable,stable,1,0.460578924732821,0.181083787102633,0.192710183508252,0.898758870988164,0.338764818716384
134,2.6265994587013,3,-0.614106430328519,-2.52120050037049,2.6265994587013,-0.0209190954259362,0.00889854485513407,0.0227330740107505,-0.0285665748852993,-0.339263617517115,0.341667148295844,0.0220562232486871,0.201844848917352,0.20389911002448,15.3765827015589,1.77310707039903,1.45407097279865,0.062511776498921,0.240411824847796,0.128913524669926,0.430249897479335,0.00189162481489552,0.0100569919311497,NaN,NaN,NaN,NaN,3,-102.269542710179,2.08827053961776,unstable,unstable,0,0.741206344325243,0.0881828520275112,0.0574075213314238,0.943387712839701,0.3427051001467
135,1.67071463357682,2.49583745002747,-0.859829330347751,-1.40556033625469,1.67071463357682,-0.0776170495896879,0.0049225522678105,0.0777729895775995,-0.0442377277668968,-0.107955005030124,0.120394251402763,0.00776518072299313,0.164366906066732,0.166144002922226,15.4190072766776,0.81640109366269,0.976548865977894,0.17651239055076,0.240251758145339,0.147286192686131,0.458008991250343,0.157368768902151,0.0345058481994848,NaN,NaN,NaN,NaN,1.71044333906111,-120.370167332204,2.29797737415939,stable,stable,1,0.478752702871598,0.199911015123955,0.202435865305445,0.897656340756016,0.334539469917275
136,1.6449217481358,2.55635738372803,-0.762575243873002,-1.44458804116139,1.6449217481358,0.00750189772298082,0.00523977746081846,0.00915061403868429,-0.0325846821883803,-0.10982643100681,0.115895645707384,0.00748452396589532,0.118364537826497,0.119288458738605,15.3602867018681,2.16705295452014,1.9199564562869,0.0283244704757825,0.0717905372870644,0.141730657145481,0.526264066299506,0.0165959489814645,0.00447569769338404,NaN,NaN,NaN,NaN,1.66149639163359,-116.91481150861,1.84579040039217,stable,stable,1,0.462503491250601,0.20675063058201,0.133053882108259,0.953725547962911,0.337008596824231
137,1.47493724694988,2.06139540672302,-0.701053290581603,-1.28631103875629,1.47493724694988,-0.044948207361217,-0.00730758838636602,0.0455383595775201,-0.0273644423474718,-0.0881022308647823,0.0933344481402408,0.00601951991364666,0.111325217544157,0.112744917254746,15.4446621286842,0.742956977144422,0.810108899423387,0.176450853327709,0.240175840892263,0.133973005538404,0.432429084050857,0.158104862384602,0.0375536528201445,NaN,NaN,NaN,NaN,1.50463962214456,-118.009747287404,2.28456764244981,stable,stable,1,0.415865582637584,0.140301785204836,0.168105772602171,0.899571912877398,0.340456441982932
138,1.59300963379241,2.23462200164795,-0.72966419992812,-1.40427418037754,1.59300963379241,-0.0427955620529589,0.00240648354104786,0.0428631694402314,-0.0297338940124344,-0.104257160948865,0.109576519251527,0.00706810309416739,0.0971305151265696,0.0988964160129443,15.4380484918365,0.885039263752731,0.93952425999444,0.176275701370704,0.240177450016767,0.159705558263925,0.452401566525706,0.158069487134558,0.0356467656595274,NaN,NaN,NaN,NaN,1.62198882751374,-116.427624599585,2.3654153568819,stable,stable,1,0.444581852213899,0.152221030498205,0.174548183931888,0.897526293056634,0.3290197518827
139,2.63438434098043,3,-0.486737565840626,-2.55586066245692,2.63438434098043,0.00798954707778208,-0.00575376714702405,0.0098457452176191,-0.0211728050375248,-0.339839908617364,0.341331657493698,0.0220257641711088,0.195051200599275,0.197885344491752,15.3948879933771,1.38813510581114,1.4069430353553,0.0226831853706562,0.0569393219739504,0.186408279506557,0.666260088916171,0.0140307360353569,0.013288211334653,NaN,NaN,NaN,NaN,3,-100.33835635475,2.14279534131443,stable,stable,1,0.742079559826464,0.084068576569301,0.0615091054729261,0.96669707906265,0.917151875774864
140,1.43325526487894,2.16541385650635,-0.667704147717562,-1.25852471771189,1.43325526487894,-0.0424848120996811,-0.00413785129173596,0.0426858415924734,-0.0276790906270204,-0.0938699129606603,0.0988162773413996,0.00637218238979811,0.123129184758486,0.124127032530106,15.4809785733051,0.557165083317524,0.606914714595727,0.168752123182587,0.241154230974289,0.23027683107182,0.433652689002334,0.24227122107401,0.00502962330318927,NaN,NaN,NaN,NaN,1.62484937329115,-117.662804067615,2.24291641805892,stable,stable,1,0.407026810473738,0.172561420741454,0.21304190462842,0.906477597139388,0.297654741745858
141,1.54181681372024,2.25862407684326,-0.773804322437421,-1.31867294087848,1.54181681372024,-0.0486896821633866,-0.00272706254120498,0.0487659924463273,-0.0338083765762157,-0.0930255741491108,0.100697945691325,0.00649584082091116,0.124647319897195,0.126346556500015,15.4312422970319,0.952401349319707,0.871480437419537,0.176116285979594,0.240177174166264,0.133633414368047,0.430975217648797,0.159300390057351,0.0350142029074253,NaN,NaN,NaN,NaN,1.58700801541868,-119.377240163094,1.97870153381604,stable,stable,1,0.4364204616254,0.170222066151173,0.185665850470409,0.897611357257252,0.340607371391979
142,2.64185946699757,3,-0.630929184154302,-2.52770880474791,2.64185946699757,0.00428305807501727,0.00573828467676123,0.00716048165317972,-0.0310807041633646,-0.331544125518937,0.334396591501557,0.0215973332484759,0.199886224329011,0.202591242470082,15.3763407364352,2.06278276717206,1.9736506593279,0.0221073276820109,0.059721688386881,0.138479085589902,0.484141321583682,0.000768608028273931,0.00492204319081033,NaN,NaN,NaN,NaN,3,-102.460692774955,2.15366231312867,stable,stable,1,0.745014106360035,0.0818943748952965,0.0512680623928671,0.957231502093638,0.338453739737821
143,1.47294784035232,2.159991979599,-0.643835147349225,-1.31303892602523,1.47294784035232,-0.0369163469132377,0.0130844060061094,0.0391665463112492,-0.0231818855546244,-0.0915834301698637,0.0954409454307896,0.00615556054306926,0.107112733317129,0.108654082952018,15.4298317385837,0.851324748339013,0.788116908956226,0.17628953112195,0.240168959017297,0.115722995224021,0.439856018832851,0.158596938299543,0.0363072725435966,NaN,NaN,NaN,NaN,1.50542716708844,-115.316950545559,1.93780382678382,stable,stable,1,0.414516907351021,0.161765464820899,0.180749451586978,0.898973907131705,0.348567557678213
144,2.58344019289083,3,-0.5336134656742,-2.49821679851799,2.58344019289083,-0.0120251349769764,0.019157729377001,0.0226190730600727,-0.02436862738526,-0.337228336598136,0.338992704404918,0.0218897211347752,0.193734216488328,0.195725973487647,15.3744746961544,1.8165918666979,1.69425289441021,0.0633559550800141,0.240419405719042,0.14497377200518,0.452140016686571,0.00191489645710018,0.0082965789070782,NaN,NaN,NaN,NaN,3,-100.955060334027,2.36867109419957,unstable,unstable,0,0.728062579468418,0.0978727866605763,0.0625916748727824,0.940736813622715,0.335567212442142
145,1.65007368857796,2.40789818763733,-0.756778337543937,-1.45561762464048,1.65007368857796,-0.0493334717003951,-0.0120038816778925,0.0507728727309232,-0.032019890962006,-0.112438397995208,0.117995549354981,0.0076141604231443,0.110649857461984,0.112627113182426,15.3532299754567,1.09747317860864,1.04972479685833,0.177186288040923,0.240176345435527,0.151775050874887,0.391822521458953,0.158090684665717,0.036247928504648,NaN,NaN,NaN,NaN,1.68254359450145,-116.590495520199,1.68227628962374,stable,stable,1,0.462545072923942,0.179818872289027,0.191334914802294,0.894536014743727,0.332544421833384
146,1.75080358503654,2.54442739486694,-0.829641212359486,-1.52890727052822,1.75080358503654,0.00671036177809164,0.00395898029204687,0.00779117963762155,-0.0380677535492208,-0.123022215355583,0.130259868212274,0.00840955216313789,0.119206565884041,0.120141830215408,15.4082865432216,1.77596314449351,1.75087780878647,0.0269907327318393,0.0550900852477273,0.125977379953868,0.411571374158605,0.0187833369508526,0.00461706079828952,NaN,NaN,NaN,NaN,1.779143412243,-117.297381887505,1.82622524098516,stable,stable,1,0.490909322052826,0.179993740145404,0.118023325042555,0.958793740429738,0.344010053353836
147,1.43144081774596,2.22067213058472,-0.710319296611075,-1.22035179938634,1.43144081774596,-0.0535366189602814,0.0102922958413574,0.0545169783038678,-0.0302541220920499,-0.0818793895072922,0.0897767156409132,0.00579075842404559,0.150717674611837,0.152106459033165,15.4338300573656,0.870784512061751,0.851703198084995,0.175978869444853,0.240191569364206,0.128916595999724,0.422958205133059,0.158683147221325,0.0364921849821603,NaN,NaN,NaN,NaN,1.48754464037965,-118.732441752547,1.54527806581544,stable,stable,1,0.412138843205554,0.18757182474443,0.196338823504194,0.898476733269278,0.342703735111234
148,1.70897019352462,2.65580224990845,-0.785189295147635,-1.49180053489413,1.70897019352462,-0.0739699359032241,-0.0116420800413389,0.0748805011015286,-0.0384152326481245,-0.122941760740007,0.131775557359947,0.00850168718889562,0.176701684254363,0.17861485797816,15.3700098671116,1.07248341587381,1.12715977606971,0.176801796478459,0.24022376220674,0.138668858057641,0.50855789973459,0.156508912879159,0.0421832365274266,NaN,NaN,NaN,NaN,1.75445964810256,-115.915142708198,2.10518354354448,stable,stable,1,0.49144835653553,0.226765304554975,0.220958058305413,0.894316190966929,0.338369396418826
149,2.571758434924,3,-0.603676730246329,-2.46335379421796,2.571758434924,0.00639203830082608,0.00877852963723273,0.0108591314676175,-0.0291993200385348,-0.317808215078298,0.320416867870005,0.0206927068729222,0.208701478697633,0.211096108726375,15.3925162406888,2.12480607345322,1.83291162117673,0.0236430453554638,0.0568582399135391,0.139605951640975,0.420030087537165,0.00846761459430501,0.00615045154726817,NaN,NaN,NaN,NaN,2.89228411426449,-102.374592577792,2.05887831922102,stable,stable,1,0.72802147105834,0.0983451929111643,0.0650070278462044,0.957082124007319,0.337952910381789
150,1.52011351810919,2.2926299571991,-0.649503813545765,-1.35770088455886,1.52011351810919,-0.0554789353349186,-0.00603944647736189,0.0558066947565344,-0.0250594858561754,-0.0988630933449357,0.103315876618711,0.0066637513500341,0.124759705331164,0.126302931120032,15.4301595928,0.934902465920119,0.796715808383687,0.177403084222871,0.240157866583922,0.128399225937746,0.411373770621081,0.158385288530457,0.0356068851662496,NaN,NaN,NaN,NaN,1.57055207434036,-114.528428258895,1.73963943824227,stable,stable,1,0.430624191053124,0.18404742616726,0.19376987551172,0.89769288573332,0.342933677361002
151,1.4625937310425,2.28569197654724,-0.66371334635479,-1.2803958714678,1.4625937310425,-0.0643845705452089,-0.00176265392686418,0.0644086940805111,-0.0278750914032044,-0.0903845054375764,0.0967976002270321,0.00624423913590168,0.153606431931117,0.155051951214715,15.3822634055731,0.995382770292885,0.915025805939357,0.176670965248557,0.240163337690983,0.161156686956328,0.441100844517498,0.155903081241697,0.041857590571614,NaN,NaN,NaN,NaN,1.53043490962982,-115.371127707452,1.5,stable,stable,1,0.42103538518761,0.197005365819994,0.202714419847681,0.896654164276754,0.328374805797188
152,2.63101514406427,3,-0.656045416630192,-2.51272397919994,2.63101514406427,0.00850413728640586,0.00382480807490361,0.00932467199401064,-0.0320325482430845,-0.328223267427413,0.331212000152352,0.0213957945250021,0.197705153768166,0.200312394650294,15.3662210760012,2.20040417048076,2.23809470828969,0.0139862929436691,0.0570170501488199,0.145693414903973,0.49298024620775,0.000236166374882175,0.00526240506026351,NaN,NaN,NaN,NaN,3,-103.235441300153,2.48883445454244,stable,stable,1,0.741666517347199,0.0847311157844401,0.0528572341440409,0.958132933766398,0.33524737115379
153,1.47910727070482,2.16260242462158,-0.698055356667638,-1.29262102699154,1.47910727070482,-0.0439441081793624,-0.00610728831279611,0.0443664694810745,-0.0272282315124208,-0.0884104328732527,0.0936279417189869,0.00603998829053953,0.0990071699814818,0.100489021353926,15.3710332384298,0.994360865480529,0.986398693877917,0.175987124883211,0.240161150723199,0.154986332803192,0.453386195434056,0.156283425783986,0.0419512801057623,NaN,NaN,NaN,NaN,1.53053947457772,-117.277382087191,2.27938119241504,stable,stable,1,0.41452640979207,0.161920262369468,0.181866468717669,0.896443326734864,0.331117185420803
154,2.67229556576641,3,-0.655783412979933,-2.55765635537598,2.67229556576641,-0.0267276703875321,-0.00605443872787504,0.0274048279077639,-0.0298977109485049,-0.337650149961547,0.340238301392013,0.0219651965672015,0.202107293783211,0.20415099477605,15.389412970411,1.76932719722027,1.51724334571623,0.0630227196660036,0.240619735071,0.133900730677253,0.486207515628325,0.00191555670998719,0.00992376389676572,NaN,NaN,NaN,NaN,3,-102.931426400997,1.90222013910665,unstable,unstable,0,0.753442349826253,0.0787577161523138,0.0517146296461661,0.942665585901069,0.340488564143443
155,1.64944277582942,2.5749933719635,-0.769005340369371,-1.43926122188575,1.64944277582942,-0.0504729754844393,0.0149576460276434,0.0526426863765622,-0.0342756091245972,-0.111688554420251,0.118961280167016,0.00767277650752543,0.135426355068153,0.137230924798483,15.4441366818891,0.858335832018744,0.871425045275933,0.17627989847062,0.240232515585062,0.15382856710894,0.439571074842881,0.160283615201399,0.0349410691282295,NaN,NaN,NaN,NaN,1.68981233095603,-117.495671617653,1.94426301424259,stable,stable,1,0.467297591847542,0.217900043299205,0.214683031610612,0.898269072443089,0.331631747951582
156,1.62823386794349,2.52175092697144,-0.726873895899022,-1.43237171205181,1.62823386794349,0.00451301054063122,0.00446023911121141,0.00634515540148769,-0.0325733482396918,-0.110539886092043,0.117665382640918,0.00759912097642093,0.16714549527595,0.168042030971158,15.3952531025347,2.09376753453974,1.95252662654985,0.022231212281911,0.047857111535967,0.129306809020622,0.407015759760195,0.00588275705798823,0.006256699316937,NaN,NaN,NaN,NaN,1.64682358488304,-115.230680905002,2.12754739719695,stable,stable,1,0.467804104312495,0.202204616771561,0.126212492143353,0.957092082593341,0.342530307101946
157,1.63373115158721,2.50866460800171,-0.722979784466216,-1.43822357489467,1.63373115158721,-0.0822399956840768,-0.0146977954150302,0.0835430552480519,-0.0333072845862733,-0.114977931148307,0.122343517266815,0.00789050162085974,0.185838928220351,0.187696765056504,15.4696677408429,0.91949295315438,0.700571250594038,0.175260113683885,0.240207039618255,0.168682357195116,0.368733733434608,0.157414897459536,0.0401397113752334,NaN,NaN,NaN,NaN,1.69535374865113,-115.407012304463,2.2520183666681,stable,stable,1,0.473200993434557,0.212176254488738,0.211864188023829,0.899640867271463,0.325030063468837
158,1.62934758091295,2.29090738296509,-0.755304363148023,-1.43190741629712,1.62934758091295,-0.0414151016612882,-0.00265407941541434,0.0415000576283716,-0.0316608082920798,-0.10861623838348,0.11437183740474,0.00737832712674705,0.113845853593096,0.115565263957034,15.4287199874692,0.980613951087879,1.01273828757928,0.17720311809129,0.240179568849798,0.170929169601162,0.453496601849855,0.158654691876646,0.0362896618965187,NaN,NaN,NaN,NaN,1.65925020896733,-117.23842078182,1.54660517547666,stable,stable,1,0.45760574103486,0.156459299360266,0.177585016695423,0.895736387650542,0.324031480177261
159,2.58571429555631,3,-0.747596514824927,-2.44193218859895,2.58571429555631,0.00416755841089757,0.00256526455644441,0.00489378435904087,-0.0380627695727497,-0.311537221755997,0.31567222419375,0.0203898162683401,0.201492896605717,0.20390588506066,15.365374405295,2.16932835294941,2.14190708819492,0.0152454067136124,0.0753812980291184,0.150321854402815,0.49671338989755,0.000529441420199386,0.00652065760120476,NaN,NaN,NaN,NaN,2.88835322200788,-105.56852442763,2.45648897930804,stable,stable,1,0.730304989160482,0.0941114772989869,0.0590733418958784,0.958503303891346,0.333190286932082
160,1.52335976274222,2.07386636734009,-0.682547155226267,-1.34978319558051,1.52335976274222,-0.0420608963161517,0.00452918959791574,0.0423040489472572,-0.026206801107002,-0.0960146861615419,0.100576252762065,0.00648683580615992,0.106434376689232,0.107992284369583,15.3964649048065,0.746403106449725,0.827488892953537,0.176128100234828,0.240149088840239,0.134869638757165,0.422153233392787,0.154618767458826,0.0397286453438755,NaN,NaN,NaN,NaN,1.56544004446909,-115.546181583882,2.07333340908896,stable,stable,1,0.427827726938507,0.131619728341518,0.162138069333879,0.89956965560156,0.340057938330149
161,1.68135003115507,2.33137369155884,-0.794073659677055,-1.46100276943671,1.68135003115507,-0.0627337247431049,0.00861869292293192,0.0633229980958218,-0.0365570519384838,-0.113457598939794,0.121501245980084,0.00783706872492996,0.136803806147281,0.13867031843079,15.4437060798566,0.895668586059972,0.897824754755657,0.176121239319026,0.240227709493723,0.144946390190881,0.410673262875737,0.156337768942854,0.0406394498370525,NaN,NaN,NaN,NaN,1.70136515468512,-117.053321105748,1.88673716320594,stable,stable,1,0.476094071994176,0.157864539908416,0.178980158567468,0.897847646948364,0.335579382137386
162,2.55293086824352,3,-0.692672513231861,-2.42018063037609,2.55293086824352,-0.00174133912595623,-0.00653889192447759,0.00676678428439863,-0.035159845526783,-0.307475465880644,0.311387218518095,0.0200869282755962,0.203462282814488,0.205793523806929,15.4691970078989,1.15210298278899,1.19493106251267,0.0265348929736246,0.119369511906701,0.245526360506737,0.646465560095863,0.0200773554379731,0.0159355681997134,NaN,NaN,NaN,NaN,2.85921158454158,-105.062668776886,1.53983411972053,stable,stable,1,0.721940269626324,0.101831131764015,0.0758167002145756,0.968291571728675,0.290877173108117
163,1.43419326479371,2.38614535331726,-0.638603642289107,-1.26677481064881,1.43419326479371,-0.0605471589026218,0.0111070677329753,0.0615574967392618,-0.0270152250055679,-0.0990739065778427,0.104491194293802,0.00673823538243303,0.138567452568161,0.139781985382281,15.4677562830392,0.54700986461188,0.668965239524515,0.158656741834852,0.241818453859253,0.180917470296635,0.413512343608822,0.159514943476604,0.0358115270334521,NaN,NaN,NaN,NaN,1.71874998102098,-116.787170824054,2.48378523624008,stable,stable,1,0.410407934354778,0.225474760986665,0.219202760492755,0.911117538978645,0.319592235423718
164,2.41859154562617,3,-0.727129253389501,-2.2714664810495,2.41859154562617,-0.00791735624373419,0.0205241718624578,0.0219983217662143,-0.0394540752118486,-0.285217200917271,0.29026850239461,0.0187329255037949,0.231640183416025,0.233308364746939,15.4038243696681,1.53817159882377,1.3013381495443,0.0625514609289345,0.240449883257903,0.116943826599891,0.428320297745013,0.00196165632124617,0.00887886797692155,NaN,NaN,NaN,NaN,2.64390369362176,-106.697557678757,2.35775075745575,unstable,unstable,0,0.691619418449701,0.13484992789125,0.0850104832529723,0.946413835798355,0.348024965955604
165,1.60880730965653,2.4366614818573,-0.688588116533914,-1.42858337338479,1.60880730965653,-0.0650882249343693,0.0041219273401266,0.065218611684889,-0.0299088069730004,-0.112099254792957,0.118318433701401,0.0076317436906423,0.171697742362899,0.173522918454425,15.4148416040916,1.03324114671876,0.787657789272709,0.177554110479258,0.240196462060866,0.160635742655764,0.378305128434238,0.160711890575531,0.0347684330529378,NaN,NaN,NaN,NaN,1.65443912380199,-114.70021335318,1.77327309940025,stable,stable,1,0.46371986626596,0.198223934220736,0.203004934019605,0.896915881691866,0.328606336597438
166,1.65080632493647,2.45659589767456,-0.724535093626508,-1.47157262110676,1.65080632493647,0.00297429361524195,0.00275499424851048,0.0040541849759224,-0.0294931087803683,-0.113660456973249,0.11848866301479,0.00765376998043743,0.118515179840829,0.119498457783477,15.3985851613749,2.24849199103763,2.0403889158884,0.0279485342396469,0.0752800450582499,0.143667486388937,0.498077871572921,0.0217131795682116,0.00586353259950285,NaN,NaN,NaN,NaN,1.6985678915868,-115.061450151433,1.77460031993519,stable,stable,1,0.464114711539755,0.182045921111655,0.121010048369856,0.952327382897186,0.336147783827139
167,1.49728489002125,2.12635970115662,-0.710192328648706,-1.30602003578129,1.49728489002125,-0.0541614001738178,-0.0168766376125742,0.0567298701381784,-0.0284211076201627,-0.0904840672824097,0.0960671041827661,0.00619629437411851,0.111954450186746,0.113506829394715,15.4654104592764,0.789406807511584,0.84451612878261,0.175558915060783,0.240150494397535,0.149875448087922,0.416276052585869,0.154472459415536,0.0396378940013227,NaN,NaN,NaN,NaN,1.53242316823457,-117.234742424214,1.80081665508448,stable,stable,1,0.421977336551277,0.151942308697456,0.174233591262223,0.899382576541583,0.333388689738701
168,1.72352318715729,2.41617012023926,-0.846571728326711,-1.48205325527588,1.72352318715729,-0.0625639210970374,-0.00479258134179518,0.0627472155474172,-0.0406017034234911,-0.117291810171044,0.12655886232328,0.00816335454296226,0.134996538344187,0.136947484174405,15.4464803386083,1.01246237715485,0.832143910693246,0.176091082466682,0.240213704458501,0.135910330374121,0.417073146732436,0.15615474608673,0.0393605520681917,NaN,NaN,NaN,NaN,1.76822611766951,-118.998443980142,2.1851350260002,stable,stable,1,0.486995680076825,0.167349216127136,0.184124567072958,0.897461123647853,0.339595408722613
169,2.46641784806714,3,-0.759603041756337,-2.31437356994111,2.46641784806714,0.0053050570631544,0.00237944673049171,0.00581424089512742,-0.0389446103553249,-0.28357147005093,0.288202224722457,0.0186163726287077,0.218022954293046,0.22018791915687,15.3501371005521,2.23773211526244,1.95484760520703,0.0171898713040718,0.0501437541114507,0.136180851064657,0.482872381165357,0.000123239594042048,0.00613005688874697,NaN,NaN,NaN,NaN,2.66549340284327,-107.193726307889,2.360899183375,stable,stable,1,0.701749009982611,0.121121928349,0.0749570417582157,0.958463366544275,0.339475177304597
170,1.72574172068287,2.40530347824097,-0.763964071014582,-1.53664744079733,1.72574172068287,-0.0420799269418541,-0.00479484674294405,0.0423522231614835,-0.0327030702105905,-0.125942877910969,0.131141201637187,0.00845921061952202,0.126607783209068,0.128645494910699,15.4364832077433,0.915906146453423,0.969230553589308,0.176716487432889,0.240197181167254,0.141992255283076,0.412490574970235,0.158529172964362,0.036681856534373,NaN,NaN,NaN,NaN,1.77840570795084,-115.675983280215,1.8845099251312,stable,stable,1,0.485926891164237,0.160665969696845,0.18019584894608,0.896829967926077,0.3368923309853
171,1.64266719769787,2.26888084411621,-0.798140036393826,-1.42354044007039,1.64266719769787,-0.043005857604004,-0.000158009099763469,0.0430061478759895,-0.0352027221419057,-0.107178199159036,0.114197175617906,0.00736781962272926,0.111971038535856,0.113810977275769,15.3637313503727,1.05355922671037,0.988494583708718,0.17757027174145,0.240194611636972,0.153463259393147,0.476713127868475,0.158466040042442,0.0353485920065404,NaN,NaN,NaN,NaN,1.68221562017466,-118.331726157389,2.32127310635894,stable,stable,1,0.460806781507919,0.148782530888058,0.172552903119733,0.895170155618839,0.331794106936379
172,2.40936574967809,3,-0.851706424212171,-2.21991525737452,2.40936574967809,0.00752985408726909,0.0043402933077788,0.00869119373694503,-0.0471575407221389,-0.263099702148054,0.270165649144729,0.0174504275671216,0.220515340761688,0.222547889343028,15.3636315997159,2.14349471726256,1.95965259552421,0.0275276024747563,0.0539877530781657,0.145148117498498,0.426371473368805,0.0202280357891333,0.006248906591735,NaN,NaN,NaN,NaN,2.5789773418386,-109.450212225276,1.76855060772493,stable,stable,1,0.687007111116095,0.134486091840871,0.0919542229027479,0.953997184162154,0.335489725556223
173,1.56762259312578,2.29923462867737,-0.734599332926617,-1.36637057118973,1.56762259312578,-0.043523373324665,0.00959954423420991,0.0445694432886784,-0.0313193416739729,-0.0994581224234122,0.106081124115432,0.00684264388684172,0.1269451653699,0.128655806359144,15.4189737420841,0.838530553520098,0.960703418197784,0.17690428612192,0.24018116565957,0.153885906588085,0.450826992695547,0.158586546348126,0.0340087413852645,NaN,NaN,NaN,NaN,1.60572032516396,-117.151648626796,1.57705445238695,stable,stable,1,0.443763852772037,0.172783772602031,0.186519988098462,0.897411018589828,0.331606263738629
174,2.30889914356745,3,-0.763106521133964,-2.14663967982067,2.30889914356745,-0.0255447301481972,0.000496171413784463,0.0255495484190244,-0.0375148431124119,-0.250904202148511,0.255853669412913,0.0165151319069548,0.236779030528657,0.238245618723395,15.3717077917183,1.58921179494746,1.56125793745869,0.0629189290344489,0.240233954178646,0.140000038053297,0.499415582248238,0.00194685001853302,0.00985948297302268,NaN,NaN,NaN,NaN,2.36078838964489,-107.709824257803,1.98400582331309,unstable,unstable,0,0.663355562029333,0.160181776574144,0.100559599155035,0.943786844728156,0.337777760865201
175,1.62641730985126,2.46673226356506,-0.798589252442459,-1.39919167694779,1.62641730985126,-0.054668711994605,0.00131642164500037,0.0546845594029658,-0.0365708702075101,-0.105699665042433,0.113911307824373,0.00734668890181406,0.127363059890153,0.129034232074442,15.4208311990729,0.838044856674647,0.779442782918143,0.17634371741435,0.240206759856344,0.123846265715089,0.48516195503255,0.158119558599418,0.0366693025634932,NaN,NaN,NaN,NaN,1.70036876942666,-118.357386427334,2.2424151490307,stable,stable,1,0.459518129041891,0.199096367142816,0.203067471504479,0.899119309838881,0.344957215237738
176,1.76205206076836,2.54445552825928,-0.885970431045109,-1.50335489206878,1.76205206076836,0.0026595050315063,-0.000706538245772555,0.00275175640370776,-0.0443673839133298,-0.119754401363427,0.130305583114494,0.00841251606775311,0.139219244279128,0.140201632425079,15.3993863219857,1.85176419414626,1.80132393572955,0.0263861599216735,0.0525797618099555,0.12494825734548,0.442815957875667,0.0181532156865383,0.00564628368201967,NaN,NaN,NaN,NaN,1.79740384781532,-119.424856454763,1.8695485827289,stable,stable,1,0.497920876023244,0.17654526885947,0.116048451242555,0.958104084732996,0.344467441179787
177,1.94952313158963,2.66211795806885,-0.985704517386134,-1.66556623939421,1.94952313158963,-0.0570014074797926,0.0061422291021431,0.0573313826191255,-0.0536579965393683,-0.147095234579881,0.158960599374169,0.0102567921467496,0.139990219881656,0.1424523953708,15.3796466758416,1.16066202508847,1.19083925368007,0.177095971800221,0.241013664782788,0.163481477775788,0.480525886494914,0.157637885891107,0.035774143347989,NaN,NaN,NaN,NaN,2.00389774569212,-119.82849383685,1.61033873160635,stable,stable,1,0.548363314164729,0.170844589437997,0.185576815680336,0.892975932623851,0.327341565432983
178,1.85863376066491,2.58231639862061,-0.995298595433145,-1.55423506484396,1.85863376066491,-0.0462102687090937,0.00719271866481762,0.0467666990064283,-0.0541018940036509,-0.127340151285596,0.140796505242568,0.00908282227877867,0.121105197321303,0.123280544723765,15.4020098087602,0.977447909787675,1.11096615974094,0.176530200970727,0.240241098363708,0.17477431145777,0.447859651833487,0.158219468162596,0.0381788287964422,NaN,NaN,NaN,NaN,1.88108853169074,-121.75609313085,1.57619056178959,stable,stable,1,0.520291778455397,0.171402488357876,0.187044467113979,0.895325931825483,0.322322528240991
179,2.49405590865923,3,-0.660875939790227,-2.36894380497505,2.49405590865923,0.00710290273889783,0.0055841111990514,0.00903512729304981,-0.0327198662115744,-0.295380681352552,0.298728433010463,0.0192950669746707,0.219133870295587,0.221416451312497,15.348088952616,2.02869068067701,2.05823141350084,0.0273157758045816,0.0693804177700874,0.136934064011853,0.49010210029903,0.0202397054475487,0.00638285219731985,NaN,NaN,NaN,NaN,2.73243854491602,-104.018907315581,1.63724375548024,stable,stable,1,0.709364865904961,0.115493860555399,0.0806127781392562,0.95423058135774,0.339140415994732
180,1.81094532560658,2.67184209823608,-0.916355416132399,-1.54336272845966,1.81094532560658,-0.0535508617275787,0.0024532482519594,0.0536070258338587,-0.0473442138154883,-0.126943682461328,0.138145618433153,0.00891167750922094,0.140799778294751,0.14296958231128,15.4083785274661,1.0191817018757,1.01218655482872,0.177127715819498,0.24023530894493,0.159247120029416,0.475823387228188,0.15474738863516,0.0342009861397473,NaN,NaN,NaN,NaN,1.85620598441334,-119.444845846151,1.82916772400496,stable,stable,1,0.511512669957343,0.203529728577846,0.203331176550525,0.895475391501859,0.329223502209148
181,1.81233333977493,2.70900249481201,-0.887469278513521,-1.56111596391396,1.81233333977493,-0.0579774727883995,-0.001073223013163,0.0579874051718612,-0.0450695141718197,-0.130646392033202,0.14069626249217,0.00907616935657882,0.146462296711106,0.148783238088487,15.4208040911082,1.07563734778163,0.921056427243879,0.176568431513694,0.240225482328577,0.14318087363889,0.47363366557124,0.156979071013751,0.0371515227545636,NaN,NaN,NaN,NaN,1.8944468966032,-118.434379956689,1.91319166138542,stable,stable,1,0.513045538224346,0.212381584164851,0.210707071143046,0.89602747601081,0.336364056160493
182,2.43613133183291,3,-0.444439287284183,-2.36057269821935,2.43613133183291,0.00519031104130661,0.00695569827468397,0.00867877106472748,-0.0194876688025891,-0.295079818677792,0.296451754979842,0.0191430772484771,0.225380725665808,0.227667049130788,15.3712153300726,2.00270254737686,1.91750877086113,0.0272886576131562,0.0693705440974579,0.137350430159969,0.488201810270547,0.0184911402931149,0.005396430294277,NaN,NaN,NaN,NaN,2.61222307005049,-99.3162222201901,1.566376924932,stable,stable,1,0.695168431648267,0.128461558366128,0.0872575578832228,0.955554010835838,0.338955364373347
183,1.79603539857288,2.47714138031006,-0.947982912082452,-1.51089195098113,1.79603539857288,-0.0520693118870174,0.00207422863147015,0.0521106099062667,-0.0496196541245299,-0.122162421077226,0.134036795327097,0.00864474551029457,0.13743784000984,0.139512872811411,15.4136080976751,0.823672687653125,0.844685060617552,0.176631017141808,0.240218727835307,0.136345146876869,0.444464431292432,0.154977046731595,0.0405353758290622,NaN,NaN,NaN,NaN,1.87171872539055,-121.350351106356,1.80404986306522,stable,stable,1,0.506845347515051,0.162802457707013,0.181300298725586,0.898575966264112,0.339402156943614
184,2.49611598865541,3,-0.268256763072016,-2.4494568176513,2.49611598865541,-0.011011303523072,0.00603281120721715,0.0125556209061576,-0.0114592943530299,-0.320254536944433,0.32082556236265,0.0207027735732368,0.216328887437286,0.218014124839421,15.3916930553055,1.45168691168628,1.08933762640751,0.0763967769697437,0.240922713591784,0.235218760064645,0.671713106292975,0.0916191043270015,0.113735256736995,NaN,NaN,NaN,NaN,2.70378156394852,-95.0700514349474,1.90174181810616,unstable,unstable,0,0.709233755275994,0.115675766385328,0.151483336931398,0.94183641871582,0.295458328860158
185,2.09021870187811,2.88960742950439,-1.21343990872378,-1.67635186286105,2.09021870187811,-0.0562980089730803,0.0130538299924602,0.0577915936084573,-0.0820000673003411,-0.150739457909905,0.176797503481211,0.011402600078388,0.166381388159346,0.169180301349645,15.4548648259274,0.963102719737288,0.863606144662363,0.176705525360215,0.240288504708473,0.144747732099584,0.405847256836898,0.159783992937091,0.0353520941658461,NaN,NaN,NaN,NaN,2.15708888634091,-124.745911655981,1.97562839548122,stable,stable,1,0.591227714104091,0.190457589210798,0.198144968467918,0.897294524813895,0.335667674622407
186,2.06631253555068,3,-1.12596721237608,-1.71036052481786,2.06631253555068,0.00652166066432191,0.00666381875577247,0.00932408377430987,-0.0708037425234753,-0.154963459558756,0.174415243452342,0.0112626342090714,0.164290567965645,0.165657917973388,15.3763213758062,1.95481247390691,1.87213028322849,0.0266738491101657,0.0526979191204517,0.121252735128848,0.470208980660441,0.0218353200165444,0.00703886335730412,NaN,NaN,NaN,NaN,2.10837557196529,-122.363616262261,1.66013695229976,stable,stable,1,0.584148259741526,0.21178909485972,0.139337630265235,0.956594239495996,0.34610989549829
187,2.03522518897217,3,-1.11597062402734,-1.67747707560494,2.03522518897217,-0.0732891407083776,0.0119170348549408,0.0742516926777177,-0.0706532509882757,-0.150140931835636,0.170462379412084,0.010995507863932,0.163082323089356,0.165776921193472,15.4129228198974,0.992048705018174,0.979665343330967,0.175933238412801,0.240300247507443,0.161884289425752,0.423613478763773,0.156299801406525,0.0399426408583193,NaN,NaN,NaN,NaN,2.09849345512064,-122.244984043751,1.66177084567442,stable,stable,1,0.575882101297939,0.230687142805511,0.222403460761959,0.896541341842285,0.328051426921888
188,2.00531464492953,2.77023363113403,-1.12532727941138,-1.64233661203804,2.00531464492953,-0.0525398183473475,0.00996088943163955,0.0534757125267314,-0.0694748760427135,-0.143332318341958,0.162569862413927,0.0104878744702337,0.138252625225799,0.140821224876356,15.409636289577,1.08174987993236,1.08250624867393,0.176780381635476,0.24029039317486,0.184572520010931,0.496787840675205,0.159972057186149,0.0379435175668196,NaN,NaN,NaN,NaN,2.08252249604559,-123.526280590972,1.60928746707055,stable,stable,1,0.562914816956478,0.181910652525915,0.194042726349853,0.894604939600355,0.317967768884031
189,2.48850960316865,3,-0.763542103494787,-2.33594587978913,2.48850960316865,0.00699590357342111,0.00357260860188931,0.00785532933942936,-0.0391954776258265,-0.287828735970186,0.292443638859568,0.0188868932626617,0.215154392166744,0.217503079711253,15.375818535217,1.90478301689869,2.00451256196855,0.0272946439431536,0.0582045447069374,0.131286601447312,0.484640132528821,0.0152739103034314,0.00490625842333749,NaN,NaN,NaN,NaN,2.71977714743149,-106.924123588306,1.86056838688759,stable,stable,1,0.707103176787225,0.116525482999282,0.0784877883509946,0.955636784194466,0.34165039935675
190,1.99022308452017,3,-1.09695497974204,-1.62614630855553,1.99022308452017,-0.0945826323230354,0.00219039683136036,0.0946079921329764,-0.0720374678418314,-0.145792652069939,0.169090785998841,0.0109068687653994,0.209202445983188,0.211856784067338,15.4610834920384,0.97746441709194,0.944067579534423,0.175542576681935,0.240312958972085,0.168052243377916,0.367772529012572,0.157081848461833,0.0374609901188482,NaN,NaN,NaN,NaN,2.06580628279313,-122.281189709167,2.24261377373384,stable,stable,1,0.573097512685514,0.244544604540673,0.230163095821365,0.897130960256968,0.325310114054259
191,2.02121777550594,2.86903738975525,-0.999260206230648,-1.73135848767863,2.02121777550594,-0.0576597259945201,0.0157315371839268,0.059767259130166,-0.0570487699035547,-0.159974620418179,0.173487620656884,0.0111907848453387,0.166357480714121,0.169037676906314,15.4383727087054,1.03673771439073,0.90457524972748,0.176083683385138,0.240266217235867,0.109050640336406,0.477889440577087,0.15958862595811,0.0370881301517019,NaN,NaN,NaN,NaN,2.07634549688122,-118.754548572983,1.8580523060193,stable,stable,1,0.572798942182847,0.201716744046624,0.205444917414016,0.896704985017931,0.351533048739375
192,2.48402704163937,3,-0.962429900460543,-2.25713330823178,2.48402704163937,0.00619313442753389,0.00662030190480195,0.00906550116365499,-0.0567885008292593,-0.268812433075538,0.278111980438623,0.0179632376254331,0.211338888395714,0.213397546211467,15.3739164408713,2.133942892087,2.26299187964196,0.0213497646175669,0.0693927194819891,0.156743253345626,0.52756538681869,0.00135788744472416,0.0101857769566743,NaN,NaN,NaN,NaN,2.68099720733185,-111.612146549017,2.18552695761874,stable,stable,1,0.705086720346126,0.117755924177811,0.0749609789310114,0.954777773056203,0.330336331846388
193,2.03737311991485,2.78428316116333,-1.0557979779156,-1.72675935978474,2.03737311991485,-0.0494820195763864,0.0127112274437901,0.0510886050356207,-0.0615669867201075,-0.159240860422177,0.173222857808231,0.0111769498662791,0.150967596853472,0.153674448671172,15.3665007881306,1.22963120302566,1.17834664794924,0.177532953975374,0.240282066272663,0.167444344998395,0.479312909095177,0.15936956720898,0.0364815400320969,NaN,NaN,NaN,NaN,2.11900443077325,-120.570247299149,2.09084481644238,stable,stable,1,0.574034388378195,0.177421003537438,0.190549535439135,0.892313697040367,0.325580291111824
194,2.50241222688295,3,-0.988461499771946,-2.26546352858389,2.50241222688295,-0.0231002980062322,-0.0101276943231272,0.0252228856453706,-0.057294343878624,-0.268101967136204,0.277984764858903,0.0179479475692431,0.226581483045031,0.228173652423252,15.4084501539692,1.78708976421258,1.62747131177212,0.0631993866340276,0.240165365272504,0.145716949364662,0.424058155164389,0.00188664959415994,0.00918959069746828,NaN,NaN,NaN,NaN,2.61715863552686,-112.220792726245,1.55425669059829,unstable,unstable,0,0.712944657653438,0.116581444652987,0.0741290470670638,0.941571612514535,0.335236911393483
195,2.03987423229862,2.82320046424866,-1.03828506699412,-1.7394101968215,2.03987423229862,-0.0466534912295205,0.00769684390486436,0.0472841374035605,-0.059397462181834,-0.159965984169543,0.173229881267912,0.0111744670522242,0.142981743946362,0.145698730465796,15.4297144993997,0.964846896677497,1.03085930835713,0.176516724568718,0.240279434421918,0.176363146467098,0.434351897901843,0.158301262537154,0.0362635494753257,NaN,NaN,NaN,NaN,2.08957514186263,-119.371133784789,1.92489462296341,stable,stable,1,0.573106208039458,0.184917160712745,0.194493158374581,0.896061088961797,0.321616379347956
196,1.95620031938904,2.76089930534363,-0.923505228519276,-1.71063710451865,1.95620031938904,0.00084603191123601,0.00147052270070881,0.00169652792730611,-0.0473039136024595,-0.154500062072636,0.163270929682235,0.0105416319249936,0.135785864254695,0.137075718970953,15.3893776282541,1.80448926179694,1.93930120832448,0.0219638860834229,0.0549621793348008,0.133110440570302,0.41211926521614,0.00522581934032766,0.00678878085266933,NaN,NaN,NaN,NaN,1.98818975952798,-117.123132335998,2.15637784906554,stable,stable,1,0.549068562297934,0.181368301959789,0.113612215132141,0.959602560407334,0.340839804190977
197,1.89351778900301,2.72897291183472,-0.850329366802959,-1.67844698666895,1.89351778900301,-0.0462852759351864,0.00379425573668002,0.0464405334270794,-0.0407004345502122,-0.148938294562982,0.155853664261217,0.0100540922797885,0.127947722050899,0.130540841853097,15.4186218742802,0.967558201406742,1.02501533517642,0.178331436735751,0.244311790764921,0.1590444085589,0.439288333628887,0.159049851093846,0.036607501470175,NaN,NaN,NaN,NaN,1.96491164649544,-115.571452830696,1.54787024363756,stable,stable,1,0.531046245438089,0.196491500432098,0.201895541684062,0.895178346701828,0.329313596196044
198,1.83292926485474,2.685795545578,-0.822570212819516,-1.60993935762835,1.83292926485474,-0.0790917545348492,-0.00817613344105317,0.0795132365927004,-0.0417401896253642,-0.140532857344093,0.14967005327011,0.00965253869706965,0.175146505670906,0.177544790416762,15.436169374986,0.829359462902263,0.80657498613389,0.175407335912619,0.240249633768869,0.145944969192459,0.468144554857583,0.156197805318695,0.0410541324465946,NaN,NaN,NaN,NaN,1.88489007794024,-115.359098105949,1.61989585728585,stable,stable,1,0.52429009537795,0.206472339871396,0.208233426166271,0.899442561372692,0.335135569247796
199,2.47421543893208,3,-1.11963063311145,-2.17119949545366,2.47421543893208,0.00850843784878309,0.00274289714570273,0.00893963083010193,-0.0742951626228034,-0.249303310599885,0.265384771427526,0.0171349313980556,0.219454609601671,0.221431792391132,15.4111024945096,2.04227647491522,1.73373456014332,0.0244629438377952,0.0566752341216436,0.132963688552567,0.431348926632907,0.00832715554728239,0.00736935284056706,NaN,NaN,NaN,NaN,2.68563096804021,-116.007396076949,2.0347928979337,stable,stable,1,0.704077142193448,0.119940458559134,0.0783449978257919,0.9580998699485,0.34090502730997
200,1.92065746032152,2.79534697532654,-0.840059151764266,-1.69759186321268,1.92065746032152,-0.0822127296921833,-0.00556683813046459,0.0824009867065364,-0.0438570291424744,-0.15695523694419,0.166248245796762,0.0107231387252324,0.180277637173829,0.18274756341496,15.4420643602747,0.921209992790447,0.90739193155791,0.175649098931385,0.240282136477633,0.152633676763257,0.422822470661443,0.155700127914351,0.0407022448401047,NaN,NaN,NaN,NaN,1.97177383483815,-114.893051128023,1.59064116860277,stable,stable,1,0.548724835435396,0.211911988438995,0.211148066219712,0.897807863985856,0.332162810327442
201,1.82161379947856,2.47054052352905,-0.777536442363871,-1.63395401382266,1.82161379947856,-0.0512803373874264,-0.0100883498248836,0.0522632548236092,-0.0342482532795838,-0.141358897266417,0.146688697979411,0.00946293613832253,0.129914515243006,0.132217476830259,15.4255120058261,0.994341129736047,1.02312410064778,0.176951319696098,0.240216968352784,0.190864105796829,0.511254853816325,0.158272792848133,0.0358736843571052,NaN,NaN,NaN,NaN,1.87135485490829,-114.338554000358,2.14507533526103,stable,stable,1,0.512207175227,0.155590109629023,0.17674250539533,0.895672827627507,0.315171508534743
202,2.33636632970344,3,-0.944610095656416,-2.10277388583587,2.33636632970344,0.00379914918709387,0.00605033258626012,0.00714423256551445,-0.0553271918893835,-0.236873578769565,0.24693382934625,0.0159477852662459,0.23075284348945,0.232611537532302,15.4005971381456,1.90583877180914,2.03563370780098,0.0270070021056908,0.0721399652882497,0.135879310337462,0.49039769434247,0.0151946712017875,0.00667741697178631,NaN,NaN,NaN,NaN,2.45321237213052,-112.912057666969,1.87498497761307,stable,stable,1,0.669553328760712,0.15062735178707,0.0995577498991404,0.955527786607361,0.339609195405573
