scenario_id,mean_wind_speed,max_wind_speed,wind_velocity_x,wind_velocity_y,wind_velocity,wind_acceleration_x,wind_acceleration_y,wind_acceleration,wind_body_force_x,wind_body_force_y,wind_body_force,mean_wind_body_risk,mean_wind_gust_risk,mean_wind_risk_raw,min_thrust_margin_n,mean_estimation_uncertainty,gps_dropout_enabled,gps_dropout_start_sec,gps_dropout_duration_sec,moving_pad_enabled,moving_pad_amp_u,moving_pad_amp_v,moving_pad_freq_hz,mean_abs_roll_deg,mean_abs_pitch_deg,mean_abs_vz,max_abs_vz,mean_tag_error,max_tag_error,stability_std_z,stability_std_vz,mean_imu_ang_vel,max_imu_ang_vel,mean_imu_lin_acc,max_imu_lin_acc,wind_speed_cmd,wind_dir_cmd,hover_height_cmd,gt_safe_to_land,label,success,onto_wind_condition,onto_gust,onto_temporal_pattern,onto_drone_state,onto_tag_observation
1,2.1022463701893,2.86035108566284,-1.28788064087462,-1.64248895844935,2.1022463701893,0.0027959342194577,0.0036337571978511,0.0045849143429806,-0.0892113784181046,-0.144037952953505,0.173779790632786,0.0112128552506184,0.147051440071378,0.147983599052419,15.3969438965153,0.32072075641292,1,14.9605102736682,7.42651472357787,1,0.0717747328300573,0.112032227880748,0.270226572149888,1.06911208447512,1.38854552020481,0.0681676670415114,0.291724742256921,0.142519916415683,0.420373403270195,0.0603410405193795,0.0994634533089644,,,,,2.1396688985117,-127.709262372896,2.31472368639318,HoldLanding,HoldLanding,0,0.590195751860964,0.171414128611093,0.165835245873478,0.946605999585331,0.336657814926363
2,2.09297765580016,3.0,-0.605463831602731,-1.97354876427333,2.09297765580016,-0.0036680216907257,0.0002420649628084,0.0036760003495448,-0.029295158124438,-0.235023148698163,0.238601372618262,0.0153951288333072,0.22596453469118,0.226730297088088,15.4338084053546,0.133407239760723,0,8.116361634775,7.38323625892205,1,0.108149914345401,0.0577373419207725,0.186602854760315,0.973326326075315,1.40737814159873,0.156160264375442,0.767361586431004,0.241032793840711,0.354633092854611,0.0155967868712985,0.0706138445487535,,,,,2.4078142646114,-106.948920050051,2.33224799696822,AttemptLanding,AttemptLanding,1,0.603473434297659,0.204753960842381,0.155462043435654,0.903214332709126,0.292874313848573
3,1.86399101612291,2.88756847381592,-1.12600203451959,-1.45058597219558,1.86399101612291,0.0076755828878873,-0.0129378948509895,0.0150433937608536,-0.0766635676169136,-0.117073696162421,0.147282204146962,0.0094973980992709,0.189448735654341,0.189794657765247,15.4578727987694,0.286924390190075,1,4.10354707607895,9.64893442658518,0,0.0773422891658523,0.0693134422541978,0.141643079797473,0.709083767134689,0.590519767988936,0.134160483483578,0.734420153275715,0.146048339928343,0.221230977208237,0.0200272988923162,0.0131235552237709,,,,,1.93938346389085,-129.159046213467,1.88495738169998,HoldLanding,HoldLanding,0,0.535023202519159,0.23306288350375,0.153510953731721,0.922708587625097,0.335089626698514
4,2.49520626911924,3.0,-0.765471384464196,-2.34291659635375,2.49520626911924,-0.0166197735818471,0.0061813549259033,0.0177320619960526,-0.039886592050967,-0.294775740693963,0.299590179619651,0.0193283870253263,0.221578062720052,0.22327359817574,15.3770420739372,0.281226183384996,1,9.20327793393922,9.21678936395161,1,0.0930059744195269,0.159449003103468,0.0891502254978651,0.985536782633667,1.18190827690057,0.0829798863941737,0.356215483092452,0.153649591647254,0.432215656703627,0.024683752738971,0.0167150751700424,,,,,2.6973243686687,-107.092406890338,2.28831936174276,HoldLanding,HoldLanding,0,0.710043058066947,0.11682946748078,0.0871464464140864,0.941480131335144,0.33171129260122
5,1.95637868046761,2.99925208091736,-1.11183781963858,-1.57420903681708,1.95637868046761,6.6070894503135e-05,0.0096275013974777,0.0096277281079981,-0.0751295927618598,-0.135460472629795,0.162068762818313,0.0104556555967707,0.214144358398679,0.215022998903618,15.4080499173492,0.294308254379306,0,15.6153114335105,6.96540461970674,0,0.0378886669531116,0.0685312201005783,0.233350663284208,0.638746647205342,1.1268919697126,0.0476761692863877,0.250763634965825,0.227843692729728,0.32346380123815,0.0248657680832477,0.0148980117100559,,,,,2.00200400724988,-124.398868862931,1.5,HoldLanding,HoldLanding,0,0.564705581238752,0.236411598587661,0.158315870437696,0.962289040509594,0.298736136564565
6,1.96617372724034,2.73497819900513,-1.16768555783769,-1.56610482758587,1.96617372724034,-0.0007735467579581,0.0004241273814736,0.000882189674879,-0.073200514833189,-0.128851021431747,0.151264177878425,0.0097613209649419,0.1298856868782,0.131068095895892,15.3671800272485,0.301756764704288,1,9.97292400054751,6.14199027638103,1,0.0523472000730049,0.106696045158493,0.260382833293406,0.725912293024933,1.47366347385896,0.0347096401436561,0.476680457494754,0.147478115044969,0.438679309481303,0.0030599768185952,0.0047238540667744,,,,,1.99661919299708,-125.85580820349,1.88240302431467,AttemptLanding,AttemptLanding,1,0.550526613109935,0.173142740920805,0.106963399364827,0.965362798902656,0.334454171091125
7,1.87908224697286,2.66849970817566,-1.104607881366,-1.50144832852084,1.87908224697286,0.0007124776699147,-0.0045672400915013,0.0046224783918958,-0.0673831199249995,-0.114103271995539,0.135611046608806,0.0087481077837433,0.126819926735637,0.127648677421314,15.3926647261359,0.212366361311296,0,15.0131683837508,6.12816373894242,1,0.0450487786001482,0.0697897977689845,0.246247027570176,0.666068583557983,1.03971292307556,0.048375600447431,0.419369941290059,0.195014834448118,0.315335503476145,0.0243504407262422,0.0176537917487961,,,,,1.87426200826755,-126.596930639358,1.55646750826106,HoldLanding,HoldLanding,0,0.526618334677026,0.178466383142477,0.124321808621964,0.962409630795592,0.313326740245281
8,1.95749736825625,2.76979756355286,-1.16867408219664,-1.55292885790689,1.95749736825625,-0.0016770170311917,-0.0049350569434672,0.0052122138442481,-0.0740841757091114,-0.123036872891826,0.14701377520711,0.0094953190372056,0.135425311787319,0.136241223613117,15.2565349351178,0.28899631460178,1,7.50326533391991,6.84678564115806,1,0.117206505973739,0.085404486715799,0.0566239830319872,1.85384186888356,1.07104933728657,0.0641237675549181,0.249034488430812,0.209982397735654,0.625345927592168,0.0297995104184642,0.0180192389551286,,,,,1.95332820371371,-127.202212038542,1.91829335666879,HoldLanding,HoldLanding,0,0.54924754292429,0.183723116479848,0.130030547269697,0.944956828174061,0.306674489895265
9,2.50886457375806,3.0,-0.769018158200641,-2.35350759111332,2.50886457375806,0.0063866963695616,0.0068307703455472,0.0093514337954444,-0.0402522286138648,-0.291848945194305,0.296744636124154,0.0191482476630292,0.214474340174965,0.216777538478793,15.4073172846429,0.231532542837769,0,5.21464354664454,7.11578867183541,0,0.0691424154744614,0.145886195341069,0.0562500526203263,1.24391685230125,1.34044149007616,0.035970272371757,0.694926272717976,0.105104816776007,0.417765834784005,0.0028125536685419,0.0052087722021077,,,,,2.74487220964884,-106.758294244659,2.02794946299647,AttemptLanding,AttemptLanding,1,0.712386060697907,0.112219900433602,0.070476063095431,0.961709191124013,0.353286748099552
10,2.0186222191607,2.83744478225708,-1.0525391810447,-1.70330570159901,2.0186222191607,0.0067290058382296,0.0047296157610594,0.0082248881340836,-0.0636112731905717,-0.150181528971611,0.165858545745845,0.0107011320353109,0.13980073902372,0.140746406449307,15.3840841807519,0.246658888568863,0,4.4503488579362,9.57341727302183,0,0.0630299787834084,0.0917776778639626,0.0629505864885344,0.717373527025628,1.21734286848451,0.0506360592213701,0.250678785702187,0.218974669820085,0.408466125617229,0.0254863315426455,0.0172884488251084,,,,,2.05126066309477,-122.211439927127,1.61832585087022,HoldLanding,HoldLanding,0,0.566448539732715,0.185742972854601,0.129059750839834,0.959480627281735,0.302677924524407
11,1.95894805620744,2.85842800140381,-1.08602211575758,-1.59324250932964,1.95894805620744,-0.0003691353187211,-0.0140669448819043,0.0140717873489497,-0.0686270765505438,-0.128425792712611,0.152128035737804,0.0098208372319615,0.202576225720817,0.203331906961597,15.2524728253004,0.131535013637793,0,13.8266560081203,9.91352856876773,0,0.103093219440959,0.117801221449971,0.0869676540870012,1.30881674552722,0.977965087622657,0.0636213724899082,0.249768956215135,0.140199291848585,0.518888715509951,0.0244183207596992,0.015870403466122,,,,,1.94106924244638,-124.863664714484,1.9244711030548,HoldLanding,HoldLanding,0,0.563052529714305,0.204962815349823,0.139601332020067,0.950221742208868,0.337689203622851
12,2.54993913046094,3.0,-0.602299717024488,-2.44787565876434,2.54993913046094,0.004492487991276,0.0036979134826996,0.0058186778977093,-0.0272783597727934,-0.313634080254711,0.315827414432517,0.0204008507603594,0.205524548037207,0.207943106426353,15.3726300674358,0.250136679746488,0,15.3276391456452,5.45618902318028,0,0.136064091536737,0.0696711575475858,0.236525150053226,1.09422417956884,2.56936187406927,0.0272139586344159,0.084870032491919,0.236434490072277,0.368418698832363,4.20641252911188e-06,0.0036748526288201,,,,,2.82179955786848,-102.658248237611,1.56912943822097,AttemptLanding,AttemptLanding,1,0.721572389408187,0.102330453260869,0.0627364515200448,0.957607701689921,0.294918004412322
13,1.81616127330626,2.58902192115784,-1.02111511033649,-1.48508378284669,1.81616127330626,-0.0022678346486903,-0.006973662158128,0.00733314652039,-0.0576148107307031,-0.110647101558806,0.127346917834018,0.0082142994250632,0.1292785937841,0.12999568780666,15.4071958447434,0.287541624439925,1,8.92483196362757,7.4466404194578,0,0.124549691205204,0.179073315640541,0.13562527494948,0.59659246685708,0.984116282311455,0.0511496008878624,0.250213349691564,0.224663831462837,0.374760848978087,0.0246943964330448,0.0154620373331559,,,,,1.81564992585132,-124.856492181276,1.62918467341414,HoldLanding,HoldLanding,0,0.510308810443002,0.175238055962009,0.12174067991102,0.962005345098316,0.300149408238739
14,2.64987102244274,3.0,-0.814952410479071,-2.48150962385455,2.64987102244274,-0.0314983282009609,0.0063797676665642,0.0321379233139727,-0.0417176673878287,-0.326465916691138,0.331297074913094,0.0213888699435056,0.208203975574172,0.210209040965586,15.3220911501072,0.123304004385068,0,12.4479084867031,5.34604030269918,0,0.157474486767969,0.0934506123182082,0.168412424596868,1.86871607812939,1.18450299903245,0.0796664903331694,0.814398865482064,0.157236253555116,0.516883934413006,0.0256466821381738,0.0178902421443655,,,,,3.0,-106.356863714422,2.21507700733948,HoldLanding,HoldLanding,0,0.748674080844514,0.0846709725579458,0.0687066515274625,0.936177176370001,0.330117220642171
15,1.85808122658135,2.85479164123535,-1.0646318088995,-1.49145346146772,1.85808122658135,-0.0016377291986439,0.0035542580148857,0.0039134264991782,-0.066588917520555,-0.117670553999136,0.141043096936804,0.0090977521187417,0.189869455806609,0.190623637748594,15.3954686164368,0.175059123083693,0,4.31438878493091,4.32188372678418,0,0.0667000009242601,0.133263373553211,0.146532701050066,0.60048758651224,0.918195745851266,0.0474345860329556,0.252555730894915,0.242024932199902,0.315472853980135,0.024509158166448,0.0165905877112917,,,,,1.89152489310621,-125.328378154295,1.51951872533658,HoldLanding,HoldLanding,0,0.533613054638078,0.224977304822,0.151912283064212,0.96435019508638,0.29243336346671
16,1.82370123871413,2.92402410507202,-0.990923152275506,-1.4996853383872,1.82370123871413,0.0090526655893596,-0.0034626365836067,0.0096922962389161,-0.0594405033882867,-0.126931838167193,0.145883077075597,0.0094064363124658,0.192415935857923,0.193125626700159,15.4959043893125,0.273617126789163,0,6.38092705012839,4.40840425139291,0,0.147652613519463,0.131429622613604,0.10798305180581,0.600204584699774,0.416589034345399,0.0236877334517907,0.181029274195383,,,0.0053325976604933,0.0159846356123236,,,,,1.91158907974983,-123.148647987168,1.70061855648391,AttemptLanding,AttemptLanding,1,0.524945455663801,0.24934956590766,0.157792377717377,0.980167040553035,0.4
17,1.8682725361053,2.68364024162292,-0.994241375117532,-1.56717035896797,1.8682725361053,0.0023973749257601,-0.0003349678470416,0.0024206631308827,-0.0556611500674529,-0.133371858342291,0.147021127914,0.0094843831301708,0.135806838833128,0.136387810231908,15.4330395611737,0.245246152908604,1,14.2376180562753,3.06357686603061,0,0.0905624366488279,0.172102823499791,0.125850274901952,1.14787216492761,0.938425462942526,0.0879660573006284,0.390227535057779,0.151176409268089,0.284393853365781,0.0241139323031533,0.0152919526514535,,,,,1.96200270211122,-122.666388364578,2.39564335532387,HoldLanding,HoldLanding,0,0.525483571674461,0.183901521982128,0.126618926490197,0.939624632844992,0.332810484769738
18,2.03776525522207,2.96762847900391,-1.10121119937234,-1.6780954149023,2.03776525522207,0.0008064393414055,-0.0113689184983568,0.0113974844695505,-0.0714229061300468,-0.146079357266935,0.169495334720769,0.0109363256336638,0.211367608869546,0.212207567176226,15.4088928923365,0.126193040414462,0,15.0892886452841,5.30198460537459,1,0.161888640215427,0.170251183083665,0.262137386223658,1.19318908071552,1.16447554899986,0.0672612400854284,0.251647475203136,0.216225443007449,0.417782199575656,0.0264723648574565,0.0167119846136036,,,,,2.01539435512142,-123.830694564799,2.05547630788623,HoldLanding,HoldLanding,0,0.585845581494465,0.21130876417033,0.144627839308439,0.947844872152379,0.303899803107801
19,2.62223472164626,3.0,-0.831196656163492,-2.45533002660363,2.62223472164626,0.0088056683339519,0.0030793816847541,0.0093285790111872,-0.0443185593901043,-0.313775148837771,0.319030986971312,0.0205800909596441,0.19631098198043,0.198769018485027,15.3920462892817,0.208457386267605,0,8.11637783241944,6.04318532208527,0,0.173339427371182,0.11937111013874,0.130540727188509,0.999449458706628,0.908385980926939,0.0238119502223655,0.0912283915192173,0.188640981682322,0.319198568244297,0.0030945001294613,0.0050124679794832,,,,,3.0,-107.357187901088,1.60488816472321,AttemptLanding,AttemptLanding,1,0.739016396136008,0.0867074271149756,0.0552225052887601,0.973103889291696,0.316159563696746
20,1.73279325919108,2.43631863594055,-0.849728676627962,-1.49653831651498,1.73279325919108,0.0023565869201092,0.0034228011144995,0.0041556069811098,-0.0407772686269658,-0.116084385337578,0.124672544663285,0.0080422073559935,0.121140705000444,0.121823368731885,15.385576910764,0.275603219849878,1,11.8597713901449,7.62203660534341,0,0.138435013292748,0.058484563343462,0.259425099279535,0.612433030433719,0.934601064418047,0.0489184781728576,0.250153322396357,0.243265100865147,0.334496502958164,0.0249121245231918,0.0186513622212832,,,,,1.75292430226957,-119.550273636708,1.57285910558809,HoldLanding,HoldLanding,0,0.486442876197333,0.159055071048501,0.113287411507753,0.96338549302545,0.291882177393268
21,1.82364382577497,2.66184973716736,-0.953972575257391,-1.53356046885179,1.82364382577497,0.0041153042627714,0.001951482775274,0.0045545597149863,-0.0516246840503696,-0.125041261564368,0.138636407943289,0.0089461028132444,0.149498773009457,0.150201886677139,15.3972547748109,0.237215834586316,0,14.4559163487001,8.83570431489258,1,0.164286202255873,0.0895585500654908,0.100167905949044,0.852409570264641,1.5235479694458,0.075292728381707,0.250983918562505,0.171203241907508,0.50679040353872,0.024637901306539,0.0173150125676583,,,,,1.82710314960735,-122.310740141076,2.31577583462622,HoldLanding,HoldLanding,0,0.516345397542086,0.189431332677702,0.130905346171504,0.943685397997136,0.32390967026333
22,2.61143498197447,3.0,-0.657914393779218,-2.49428205753586,2.61143498197447,0.0067090727773671,0.0050486989617767,0.0083964884766582,-0.0316619734015563,-0.324450841973001,0.327309219482917,0.021116293304434,0.199917587417232,0.202453435309581,15.4461723661534,0.183209742350182,0,14.0694386664725,4.43565609836728,0,0.120752037706793,0.0465313060144039,0.217428509958811,1.02445457106561,1.28222969544204,0.0465876642561176,0.174228991981839,0.0856436052760169,0.272305135002892,0.0027335109580687,0.0053056596847478,,,,,3.0,-103.513196987454,2.38291431538863,AttemptLanding,AttemptLanding,1,0.736873348921775,0.0889664852764647,0.0565241157194742,0.958582220063667,0.361936175432881
23,1.90301055446748,2.64088296890259,-1.06310212909205,-1.56215179734987,1.90301055446748,-0.0038732948047639,-0.0098894330981259,0.010620889776611,-0.0603575605239474,-0.123648759219355,0.14053826415482,0.009066692941336,0.134339934459047,0.135059976117006,15.399957356899,0.314010344564728,1,15.2339133607026,8.23649232766287,1,0.105400839339998,0.160127328554256,0.221273487808914,1.02418807851076,1.19526910621848,0.0684797757972604,0.250688095138736,0.171600884477734,0.416594535021533,0.0248783011159534,0.0160272816486857,,,,,1.88087930278733,-124.632218690049,2.12159069309861,HoldLanding,HoldLanding,0,0.534481476414729,0.167968456373612,0.117666198960072,0.94832151993564,0.323732940232118
24,2.67097976574531,3.0,-0.6868320856083,-2.54643033933896,2.67097976574531,-0.027376123176313,-0.0056489194986159,0.0279528605274399,-0.0320582659166785,-0.33478938958787,0.337757116574829,0.0217952446257481,0.203294016614104,0.205287437201077,15.4065464718589,0.262081535977415,0,9.51192526538613,7.78595721082099,1,0.0834771483898029,0.118050801191666,0.247983516919626,1.18905465496002,1.20218068119344,0.0759168652256168,0.252043030670594,0.162211413177162,0.498252926020894,0.0250534786677087,0.0172081514679675,,,,,3.0,-103.635733958443,2.14616523200162,HoldLanding,HoldLanding,0,0.753318758305631,0.0791542438040026,0.0648849353149875,0.943253289745986,0.327906038587928
25,1.73759804837357,2.57218289375305,-0.982700261819713,-1.40880491103313,1.73759804837357,0.0023021936770728,-0.0038112636754517,0.0044526201871001,-0.0547237353383287,-0.102355739612752,0.120071954234299,0.0077541147434597,0.145935886668823,0.146591834122226,15.2599511153697,0.204495070099379,0,15.697360245349,3.59938506451886,0,0.152049426443376,0.100994573841883,0.267340615681767,1.86311635342513,0.889338746880139,0.0694180442852216,0.248920371562011,0.183007982414932,0.520871790321238,0.0243494650917943,0.0154866185923038,,,,,1.76072715108059,-125.424728650442,2.05553931294407,HoldLanding,HoldLanding,0,0.492677846390731,0.188597903911351,0.129612224501981,0.943664544926419,0.318663118926697
26,1.83583112066007,2.61200261116028,-1.06480369256007,-1.47934585999359,1.83583112066007,0.0021475943995832,-0.0019612795634232,0.0029083980523688,-0.061844293728083,-0.115877268765034,0.134191038811326,0.0086569623702129,0.138186331557788,0.139172031891241,15.4076790086686,0.199978340324664,0,15.6486529782273,7.5451161948434,0,0.128371100198916,0.0605797983071665,0.243021595042158,0.611345323322587,1.26801309700635,0.0253774013619599,0.107180705948736,0.213285636500574,0.35486404518399,0.0031567530284959,0.0049344145803678,,,,,1.88801056126119,-124.747033688317,1.64483044911708,AttemptLanding,AttemptLanding,1,0.517389371887601,0.175171791672147,0.108300408923966,0.972544911730721,0.305206383777523
27,1.86573032956374,2.72776412963867,-0.965516483857896,-1.5749069946245,1.86573032956374,0.004603880973003,0.0029567231821727,0.0054715566331326,-0.053363674998308,-0.131351665146585,0.145238476934144,0.0093720386023279,0.157578011140093,0.15837066624718,15.3831489990872,0.277323396975132,1,6.02810531950326,7.35053850879345,1,0.122640356766914,0.102236250272696,0.148297090776319,0.822756655692121,1.45377942662032,0.0755861987388225,0.252552489517731,0.148399680234693,0.419179627141034,0.0242749814098959,0.0153522931915897,,,,,1.88786131788593,-121.743469379942,2.34531618942689,HoldLanding,HoldLanding,0,0.529202221133101,0.194960723732933,0.133347966936049,0.94431983141242,0.334044586562359
28,1.93933351195377,2.64000701904297,-0.984401467562984,-1.65548285053322,1.93933351195377,-0.0028980775757663,-0.0113823734819737,0.011745521687788,-0.052488318552832,-0.136726562631282,0.148745510228299,0.0096020426719602,0.132212064338562,0.132989264426164,15.3356551965107,0.144873459291106,0,14.8289906876172,6.50164105258752,1,0.16086387157324,0.0889010340663803,0.10535053630035,1.75493826293349,0.9150519201373,0.0665478891615038,0.250518540613487,0.185566202767122,0.506609943694501,0.0254768921671883,0.0160606632132926,,,,,1.93366507970541,-121.303703794887,2.03556648406489,HoldLanding,HoldLanding,0,0.543753456072904,0.159804884737831,0.113046235196586,0.945747561123692,0.317526132103501
29,2.63263064443467,3.0,-0.570670970445527,-2.53928581444623,2.63263064443467,0.007784091235647,0.0021253010719231,0.0080690136331025,-0.0255067869736998,-0.335013759238601,0.336901270390042,0.0217407028033593,0.190492416496412,0.193158444282462,15.387857064238,0.287647471113756,0,11.5470966981642,7.05928370984178,1,0.058508615671794,0.118620955360893,0.244444767592665,1.04970548994655,1.36378017189876,0.0219986549199556,0.091856279239207,0.221447609507704,0.452319044304315,0.003095176948371,0.0049932662192088,,,,,3.0,-101.47367915972,1.55788015365478,AttemptLanding,AttemptLanding,1,0.740666527372404,0.084137424168268,0.0536738218708582,0.970037570911238,0.301578840218798
30,1.93074962938986,2.74379467964172,-0.867084682127178,-1.70240122623678,1.93074962938986,0.0020901212580091,-0.0112900207070943,0.0114818628471081,-0.0435631229897294,-0.146738532629343,0.155795908025872,0.0100571081929765,0.158965756678793,0.15976578998802,15.3447343031099,0.26583481866042,1,13.8485561443419,3.03408943920517,1,0.117877763214254,0.177445144178499,0.140706100509373,1.37137310276011,1.21611941095393,0.0699648364276138,0.252081864573279,0.181276799142417,0.472309244532497,0.0245967855652647,0.0166808216644053,,,,,1.90418233211605,-117.468545924201,2.15470690874648,HoldLanding,HoldLanding,0,0.546819725834899,0.185040144495307,0.128021744725368,0.944687283464154,0.319432533714481
31,1.94560228694569,2.62331485748291,-0.991255140983551,-1.6596146360577,1.94560228694569,0.0022826544588767,0.0023795609432695,0.0032973961941755,-0.0541820922571352,-0.143016512629102,0.155127855752863,0.0100077235557475,0.13351508073764,0.134312079683759,15.3721351450924,0.298466143974047,1,11.0915889384329,3.65071427980797,0,0.052674053950778,0.0526836781849487,0.076808674334433,1.02034677332635,0.745112765611277,0.0741089200093224,0.27862773023082,0.0857565585581892,0.444058346604435,0.0535468411592437,0.0735701067335042,,,,,1.95361636761473,-120.978689808246,1.93708721719404,HoldLanding,HoldLanding,0,0.545689692455603,0.153089851006473,0.14240527275957,0.9490740721894,0.361885973974138
32,2.50695127392143,3.0,-0.541852131059753,-2.41561756663886,2.50695127392143,0.0065351895614711,-0.0020862316393402,0.0068601067817743,-0.0245614007688754,-0.318485153883923,0.320559012395291,0.0206734262993559,0.194514830130433,0.196485325464111,15.4562989519205,0.281264220583382,0,8.67819307719781,9.3833862435394,0,0.134052997453668,0.134072694807444,0.0840734425546323,0.985878128209969,0.46881272658465,0.0326208871444785,0.174929997814879,0.251112578483114,0.27608870303457,0.0220811987059651,0.033607929037169,,,,,3.0,-103.063417072898,1.66325058702486,AttemptLanding,AttemptLanding,1,0.707817404805203,0.112193649611004,0.0893511209625674,0.97225984256866,0.28839440956306
33,1.83086835506648,2.66943407058716,-0.84936635727612,-1.60038957157455,1.83086835506648,-0.0004783321426897,-0.0071254301840645,0.0071414674225055,-0.0417723826256751,-0.131955140763789,0.141167414231062,0.009109503033964,0.149306854405328,0.15001166117326,15.3714380775384,0.324972961278857,1,4.91058664073188,8.99413865239771,1,0.116557868793141,0.166027028351182,0.0935250725124778,0.872209581927014,1.45070501272505,0.0688648477378623,0.25094353109022,0.17023496363946,0.501361486167607,0.0243807745971777,0.0171606869071181,,,,,1.82477587595629,-118.302001637458,2.1178678304136,HoldLanding,HoldLanding,0,0.518233893585713,0.189986555019612,0.131068082617142,0.947316104315945,0.32434001616024
34,2.64929886073721,3.0,-0.59393508646702,-2.54425092960324,2.64929886073721,-0.0175206611776805,-0.0052599630848794,0.0182931894364371,-0.025576922222451,-0.331658245512212,0.333826584607442,0.0215331920354082,0.20326308677364,0.205499003322589,15.3825806807203,0.247397105854373,0,6.25871420455822,6.13730186234836,0,0.0716312119649315,0.171779247907505,0.20244230743229,1.04514226400537,0.69296029256001,0.0513642730857303,0.300356938367087,0.254326752369999,0.300759229816347,0.0244118756078795,0.0168958912370907,,,,,2.95266872258167,-101.961285859905,1.5,HoldLanding,HoldLanding,0,0.747579496861107,0.0822615077308075,0.0663505875807266,0.960661343369835,0.286965887835556
35,1.96972167491913,2.72541117668152,-0.93068153371915,-1.72030547448821,1.96972167491913,-0.0013319589734571,-0.0079829737545126,0.0080933296406491,-0.0478939855217003,-0.149575303465286,0.159169860314671,0.0102694188092582,0.137272577303679,0.138126834863836,15.4011851564424,0.134636660171038,0,15.456322526073,9.77022394281087,1,0.0894646773215931,0.143744146233722,0.0799858608039397,0.937544428165158,1.08377212022881,0.0625848498456081,0.251357568606417,0.138386750769069,0.407211948985434,0.0248035152805302,0.0173058357774248,,,,,1.95785632669367,-118.543232805973,1.94485809339035,HoldLanding,HoldLanding,0,0.552884480284535,0.171513914997323,0.120225164759309,0.952825802196958,0.338494777435969
36,1.76814148956318,2.52693390846252,-0.870460241816343,-1.5190366234735,1.76814148956318,0.0070328604496043,0.0030688402771821,0.0076732592000052,-0.0427944362026311,-0.122281601789111,0.132113075119139,0.0085259224984056,0.148575056031215,0.149599642752129,15.3888877837538,0.216827610514246,0,15.2772955265953,3.9618731136871,0,0.0328782466201424,0.163914614927742,0.12194572920519,0.637585332265308,1.51428505641615,0.0249088277553954,0.0925519384770418,0.218705746711015,0.358693360496532,0.0031913815855765,0.0046963993880527,,,,,1.80194750046987,-118.644695572194,1.61094460452223,AttemptLanding,AttemptLanding,1,0.501424325767274,0.17213505843902,0.106407208474879,0.970638033068376,0.302797445906216
37,1.96380432123666,2.68183445930481,-0.812224609385862,-1.77317968628142,1.96380432123666,-0.003083391053156,-0.0073793163769389,0.0079976003011929,-0.0370355330248497,-0.158473849011988,0.164202929755473,0.0105899790119876,0.134795809427792,0.135699958446665,15.4120412160701,0.211922210287398,1,10.3324438663623,7.95880829462796,0,0.0389065282626504,0.0468210594007143,0.244423858863899,0.712352349553258,0.667180658921492,0.0593043401542926,0.253831520711356,0.0637844241617964,0.36060730687891,0.0243389956594396,0.0176561624872215,,,,,1.94925992751377,-115.036005485037,1.84697837132781,HoldLanding,HoldLanding,0,0.55082114401911,0.163023007787218,0.115051558799152,0.959508641999124,0.371651367039202
38,1.95980916420619,2.92180848121643,-0.741784966100948,-1.79133426531376,1.95980916420619,0.003479959773846,-0.0020738760845584,0.0040510593727677,-0.0341355838138696,-0.166085180774991,0.171474124643375,0.0110676356993343,0.155094431105651,0.156004806955002,15.3834558850819,0.269330263175596,0,10.1736599016722,8.57765240723915,0,0.076243443081414,0.0789259181084274,0.171431348821068,1.35328015613864,1.16626015990762,0.068383077301005,0.250432183629186,0.119953355250525,0.387504460548974,0.0248475876637773,0.0175564342146301,,,,,1.95556734378663,-113.09173062844,2.08782611434247,HoldLanding,HoldLanding,0,0.55381673851265,0.217192540545646,0.147743054518629,0.946012073151991,0.346687397666433
39,2.6152816863363,3.0,-0.551930700510095,-2.52089569685209,2.6152816863363,0.0063750229646801,0.0070856587181256,0.0095313942983148,-0.0256488808224007,-0.330822182566338,0.332840542698686,0.0215213999361197,0.199243989402533,0.201798554534252,15.2118730753555,0.212316999271451,0,7.32313819642589,8.30767773482926,0,0.0767191008665451,0.0611014364539434,0.101023833700633,3.03239463998074,0.918220575252563,0.0425907640874902,0.136608076534586,0.224514004371544,0.593882079873899,9.41373801626393e-13,0.0245016367244983,,,,,2.97839668406099,-100.746107780264,2.02292226292627,AttemptLanding,AttemptLanding,1,0.737768160596531,0.0883090428623567,0.0618951117994682,0.947664069836565,0.300215998057091
40,2.11675385820786,2.93746638298035,-0.357047767823261,-2.07080915357743,2.11675385820786,0.0002634470986046,0.000611166758617,0.0006655292484945,-0.0109348039323231,-0.221545749084726,0.222075752185762,0.0143248058380486,0.152228536200852,0.15349836052151,15.4035175983916,0.251516049883642,0,6.50151917489208,6.73242284513641,1,0.134598448612136,0.162292452426663,0.199334715258888,0.881743035404195,0.738443299034586,0.0514564760252994,0.251295759183036,0.242564263505112,0.423844404983088,0.0242362730252711,0.0177622323236943,,,,,2.14315727359721,-99.704949465741,1.63635609968751,HoldLanding,HoldLanding,0,0.595167367626397,0.184782331769368,0.128100069533994,0.961541726502474,0.292193660664395
41,2.06491324959094,2.93750262260437,-0.329065809717236,-2.0223902780434,2.06491324959094,0.0031254036039436,-0.0046876975586878,0.0056340621304057,-0.0097820265485429,-0.207600788170607,0.208072574709578,0.0134223016644196,0.141794230324879,0.142976025407399,15.403822113388,0.273141227904961,0,10.1028945838955,8.14046618420742,0,0.0464378470955263,0.0693684145396208,0.095525688087175,0.849722944295542,0.772436466147338,0.059863564590817,0.251995698275833,0.076135369493595,0.415650339173654,0.0248581512170269,0.0166801984410361,,,,,2.06610024186884,-99.4944295849637,1.87284490156223,HoldLanding,HoldLanding,0,0.579238738305731,0.197365520318596,0.135532906104556,0.957322679479683,0.366162058002847
42,2.62348143312843,3.0,-0.703936033963085,-2.49578587934635,2.62348143312843,0.00782365043112,0.0036104861826964,0.0086165605982785,-0.0342885183732841,-0.324325198342483,0.327575560630341,0.0211427306186312,0.193063787203683,0.195741595897755,15.3993693388847,0.284508592769249,0,12.9190404693623,5.15243140820227,1,0.0918807953314862,0.12487025050473,0.12206806003583,1.24530715803573,1.51027699464139,0.0444482083598419,0.177355785498082,0.15034210613233,0.481031442229224,0.001337798578177,0.0072930546755306,,,,,3.0,-104.488379335247,2.30430451932925,AttemptLanding,AttemptLanding,1,0.7387433680138,0.0862963803224535,0.0550244252213397,0.956124877477616,0.333181286163409
43,1.89874803890353,2.69362235069275,-0.281520622826985,-1.86353872924711,1.89874803890353,0.0029735526082384,-0.0062085871445226,0.0068839356072738,-0.0073918640560256,-0.177951056942264,0.178271415233541,0.011502069218012,0.138179498584879,0.139156746261075,15.4031949894043,0.30693730098129,1,5.77116484540039,3.45110634208932,0,0.0548532043760494,0.117726070650618,0.197191946529193,1.08221751123095,0.76007448460322,0.0635814085978462,0.249608874855936,0.108584008722259,0.399734140859193,0.0246318167977095,0.0166084141486673,,,,,1.89634686321448,-99.0299435298773,1.98137584005232,HoldLanding,HoldLanding,0,0.534164159626489,0.180108775013909,0.125052162467449,0.953734144305237,0.351740440567885
44,2.62850098609924,3.0,-0.675784568148683,-2.5016611548693,2.62850098609924,-0.0277311695930832,-0.0105209717598703,0.0296598822278904,-0.0313300361486999,-0.321312479114848,0.324355965433267,0.0209448746031673,0.21313300565783,0.215014959094919,15.2348014399564,0.146590292873405,0,15.8452260906556,6.74514114137767,0,0.0761077570831562,0.0630705644411011,0.0570891684858,2.01820597618972,0.775591532358987,0.076692220438641,0.249734358708623,0.178985064268073,0.538446201782018,0.0245281964145041,0.0171982932395782,,,,,2.84909439858493,-103.288186023973,2.02888121509215,HoldLanding,HoldLanding,0,0.743936588112115,0.0890249232027836,0.0705702993647307,0.939702623642082,0.320451082547523
45,1.76750940763498,2.52506875991821,-0.245144388176984,-1.73846388313766,1.76750940763498,0.0038483503488371,0.0066619426191796,0.0076935869312459,-0.0057500057841241,-0.160493129870678,0.160728203320989,0.010371020026757,0.120788012810694,0.121654092414369,15.4015020816941,0.222981547182538,0,7.3274517781445,6.1904329372042,0,0.0427985719595706,0.0503547560513929,0.22670985336394,0.723479281126754,1.36889526779112,0.0756269785126839,0.250528763905994,0.0980352021691494,0.408370738591719,0.0245281736149146,0.0175752650032426,,,,,1.79227934712189,-98.4873526901086,2.33624924963559,HoldLanding,HoldLanding,0,0.495666660518868,0.171861345201123,0.120409223071916,0.94574642500216,0.356428799035934
46,1.85320997437506,2.69369387626648,-0.262785219916853,-1.81632143252602,1.85320997437506,0.0055735227885742,0.0053269801799027,0.0077097907955944,-0.0071824075505183,-0.174244543540508,0.174583634004581,0.0112688133436069,0.153228649866685,0.154640586027091,15.3999701023995,0.254171829822139,1,6.60676840342586,4.84698804735998,0,0.13745453649945,0.17992197730272,0.19852882439169,0.737919511053249,1.92699573953153,0.0500116782152526,0.172315474761426,0.111582011583662,0.362844761614527,0.0019473449538076,0.0065178783787608,,,,,1.88430874295808,-96.6306497925403,2.46479064247662,AttemptLanding,AttemptLanding,1,0.525117443705434,0.190522339571429,0.117549027981271,0.95405554106635,0.350407994851706
47,1.7918684097743,2.56762766838074,-0.175317435847791,-1.7703456104879,1.7918684097743,8.61015777260145e-06,0.0010485371152703,0.0010485724662208,-0.0040010303190149,-0.161898950221994,0.162029385860087,0.0104495523207124,0.126042856522606,0.126803721625115,15.4256520000908,0.280970177524263,0,5.40751297507504,4.86074258268369,0,0.0587590289972617,0.0540472796962214,0.250825133684248,0.910750002842391,0.279179061338166,0.0692539958436489,0.297545532474662,0.0572652593023408,0.112890720874682,0.0611555430753285,0.0771278130446695,,,,,1.7942306129035,-95.9383136609595,1.95886354953611,HoldLanding,HoldLanding,0,0.503192320264836,0.174738071471922,0.160069561720755,0.956023559431043,0.374548773643404
48,1.70308839041611,2.63910102844238,-0.244045522952495,-1.6729082594495,1.70308839041611,0.0086638922179445,0.0020222285707256,0.008896765522167,-0.0060701244512602,-0.150723891002894,0.15097274323891,0.0097387232979831,0.122861400752565,0.123476222649823,15.2979766200927,0.152524753657214,0,10.5135529400949,6.84248147990019,1,0.0944367541141525,0.129507366394319,0.117796178294912,0.703478375386941,0.777609795385824,0.0643936301123184,0.30865083538395,0.277599576190924,0.462777195697246,0.0243320232831178,0.0176845151334044,,,,,1.77505847970161,-98.1997036075808,1.6256177958897,HoldLanding,HoldLanding,0,0.478852148640928,0.212233917234975,0.144585315687043,0.956166063602055,0.276622410581812
49,2.62612840004988,3.0,-0.65043018867245,-2.51104762223014,2.62612840004988,0.0068507408417798,0.0042116628764159,0.0080418128718474,-0.0311192027892523,-0.328313966536814,0.33109422981458,0.021372233703759,0.195912934076306,0.198432279962515,15.3851600886746,0.143410470156635,0,11.1694001540892,4.10712630213556,0,0.0300607695236833,0.103507070374051,0.101016981476576,1.04738019829807,1.62349490618726,0.0332763229476305,0.110231396227402,0.145814886266274,0.428331546164208,0.0030261335934597,0.0048581160824995,,,,,3.0,-103.17867703994,1.95200482178552,AttemptLanding,AttemptLanding,1,0.739987362672471,0.0855954423486158,0.0544688013392928,0.962376391276657,0.335193383881656
50,1.82284447486266,2.47671604156494,-0.180696255202068,-1.80047425441174,1.82284447486266,0.0030600718541076,-0.005964503427927,0.0067036811450169,-0.0043883241109043,-0.165742396905131,0.165890735031663,0.0107018643170357,0.125002330510368,0.125878858262892,15.4324028930607,0.156476250838455,0,10.0142167510503,4.3848560557749,1,0.0570951480966054,0.0591235803780199,0.273739475789323,1.36532400806711,0.56915792647408,0.06680479505173,0.252241979507677,0.11179325774732,0.346869671496675,0.0242059006864492,0.0151709509266949,,,,,1.82096079078944,-96.2053882192846,2.06541167217915,HoldLanding,HoldLanding,0,0.511267631615955,0.148350110717932,0.105284953941515,0.951398101559883,0.350314107667858
51,1.82452395235499,2.73205471038818,-0.123248018875995,-1.80173176125037,1.82452395235499,7.3919321678103e-05,0.0065454153668556,0.0065458327499858,-0.003302683680547,-0.172791705663499,0.172934288764243,0.0111574386906107,0.153208375523718,0.15417093280424,15.4134761752528,0.229851990299194,1,5.09847057340347,5.94428456844095,0,0.15484710522854,0.104792144377744,0.0598411060647694,0.76624949421208,1.28003938281782,0.0804379120202992,0.251320487308166,0.0937541191417923,0.398014224341784,0.0244341465562716,0.014056912404253,,,,,1.8507515569247,-93.8235592237573,2.49691036802836,HoldLanding,HoldLanding,0,0.517373907188844,0.205394489894967,0.139207919139294,0.943703059956044,0.358331502603648
52,2.52633830097607,3.0,-0.5363352864361,-2.43667629131759,2.52633830097607,0.0041619038417633,0.0064008992562356,0.0076349823101669,-0.0239170116014824,-0.311547088591589,0.313347108760058,0.0202175563713497,0.207044312522147,0.209526271509456,15.4207817852389,0.284478194350252,0,15.6769374851328,4.02028451874951,0,0.062169184105522,0.0461778819161683,0.111904588112212,1.21613757620629,1.19483498010809,0.0394031140105887,0.144371476000959,0.104478324386614,0.385847344159961,0.0016063485240718,0.0086110050599778,,,,,2.77719317437895,-100.961436075895,2.13885232154547,AttemptLanding,AttemptLanding,1,0.715595467895509,0.107973629037249,0.0686293846669792,0.961355087195093,0.353565189161505
53,1.81245336618299,2.59609222412109,-0.106599489422041,-1.79005646236581,1.81245336618299,0.0035784753223624,-0.0106984435836805,0.0112810540618309,-0.0031857637423761,-0.161188114557455,0.161318285286625,0.0104052611085568,0.143900120415152,0.144813867390418,15.4029796540601,0.209127221470327,1,8.349630017245,6.30172023605045,0,0.0647050295001176,0.0472078050409651,0.148136776103296,0.978944794669952,0.575007832847742,0.0633136001990896,0.253367917346054,0.0855380191213074,0.355642139977106,0.0248661230957901,0.0177529481976157,,,,,1.7823160694897,-93.8829963932827,1.96028307604344,HoldLanding,HoldLanding,0,0.51228367112688,0.178386936280743,0.124539389559647,0.956133572112816,0.361983102612752
54,2.61893115598376,3.0,-0.575391217314049,-2.51879967921388,2.61893115598376,-0.0299369805337419,-0.0096298411696686,0.0314476810660292,-0.0234297251551865,-0.326484958297058,0.328274038249,0.0211895598456932,0.207259237852763,0.209369742654063,15.3690071132148,0.233110136757258,0,12.9320677540276,4.28737993466679,0,0.121219751961457,0.109196671840171,0.0674320984657921,1.039115346651,1.46910923885635,0.0651710440844749,0.249902204647711,0.235255477290196,0.455214637024254,0.024239734954002,0.0159315767885833,,,,,2.84178461070235,-101.224141607748,1.84143010274097,HoldLanding,HoldLanding,0,0.740255590126483,0.0915058980990917,0.0714700550449609,0.947706999071633,0.295442010093246
55,1.82718683236482,2.64440894126892,-0.0840357253192665,-1.80451087163591,1.82718683236482,0.0064993442269003,-0.0089243951836233,0.0110402130764412,-0.0030663891386378,-0.164806851090462,0.164927597359958,0.0106401776176276,0.148820923022472,0.149766098110876,15.3806165476514,0.191743820119978,0,5.7545756260281,6.51997325783147,1,0.106062708225693,0.123203298381801,0.261970736712499,0.745352564284032,0.917661240873448,0.0573321236015673,0.254350086500184,0.172914960260352,0.514803069724691,0.0247834007542426,0.0149406420335789,,,,,1.81268753267023,-93.1526665262232,1.80440802319634,HoldLanding,HoldLanding,0,0.517203041586128,0.185899013567437,0.127987213659609,0.958267401158693,0.323148906550955
56,1.69255083520277,2.68142652511597,-0.236168642060529,-1.65458239233068,1.69255083520277,0.0034448917816311,0.0051625444379557,0.0062063793358944,-0.0068172637207215,-0.147821249454824,0.148193190110033,0.0095668700506567,0.175193438561054,0.176415626661116,15.3218240569529,0.208527953568456,1,10.1181677364688,5.88661036809327,0,0.117042896655852,0.0988139504573555,0.213214387366329,1.580498221151,1.29588516192731,0.0436962231808466,0.158248696455685,0.13318211157454,0.385814247444745,2.19166836863627e-08,0.0160076822766792,,,,,1.7288427871229,-96.8513027264581,2.23526616248177,AttemptLanding,AttemptLanding,1,0.486630014719628,0.22363486644205,0.140001904979316,0.955551733256819,0.340807950411316
57,1.80404649037187,2.52154684066772,-0.14808366809118,-1.78518935283228,1.80404649037187,0.0025456417329256,-0.0029750096027393,0.0039154787662307,-0.0034424910404283,-0.165135907687835,0.165243550717425,0.0106724698775977,0.12525522852954,0.126176010552464,15.1779760300759,0.248387981325757,0,5.53689730388086,7.37405336723948,0,0.0516985991568655,0.168065529106415,0.215159503888242,2.14756811286363,0.89057767232036,0.0730487197922113,0.249950962161912,0.18604466188536,0.622282426162801,0.0244239251389629,0.0183128800637775,,,,,1.80912450321235,-94.8944011061714,2.18274734583701,HoldLanding,HoldLanding,0,0.506314266209658,0.162155416590377,0.114807556907866,0.939604494648877,0.317313483606507
58,1.62090588463899,2.42027282714844,-0.0764844803634289,-1.6036341795639,1.62090588463899,0.0013244905015095,0.0103011030374129,0.0103859038545515,-0.0018114113035718,-0.139116160381015,0.139193981011027,0.0089779812616258,0.136612577108858,0.13733336699472,15.4431224472093,0.249200178277032,0,7.48228514217974,5.06455864172739,1,0.0907620199121921,0.0637877205662907,0.117973583267954,0.69381822890992,1.00590921648057,0.0802929903832078,0.252971601579733,0.114417061347417,0.312553638751804,0.0245061957045547,0.0165443064655355,,,,,1.65786584843096,-92.9146212669234,2.45298657356689,HoldLanding,HoldLanding,0,0.459708242636008,0.18176164443796,0.125964740640147,0.946498503451756,0.349147972734481
59,2.62095784662559,3.0,-0.651027719705009,-2.50409511292047,2.62095784662559,0.007264541038016,0.0054031494423553,0.0090535948876369,-0.0316167334366847,-0.326064783094098,0.328979867652199,0.0212251902119055,0.197481867760452,0.200087278147315,15.4064116884988,0.156561137564706,0,4.7424728194534,9.70320901264043,0,0.0667398761081514,0.108274649368886,0.0577046324519425,1.28261879537548,0.949203549537002,0.0315567084266647,0.123888384267874,0.116172867734544,0.39241159145184,0.0013268611585888,0.0105293689255255,,,,,3.0,-103.288913453806,1.8780586817925,AttemptLanding,AttemptLanding,1,0.738939548062954,0.0869443102386417,0.0565851636411328,0.966685898790927,0.348367614340203
60,1.58836376161679,2.34335470199585,-0.113673124780282,-1.56923826473033,1.58836376161679,0.0014470779693542,-0.0072791195445629,0.0074215642551573,-0.0027026518811254,-0.125090331132061,0.12519681589099,0.008081689016042,0.125833934619695,0.126533863989302,15.2468777607543,0.194052592152634,0,7.0118791854932,9.33726603833752,0,0.0556613741125736,0.0674559199514208,0.0636165094898419,1.71537531621851,0.470402831396453,0.0676279818671335,0.248821960166377,0.143801184093184,0.552987427991341,0.0247833075169675,0.0187352117438398,,,,,1.57454882872326,-94.5469327829021,2.02895676967239,HoldLanding,HoldLanding,0,0.448870442562338,0.171233581698734,0.120567756630602,0.949012037906601,0.336088362625251
61,1.61855533284179,2.39560437202454,-0.0906895999848089,-1.60443757048513,1.61855533284179,0.0021244159045186,-0.0024365060352898,0.0032326002838853,-0.0019185955016206,-0.132731186504083,0.132786921720681,0.0085675909132721,0.11421610255613,0.11495200869735,15.40092823443,0.266575797335634,0,14.1081189801549,8.63647892387759,0,0.111476438901037,0.167519566640372,0.201283189102174,1.27875678222607,0.801423955407613,0.0695794828275537,0.251275081167942,0.11361437223831,0.379216332311325,0.0248330752245574,0.0147204970611128,,,,,1.61762345460285,-93.6644143083513,2.15419690813306,HoldLanding,HoldLanding,0,0.454605157163948,0.175428677201497,0.121647036665146,0.948865981361959,0.34950472344964
62,2.65386227860644,3.0,-0.548706748697448,-2.56305517440389,2.65386227860644,-0.0113261667466938,-0.0158555147298948,0.0194853637513859,-0.0250510351419829,-0.34124674087615,0.343053116637427,0.0221306225160212,0.195528453338507,0.19827562329206,15.409614859235,0.33468117766058,1,6.13774783263594,9.73229981639686,1,0.0656294147610714,0.127551315502909,0.278539829253221,1.11398615084466,0.970361336764016,0.0375471338619093,0.128297164095832,0.137638673863542,0.387786257005365,0.0010696398730405,0.0054989878030563,,,,,2.97152933216033,-100.613250726234,2.04932529248666,AttemptLanding,AttemptLanding,1,0.747351732286796,0.0814533040013049,0.0513470098282962,0.964849417094977,0.938827256060648
63,1.53817779697398,2.32807540893555,-0.109048838088992,-1.52411725619438,1.53817779697398,0.0052190444726167,-0.0006642052626643,0.0052611399751481,-0.0020917671001339,-0.125195562896601,0.125251814661401,0.0080778629104864,0.117802370314473,0.118261829293266,15.4008919493185,0.156709606200674,0,15.624998829233,7.29450151897375,0,0.0362844029719297,0.121894547284296,0.228524971290293,0.798124605930351,0.375946397488493,0.0447986429356212,0.337447123407516,0.237027371043528,0.303518684758839,0.0109387638865105,0.007925777947698,,,,,1.62156253992994,-93.9354210374525,1.68115044567235,HoldLanding,HoldLanding,0,0.43383311171838,0.17869150502013,0.114958676922418,0.968375834933898,0.294654501758432
64,2.59685008153848,3.0,-0.418461269906304,-2.5307513792132,2.59685008153848,-0.0149011716262804,0.0072934165880817,0.0165903237268948,-0.0182494434770956,-0.341039739754,0.342136344237317,0.0220784139858264,0.207389499601553,0.209465965119885,15.4085645741934,0.223656637458447,0,5.97387555141863,4.76077561158925,0,0.154427418853725,0.0926190085407735,0.259988759298684,1.04067678073815,1.42442723673056,0.0834483781893352,0.251043981566831,0.112633135092365,0.395012741817068,0.0241478717938806,0.0175825889775833,,,,,2.94853364793101,-98.1270015879143,2.32856566051802,HoldLanding,HoldLanding,0,0.734386548100904,0.0937502910037733,0.0733762307853321,0.938907136482364,0.349940828847838
65,1.73129994436935,2.38943147659302,-0.0302261658999663,-1.71863119214361,1.73129994436935,0.0029102144508564,-0.0066908539578086,0.0072963603827317,-0.0009081565780212,-0.149487717023036,0.149521503274658,0.0096434651476983,0.116981538337981,0.117862114406947,15.3985483955397,0.27190554342253,0,11.5527274148704,4.69703205175269,0,0.163484894977109,0.0610444228157918,0.26104160090908,0.714277180209087,0.597928544497769,0.0588019437548154,0.250212317739666,0.0650151048568324,0.381474692161163,0.0246047052412835,0.015698811208303,,,,,1.70415838852487,-91.4034471635259,1.84735406660002,HoldLanding,HoldLanding,0,0.485252408046549,0.149417260820493,0.106294439665179,0.96028884028561,0.371104397841408
66,1.59038023107427,2.55567860603333,-0.177826912890453,-1.56525683511861,1.59038023107427,0.0031515138887656,0.0028435409564302,0.0042447337916504,-0.0039552668912266,-0.129881415248732,0.130041338809899,0.0083914554494726,0.132262766249246,0.133288911700071,15.4247576455108,0.257084203436539,1,8.14837388626944,3.99537518237532,1,0.0627520508546219,0.108016688282648,0.273890703864049,0.690590109758458,1.58124488344971,0.0463535628998931,0.172139415841542,0.128683126624857,0.445624157086022,0.0029473937233619,0.0051690986459679,,,,,1.62915702887708,-95.203704492906,2.34795608355267,AttemptLanding,AttemptLanding,1,0.450759177293152,0.217970335560924,0.133971826337391,0.958973086460561,0.342807499277841
67,1.523056642599,2.19426703453064,-0.0346843289155173,-1.5072080293715,1.523056642599,0.0016728034817219,-0.0021140966162887,0.0026958627545675,-0.0009600571576019,-0.119059336594288,0.119116290164987,0.0076892125142634,0.127605966927322,0.128238919777096,15.2728733338414,0.146782630467433,0,12.4930393200823,5.7528450878002,0,0.127889635923972,0.11131328107777,0.177066797027562,1.83583397700826,0.581856716763593,0.0719184886661351,0.249715845480174,0.143251200675626,0.522124851451591,0.0244375676960433,0.0152673740412118,,,,,1.52305422024291,-91.6803892574387,2.15178878596208,HoldLanding,HoldLanding,0,0.43179622198182,0.151516579689622,0.107322861390637,0.945044614501582,0.336332799699722
68,1.6886255167053,2.54163694381714,-0.0935851356819785,-1.66014206781836,1.6886255167053,0.0049709539601868,-0.0123136985341995,0.013279215144934,-0.0034889826662944,-0.141776284271744,0.141984760354387,0.0091602520428031,0.175386989170228,0.176149251869877,15.3960234127422,0.218071162696826,0,12.4822610027036,4.78345435929413,1,0.125006510963776,0.116635424576853,0.0930766328270505,1.03365984451704,0.827694001500755,0.065034003291653,0.250796439203598,0.145288853384673,0.37169036308144,0.0249261441016037,0.0152602366994696,,,,,1.65992886901319,-93.675633913439,2.01914245377788,HoldLanding,HoldLanding,0,0.485529988162054,0.194362093876736,0.133244719575046,0.952858075278319,0.335427176273479
69,2.6304784175943,3.0,-0.470458097288819,-2.55466119268818,2.6304784175943,0.0080708666151725,0.0062175700917989,0.0101880844993718,-0.0205584787332267,-0.339247867733579,0.340592663361129,0.0219767176316952,0.199095100673149,0.201772290032953,15.3731331924954,0.2595759216403,0,8.89169886188299,9.80704114056137,0,0.104485286681149,0.119711480143493,0.203911518994565,1.09692028500177,1.18665376746047,0.0275801107849604,0.0949153696217668,0.193903377440899,0.36315113792176,0.0031061185091871,0.0049497350811664,,,,,3.0,-99.3718557434864,1.72702627704258,AttemptLanding,AttemptLanding,1,0.74181536936507,0.0850101715328346,0.0541865037007737,0.968267577052459,0.313820721137378
70,1.6457894838753,2.52971124649048,-0.10325398799592,-1.63067090631861,1.6457894838753,0.0008185451723794,-0.0054566623572675,0.0055177151322306,-0.0022583436383245,-0.135650090722534,0.135713129792557,0.00875381916085,0.116187977538011,0.116961982958652,15.3950290409001,0.172114732772666,0,14.2719733788462,6.62346211930865,0,0.17803256461072,0.130768769905873,0.0825040896145518,0.695316080592128,0.73924771141227,0.0559820347568907,0.25147521780349,0.156022880829108,0.378876632106603,0.0244758231846273,0.0177855170013969,,,,,1.63718820829973,-93.6710336136772,1.77241417642062,HoldLanding,HoldLanding,0,0.46226959229181,0.199893977695991,0.137281990982987,0.960737409970091,0.330656497409285
71,1.6995719165436,2.33201885223389,-0.126713515313998,-1.68292032286114,1.6995719165436,0.0040632150752449,0.0014104627785866,0.00430106056659,-0.0027753070492367,-0.14722876094472,0.147310545905116,0.0095029400466338,0.113316245789866,0.114135067849066,15.4077448650563,0.246397885765642,0,4.21920445649066,6.26972840314903,0,0.101874229523395,0.179036833311035,0.0675493920302845,0.977607778257454,0.901234756309433,0.0722105743791449,0.250579360566233,0.0884483309620021,0.383227044647417,0.024928977978797,0.0166461789732401,,,,,1.70051980624269,-94.7465968646039,2.219143948126,HoldLanding,HoldLanding,0,0.476046191314773,0.143089088300856,0.102986154739137,0.949132378610259,0.360689630683555
72,2.58248652907826,3.0,-0.492686212044519,-2.50127559188665,2.58248652907826,0.0046558786596101,0.0049363799747957,0.0067856505471898,-0.0219267790563197,-0.326495083428066,0.328023827815662,0.0211628912876592,0.208108248008453,0.21070188243962,15.3644295599743,0.350036183848935,1,15.6516344482253,9.88275599820802,1,0.0642286099575182,0.1075442675215,0.106874305632393,1.14567559398076,0.943348569758996,0.0300113411332528,0.106073216832434,0.128537064593398,0.316431900458098,0.0029920536877872,0.0065777454549597,,,,,2.91093538813022,-99.816427293789,1.83772892839928,AttemptLanding,AttemptLanding,1,0.730803450908793,0.095184566891043,0.0608324492118096,0.968580568146847,0.342872415736268
73,1.7082224801308,2.38594555854797,-0.101187648272102,-1.69208543138232,1.7082224801308,0.0048838412127906,0.0033023607298623,0.0058955484377528,-0.0024226310309541,-0.150170986589643,0.150243461006388,0.0096911843442254,0.121346257509411,0.122179107314597,15.454737829833,0.249680656789615,0,8.24007626244769,9.81546940093117,0,0.153715252981041,0.173864453373609,0.162058936359927,0.858757252568605,0.960237885296298,0.0766981770045886,0.250992689423835,0.0881983048994211,0.307504770796903,0.0248235851239572,0.0181341229188486,,,,,1.72562512383076,-93.8374795978128,2.37763817512054,HoldLanding,HoldLanding,0,0.479961816164465,0.153568543190786,0.109768056929953,0.947358806843053,0.360800753378035
74,2.68363273892426,3.0,-0.567263208528628,-2.58951142520571,2.68363273892426,-0.0290560305254333,-0.0100462048230688,0.030743765892323,-0.0240088097471314,-0.34221499862341,0.343955476819138,0.0222125914586734,0.203851581404973,0.205922851381106,15.2232436547734,0.213041652543707,0,10.4685374878947,7.00025591138072,1,0.119580141618606,0.0623034514607987,0.0986038753603166,1.88583632622985,1.0329473142805,0.0774871811199355,0.251607707356777,0.185588972455811,0.559719643438837,0.0246553736458823,0.0158330604961344,,,,,3.0,-100.724454534549,2.1392413910908,HoldLanding,HoldLanding,0,0.75681996732269,0.0768189908223015,0.0628068148800441,0.938323109407451,0.317516012241862
75,1.76203631289462,2.48173332214355,-0.0806674168180134,-1.74774795731288,1.76203631289462,0.0024856958236153,0.001282942116018,0.0027972529740071,-0.0019006817811115,-0.15976529759395,0.159821737125039,0.0103172610571424,0.125702245739195,0.126626352253732,15.2669559093233,0.243056894890422,0,12.0766065107251,4.24824550944344,1,0.0829190595919965,0.125969474927351,0.0537852209091224,1.51121908032464,1.16555380686381,0.0742206612820582,0.250978569666463,0.190368741831224,0.698880243108594,0.0243990772427686,0.0195076389148326,,,,,1.75314324486889,-92.9988255456999,2.25475682280358,HoldLanding,HoldLanding,0,0.495201620555978,0.162444656792912,0.115404515283988,0.941857882388204,0.315391670297234
76,1.67159684725031,2.5551929473877,-0.164547470203344,-1.63918270941338,1.67159684725031,0.0035366094532837,0.0078584025007517,0.0086175458390934,-0.0048264297654649,-0.145281836373813,0.145551501743916,0.0093895290911795,0.175387022897571,0.1765728272253,15.3789178934733,0.248158796037114,0,8.23323354464386,6.81498300100723,1,0.124241783486294,0.140541403341881,0.272554438162797,0.978055403916856,0.968099463596888,0.034627034524551,0.128607864586997,0.15297872444603,0.374299427162224,0.0022442997980098,0.0072048239733084,,,,,1.70076581873366,-94.2444526353916,1.99524736681161,AttemptLanding,AttemptLanding,1,0.481073724711809,0.200389005934746,0.123850806128035,0.967395265921545,0.332009455801764
77,1.68962782285408,2.50684189796448,-0.0868702187612105,-1.67629994176588,1.68962782285408,0.0009954029052007,0.0150547371582687,0.0150876087518281,-0.0017107653840146,-0.155166940943306,0.155216648471154,0.0100158945790641,0.126191354337405,0.12702105648313,15.4048444518461,0.216946947840953,0,8.72582817435399,4.42869871618837,0,0.0792895586642886,0.0648234899717143,0.0716798296839768,0.767888996180737,1.44731632366176,0.0792246165164944,0.250843389923126,0.104108908304198,0.394717405470236,0.0246500229221784,0.0154855854776448,,,,,1.75267540990144,-93.0921521707442,2.44653601425946,HoldLanding,HoldLanding,0,0.47597163072438,0.186639228504342,0.128570224837667,0.942982507085848,0.353729374087023
78,1.68007154893059,2.64277362823486,-0.263028252301501,-1.63525999998187,1.68007154893059,8.41660427388106e-05,-0.0042587976288494,0.0042596292287292,-0.0087784396226117,-0.144403392379308,0.144966279512077,0.0093471000992143,0.178669235292399,0.179090353741,15.5081357028384,0.223019432144437,0,4.85186695564237,6.39026735840879,0,0.16553817552809,0.0952335392626704,0.148276322404186,0.669107546218934,0.140349652587617,0.0611032085617804,0.289521271106329,,,0.0442969066939784,0.0664758249979336,,,,,1.74654853556253,-98.8045454304196,1.80780256690131,HoldLanding,HoldLanding,0,0.483837150463025,0.217388899868728,0.174293881279425,0.963088374871344,0.4
79,2.61479555085351,3.0,-0.424846749922264,-2.54794133685902,2.61479555085351,0.0073502067566494,-5.44818135571436e-05,0.0073504086711898,-0.0179451341837894,-0.338740946424188,0.339762051527369,0.0219303191176242,0.199048433274332,0.201729879843495,15.3780073030156,0.122916389102432,0,14.6039868443222,4.87994039259302,0,0.126460308209649,0.162210404148186,0.186275210282264,1.13047777844357,1.65438423555605,0.040454644174997,0.150042210389162,0.111163364049018,0.4147017898103,0.0029231491620671,0.0046353343259973,,,,,3.0,-97.9055764515173,2.1593837334334,AttemptLanding,AttemptLanding,1,0.737624789529636,0.0880185759810111,0.0557958991125144,0.957891619231076,0.350594060422659
80,1.69741014049899,2.45796012878418,-0.150275893634303,-1.67903795496252,1.69741014049899,0.0009982184312128,-0.0060758079228679,0.0061572625371992,-0.0032441276023142,-0.144904455316052,0.145007851485248,0.0093537996714959,0.120393629617179,0.121149807865443,15.3996600788877,0.160113073832741,0,10.5509711588343,6.3221472003686,0,0.0706816203987482,0.141308003770456,0.0646527680033255,0.96662083084515,0.750441770552178,0.068705112751879,0.251195415946547,0.0795492495552338,0.394876834614333,0.0248560464826176,0.0156678661707654,,,,,1.69628480395598,-95.2657092073146,2.116106592514,HoldLanding,HoldLanding,0,0.476872665706153,0.17225257882932,0.120096084947923,0.952156237470224,0.364644777975452
81,1.76802195090029,2.50578022003174,-0.280841795884378,-1.73102992111165,1.76802195090029,0.0039137198981822,-0.0061571523512698,0.0072957335832783,-0.0073154277276601,-0.152359540707095,0.152706990868368,0.0098502448017651,0.124769709867398,0.1256530037556,15.3960339704633,0.213211602055775,0,14.0336471896828,5.75962890424369,0,0.0702372018440842,0.174506176425482,0.276328985875757,0.714469154794425,0.793521573964861,0.0582461098949096,0.255913175363227,0.11315758268081,0.386432277677141,0.0247093544890517,0.0161650832114372,,,,,1.77104898685277,-99.7532888830882,1.81045710832119,HoldLanding,HoldLanding,0,0.496603120991198,0.16733316171151,0.11726004443226,0.959028446469437,0.349707741030751
82,2.62374944152641,3.0,-0.398236710983013,-2.56141496951798,2.62374944152641,0.0057004960287188,0.004394629322006,0.0071978067389501,-0.0165739694452315,-0.341164617335633,0.342075681340099,0.0220667754201475,0.196107544612345,0.198806084461385,15.3761500451191,0.18377106731652,1,8.67548786803596,7.14168278467164,0,0.0660076686505051,0.101934797815881,0.222661007242481,1.08038394730354,0.772145957588282,0.0250843511039347,0.0922450742524008,0.256493573153004,0.319263583999601,0.0030930647520241,0.0049598125765273,,,,,3.0,-97.471050396456,1.65714504346953,AttemptLanding,AttemptLanding,1,0.739427734632652,0.0859759735586994,0.05476384779021,0.972902232338168,0.286002856376443
83,1.71356454791553,2.64370226860046,-0.237306558841579,-1.67115144801246,1.71356454791553,0.0040449770778637,-0.0031280214637252,0.0051133509402318,-0.0080843133342347,-0.148728594973378,0.149279732254579,0.0096307458176809,0.183976138302031,0.184716827352802,15.3302829390653,0.224040729397704,0,7.03780031173184,7.56031243026152,0,0.0934708634270322,0.165801636776086,0.05114837707967,1.06155760134265,0.875845699621669,0.0698638019785162,0.250669612221724,0.0896002958103123,0.372935277806447,0.0246563929333792,0.0178185675165012,,,,,1.71534999253807,-98.7349354691493,2.17035951951811,HoldLanding,HoldLanding,0,0.493893911581368,0.210218434826486,0.143568936852081,0.949845644503165,0.360177646306528
84,2.68054678775732,3.0,-0.534280512438943,-2.59347429791699,2.68054678775732,-0.0289687940664257,-0.0092438529497185,0.0304078911965135,-0.0217225736795316,-0.344669457843573,0.346128780189383,0.0223323131978801,0.197091466680731,0.199225292461379,15.4144678340332,0.261496854044563,0,12.2507740754581,3.78201890735744,0,0.143560284525567,0.138730896567696,0.16762019547086,1.1639388331017,1.01990267070869,0.0726867370597004,0.251164350871917,0.100003572649235,0.411376736561028,0.0249257575793255,0.0171785954754748,,,,,3.0,-99.8806899531268,2.05868187759841,HoldLanding,HoldLanding,0,0.754657535227561,0.0774517528072976,0.0637959281551605,0.946497876797354,0.355553967711451
85,1.90935159386215,2.7797212600708,-0.227010464314751,-1.88264503412847,1.90935159386215,0.0030362968220356,0.0025250913981635,0.0039490739370874,-0.0056735051634625,-0.187040494269044,0.1872487480503,0.012099070471794,0.131640885902968,0.132593608193538,15.2226528866319,0.18230445775101,1,12.4517444954314,5.31145076144897,1,0.12981545226542,0.100326848072789,0.0990794981839305,2.49112342875742,1.08382675975707,0.0793661218875673,0.251006763459534,0.220400702085248,0.643651226082549,0.0245563314835458,0.0180638500028828,,,,,1.91928845417784,-97.3182776792843,2.32330447508228,HoldLanding,HoldLanding,0,0.535679146668613,0.196557171785413,0.135416900903367,0.932228044717888,0.302044132406556
86,1.7172649454911,2.40768098831177,-0.221091821119697,-1.691651740157,1.7172649454911,-0.000214399939498,0.001060166500662,0.0010816285606356,-0.0046121232782812,-0.149747409389704,0.149904798120239,0.0096729705456607,0.112802684889748,0.113981718457045,15.4248331563373,0.207553452178548,1,14.0380074362469,3.96919005879147,1,0.15269505847404,0.090491139590337,0.100737489070211,1.27480945532554,1.18739422875741,0.0474226827477172,0.156819401197725,0.149148915102478,0.375808602289392,0.0007776501245416,0.0133178923055229,,,,,1.74559850451354,-96.6109051974514,2.36630456374723,AttemptLanding,AttemptLanding,1,0.480733662489036,0.1555419082041,0.0985136371293149,0.956942772536918,0.333711593287788
87,1.93088469876532,2.70147275924683,-0.272712359969188,-1.89081158936499,1.93088469876532,0.0033378989576101,-0.0117948934886105,0.0122581027022489,-0.0085689788786268,-0.180388732942524,0.180847736575382,0.0116677975384781,0.158224961639528,0.159203091413982,15.4082431295502,0.23458418301432,0,7.27079885993756,6.15719671460498,0,0.0945574825989762,0.134213031429668,0.261129754515012,0.803524944242557,0.969281712029472,0.0602223296394986,0.251668229655958,0.1024894123635,0.400296575168484,0.0246824767572306,0.0151503737532854,,,,,1.90999160407999,-98.7042901753648,1.89002347387177,HoldLanding,HoldLanding,0,0.546743204620215,0.175629632437085,0.121856995951508,0.955959640023828,0.354449150060667
88,1.85041045795884,2.51332712173462,-0.226862670526019,-1.82513377184899,1.85041045795884,0.0006502120877243,0.0023328040984783,0.002421724740944,-0.0051919719278882,-0.171833387269164,0.171998768849653,0.0110965785643955,0.122729048071394,0.123702042638521,15.381216959697,0.290631054455542,0,9.42854563653876,5.08737708363281,0,0.0899703840568795,0.155197191569901,0.0821058924748745,0.753523434014221,0.935382024740157,0.0520746891668886,0.2503055385086,0.236040455639062,0.38181620287448,0.0245566011871672,0.0159598213400575,,,,,1.85804652340585,-97.050859497189,1.6639039687444,HoldLanding,HoldLanding,0,0.518183197316729,0.149600232218722,0.106477755699692,0.960692683954914,0.295093130827084
89,2.61853046241811,3.0,-0.398363324993347,-2.55488784101925,2.61853046241811,0.0043658259033138,0.0008415299543143,0.0044461903335388,-0.0169073214710103,-0.339642957138289,0.340606673170894,0.0219830457807719,0.198070817947138,0.200840924975171,15.4038468616927,0.253823352764088,0,13.2925733563037,4.33063609071324,0,0.0341349213256772,0.169368493785414,0.105034580872583,1.41963093082731,1.49290285189259,0.0488361364841025,0.169691212102019,0.121022912470248,0.380772812368821,0.0020447112436224,0.0071667661404205,,,,,3.0,-97.63858562104,2.46384195211708,AttemptLanding,AttemptLanding,1,0.738442974973198,0.0866457808504067,0.0555023258412999,0.952697737750864,0.346212038902112
90,1.99026598472262,2.88618731498718,-0.397574065868125,-1.93514547173821,1.99026598472262,0.0055247819427665,-0.0099961061459634,0.0114212676002486,-0.0119463982823479,-0.188023446527389,0.188697270756398,0.0121747321141122,0.130093638873987,0.131170120179265,15.2928949108616,0.155298975445801,0,10.2730982178249,7.49970629728013,1,0.113614768668427,0.133575625869971,0.0639338112539166,1.27003883117654,0.658247362930451,0.062548293344151,0.248664851119975,0.169178744207783,0.507915508619501,0.0246731126685625,0.0171110381155515,,,,,1.97595603721084,-102.204413883357,1.94859022991115,HoldLanding,HoldLanding,0,0.556971619961885,0.203676198369572,0.13939374255282,0.95357503323137,0.324809447018763
91,1.98733615665645,2.7349841594696,-0.409590588640337,-1.93060937285457,1.98733615665645,0.0032569587363241,-0.0063668561334267,0.0071515478907627,-0.0123292160410158,-0.189198546589279,0.189912825920448,0.0122505693887665,0.135807306050593,0.136952179750295,15.3919129340565,0.239248650357008,0,4.81652761310432,3.93774089473344,0,0.123460402149351,0.171586072832677,0.273784452826073,0.784015915989923,0.858640110236493,0.058492241460085,0.251787113495319,0.0921766188319733,0.40205062532412,0.0244036133263891,0.0173690338216219,,,,,1.98269676727326,-102.196075792471,1.84466823519014,HoldLanding,HoldLanding,0,0.55734674439178,0.169531917746265,0.118881213313815,0.95784729620675,0.359032613852456
92,2.6301265026016,3.0,-0.338552553406279,-2.5732541401363,2.6301265026016,0.0054393232402473,0.0029842924258698,0.006204211359633,-0.0142309938330723,-0.343700690879599,0.344474924006902,0.0222360542682562,0.196004031445278,0.198707248016748,15.3451135409722,0.145909266115768,0,6.68531601875539,7.94987248475661,1,0.170635367153351,0.131873837150978,0.266835341587517,1.08902117666949,1.53156788918355,0.022536437128094,0.0812300192130324,0.30723155595489,0.423398247517911,0.0031022461380575,0.0050237732051201,,,,,3.0,-96.1325283262809,1.58394327150942,AttemptLanding,AttemptLanding,1,0.741108516963776,0.0843589756639065,0.0538209880797465,0.968141438775679,0.263452641797827
93,1.94991206305368,2.63668632507324,-1.08937895367943,-1.60037648541298,1.94991206305368,-0.0017988156332891,-0.0015607847050814,0.0023815512965673,-0.0649865530353418,-0.130744273523007,0.148913363752104,0.0096027920425234,0.139333037641258,0.140025296615352,15.4448314987085,0.158185704291017,0,5.127753638395,7.11023786851902,0,0.0951606803739165,0.157080277682708,0.0692150497561796,0.67336013693564,0.633811228690253,0.0616703977896589,0.28513610071421,0.251079608742814,0.26481256265211,0.0536831743994801,0.0752822886119711,,,,,1.94231362243633,-124.407068044808,1.87594395025501,HoldLanding,HoldLanding,0,0.547981609470717,0.154960826692106,0.144211062314335,0.958894168946681,0.288409062780972
94,2.67067798524716,3.0,-0.138092356631521,-2.62974782657393,2.67067798524716,-0.0220028815027934,-0.0066139296379288,0.0229754403588145,-0.003253250763461,-0.353270275822296,0.353506693201564,0.0228052190806798,0.196750166398839,0.199090915376344,15.384619959638,0.2767781505753,0,13.9097590344167,6.38363546284798,0,0.0538539585208054,0.124185661178107,0.133755117948801,1.1048843246852,0.848563972097128,0.0546211806270809,0.250166519684431,0.242020334943416,0.33259486043348,0.0248167911318128,0.0168862323063866,,,,,3.0,-91.4563513127585,1.58433121379036,HoldLanding,HoldLanding,0,0.751998979141178,0.0783096173851721,0.0641559034899889,0.957340887354598,0.292435406691815
95,1.9693284039969,2.72645449638367,-1.17429849284588,-1.56269614306541,1.9693284039969,0.0005996951824594,-0.0082735761819215,0.0082952816196874,-0.0750333926418471,-0.122880555395483,0.147323176073566,0.0095042099564387,0.138535632995513,0.139352889125439,15.4086913913256,0.243772887244883,0,13.7444081735203,7.47328739964033,0,0.114383600794434,0.0572160821677038,0.154127963313949,1.04460308875169,0.792302121148613,0.0600941473784862,0.252210654015104,0.119939414751987,0.365639888060705,0.0247916757923151,0.0164742857645931,,,,,1.96331253915621,-127.216824388755,1.87571669551244,HoldLanding,HoldLanding,0,0.553024818890927,0.171874172417299,0.120133675393685,0.95552009966154,0.346693593443562
96,1.80006518013103,2.54440331459045,-1.07720822039452,-1.42603119492171,1.80006518013103,0.0034218760739797,-0.0008283402561882,0.0035207078046463,-0.0631767603605844,-0.107476833957023,0.127551819027129,0.0082346653992533,0.133402433326474,0.134430183104209,15.306268877826,0.27993088522742,0,4.40161182173314,5.9962640849662,1,0.0547607293513554,0.165133843812394,0.124344585790693,1.607572408647,1.22071609133953,0.0419265082049465,0.138847851623141,0.172603392327274,0.496387039393966,9.542978559944761e-09,0.0274809081790576,,,,,1.85410920649287,-126.007447320558,2.12795156455732,AttemptLanding,AttemptLanding,1,0.506903417989115,0.16812154335089,0.110865987771515,0.956814479111918,0.323287381187878
97,1.91169076751877,2.68148970603943,-1.12288619849575,-1.52989119815082,1.91169076751877,-0.001802804086941,-0.0060302875964695,0.0062940027861469,-0.067519609049169,-0.117844888182765,0.139082097363172,0.0089717249912015,0.134874510030357,0.135653924628999,15.3936199188906,0.134890591171558,0,14.7426934487621,8.08840658867368,1,0.107441401917614,0.111862651997254,0.170553849593777,0.957776509375504,0.859909506194813,0.0595067886734706,0.250614464111277,0.14694584728705,0.369743896575528,0.0244508367669418,0.0158705797370525,,,,,1.90035395314852,-126.506742732756,1.85676720211234,HoldLanding,HoldLanding,0,0.536914989597471,0.174358661677943,0.121253355474234,0.955964786969498,0.334690734539089
98,1.87492435780155,2.58806252479553,-1.08601565848295,-1.51158149618675,1.87492435780155,0.0015893907489067,-0.007779982676057,0.0079406733588819,-0.0643864784702603,-0.114882053884358,0.134487119900353,0.0086854270683327,0.128298413334911,0.129021893530679,15.2380766715592,0.267750104271364,0,14.9657976282892,5.32672043212582,0,0.0793404679032598,0.064825794431232,0.276358049208502,1.68003514551878,0.992400781851521,0.0649748056112286,0.249307638057333,0.147205559608316,0.509303004251024,0.0247352567455991,0.0160918038085537,,,,,1.87571237254526,-126.343170425654,1.96400730357292,HoldLanding,HoldLanding,0,0.525784207453215,0.161911877689442,0.113992139077446,0.946514886336476,0.334575306840748
99,2.6107348797712,3.0,-0.163307942987327,-2.57256815526311,2.6107348797712,0.0036953972164751,0.005767954636606,0.0068502015501354,-0.0060627204345654,-0.345402333159591,0.345702026045968,0.0223153266338502,0.198645122948439,0.20139375439881,15.3816563302076,0.294966818540669,0,15.4199630630387,9.82007365637937,0,0.179540401309862,0.0320752072253382,0.0784724397146352,1.11360820779672,1.68122114936469,0.0216656526240359,0.0718763587682014,0.243294830189241,0.346670156719337,0.0031245412372586,0.0049725716471554,,,,,3.0,-92.1609099733914,1.50376496866063,AttemptLanding,AttemptLanding,1,0.73647471881875,0.0888405223356706,0.0565012062674324,0.967207800167428,0.291868964360337
100,1.76685758606418,2.56627154350281,-1.11079106652195,-1.35792946769235,1.76685758606418,-0.0012667742022987,-0.0025374674718378,0.0028360990903431,-0.0662693436387727,-0.0944830970201261,0.118460184397028,0.0076409892802695,0.12177556584195,0.12241203662978,15.3944195489622,0.131503262612064,0,4.92967668515426,5.30093070255444,0,0.107132223116565,0.0594767892063842,0.208864456862958,0.555851738760526,1.03115227550379,0.058286573318838,0.251126518439035,0.0827130694843945,0.391975359237403,0.0243102326613435,0.017878929784322,,,,,1.75491467611123,-129.314874842222,1.83739778799101,HoldLanding,HoldLanding,0,0.495644430276404,0.180388091923587,0.125538832016119,0.958387396085647,0.363238635784714
101,1.81248457507884,2.52641534805298,-1.14203262556762,-1.39188665376256,1.81248457507884,0.0032066891313578,-0.0016719157105725,0.0036163735051052,-0.0703908827792944,-0.100729317029855,0.125966726478856,0.0081251957984855,0.126842140713547,0.127529502008459,15.4193446480603,0.193240017401311,0,14.5236466732223,3.53347286691932,0,0.173810016254468,0.164621768763163,0.272128880703839,0.707889954105959,1.09951425505281,0.0722618465799702,0.250084164158069,0.0831752341119326,0.370081696699782,0.0248119539914728,0.0165300626575221,,,,,1.81348529686832,-129.706905071318,2.23689092638022,HoldLanding,HoldLanding,0,0.508835120422716,0.16129742572845,0.113816922419854,0.949668043638053,0.363033229283586
102,2.61855734829919,3.0,-0.204421523099432,-2.57413768192411,2.61855734829919,0.0071933334825168,0.0031507689461125,0.0078531134935442,-0.0079531168864842,-0.344577509705366,0.344982658288654,0.0222602086532869,0.202191549213647,0.204983692886397,15.3860435002845,0.304196534113428,1,13.7364692874795,5.3774506091455,0,0.0642990578240884,0.169782816981821,0.0743638337377848,1.08161425051778,1.08960684563017,0.0216606333868197,0.0776420504673373,0.245873625784655,0.344028453962907,0.0030908251039612,0.0048884794240222,,,,,3.0,-93.3463396367176,1.5,AttemptLanding,AttemptLanding,1,0.739278698123729,0.0872643341064996,0.0555099293915674,0.972110088979713,0.290722832984598
103,1.71070399994775,2.65277075767517,-1.06633035520519,-1.30533347724324,1.71070399994775,-7.06898601051362e-05,-0.0026305622007575,0.0026315118370199,-0.066532127085454,-0.0890613878623577,0.116973337680376,0.0075470893774509,0.179013041563739,0.179698492625096,15.3868321161085,0.191355487537109,1,15.9077246195963,4.42894402111368,0,0.0801689373377428,0.0433039652851169,0.128502598291571,0.579359535427967,1.12716383051322,0.0486374436839296,0.251252632663447,0.229779800651236,0.345031135455909,0.0250878573862517,0.0179596343326398,,,,,1.72654575195328,-129.444915076368,1.55251586648209,HoldLanding,HoldLanding,0,0.492127431844419,0.212447464325457,0.145149413554568,0.962272880282783,0.297875644155006
104,2.67610659236111,3.0,-0.248447822055991,-2.62466833695273,2.67610659236111,-0.0312723755285361,-0.0116017517577762,0.0333550912912384,-0.0083502790865331,-0.352131374463043,0.352563409926563,0.0227405927454706,0.20814857839998,0.210324914231354,15.4223147786102,0.189450705171087,1,8.06496079612572,6.9180737913304,1,0.0316987890879354,0.169232440309329,0.136901380515234,1.07239416378654,0.657041964010249,0.0683986876365475,0.28340115545798,0.13333765422882,0.509074434305061,0.0244440432934625,0.0158405919222469,,,,,3.0,-93.2924416519869,1.92058646997109,HoldLanding,HoldLanding,0,0.755693407475901,0.07899111678881,0.0640189045592783,0.952212229463323,0.340738820342747
105,1.74507818933781,2.66730666160583,-1.02950919033072,-1.38605970396973,1.74507818933781,0.0064151731363604,0.0010859316227906,0.0065064348040119,-0.0601237544718145,-0.102149346137646,0.122731602233412,0.0079186096556066,0.147379605872713,0.148014758041527,15.4064175267738,0.281751972165969,1,12.7603782321639,5.63123197505764,0,0.124251289063924,0.100237320574683,0.0922986167738983,0.663499842998633,1.34344508722065,0.0752980594261386,0.251604088662906,0.095381594432065,0.396989679123875,0.0245122981398267,0.0150488535650204,,,,,1.76944401401711,-127.2708966815,2.3297343070977,HoldLanding,HoldLanding,0,0.494957135431721,0.208694252641042,0.141583216700717,0.946582117263779,0.357608180252416
106,1.72537216135491,2.58312892913818,-1.07362770692549,-1.32895078015285,1.72537216135491,0.0036078072355782,-0.0005099294275628,0.0036436658834455,-0.0630059683018645,-0.0939610438881862,0.117028896454641,0.0075501055781284,0.137116101097421,0.13801670697885,15.4146360945895,0.320613008767753,1,13.4530309984969,5.1481791096208,0,0.165760366653944,0.0415456765151804,0.101900562155257,0.551198247055729,1.32902379136326,0.0219794189633376,0.0798643773932673,0.219758595896913,0.307169926565695,0.0031905894281615,0.005028318568551,,,,,1.7686972036879,-127.77706983327,1.5323613031844,AttemptLanding,AttemptLanding,1,0.487702584423745,0.193663278163202,0.119444486123244,0.974237117359325,0.302329512934705
107,1.53992234102851,2.26335406303406,-0.895360265878223,-1.23879695071098,1.53992234102851,0.0011750778621552,-0.0035923761331603,0.0037796791218604,-0.0443681212475857,-0.0798065761913462,0.093452971372299,0.0060284015986622,0.107884791500311,0.108393329196744,15.4188277114965,0.263165726874213,0,7.76078295032376,3.687289526427,1,0.0533968784640526,0.0801811844465382,0.117910803966402,1.00645182628624,0.858125527287712,0.0660341505041872,0.250744884486664,0.113017140876279,0.356117426915781,0.0245654618132658,0.0162171457055883,,,,,1.56362962757819,-126.213274791377,2.0652448805736,HoldLanding,HoldLanding,0,0.43232462344695,0.16346507862359,0.114894174095213,0.952332674112683,0.349770159610543
108,1.70043823072843,2.44923639297485,-0.996916752830457,-1.36165663940782,1.70043823072843,0.0021100621995648,0.0055221379861606,0.0059115455190864,-0.0542386026924234,-0.096389918859157,0.113245224678439,0.0073035836211893,0.120991994284261,0.12155058871703,15.4110076053319,0.202837232227459,1,7.62715047125126,9.79766263039928,1,0.0831103916521506,0.0336997876982436,0.185824076897361,0.591805142026635,0.846708248952384,0.0661316644101995,0.285335163812335,0.154791513365593,0.391217911784843,0.0450614145258394,0.0673180821945014,,,,,1.70099448076972,-126.23559516376,2.00292728105872,HoldLanding,HoldLanding,0,0.477760312604322,0.16956336985061,0.146244619871366,0.955631562580065,0.331203771837514
109,2.60723851636102,3.0,-0.449335174537732,-2.53562310328821,2.60723851636102,0.0070809627284015,0.00321956609884,0.007778537074914,-0.0192785279344268,-0.335681594666797,0.336865047725537,0.0217442998114084,0.199024869370568,0.201691583537598,15.3827627755544,0.262659962124549,0,8.59139374054589,8.68667280017207,0,0.0763954555909841,0.159974589740337,0.277680838073156,1.52472295089861,1.60739967117105,0.0460976831026201,0.158496440183161,0.133393848042941,0.396177183633903,0.0002653857909308,0.0137093547920203,,,,,3.0,-98.910745007038,2.37943971429591,AttemptLanding,AttemptLanding,1,0.735601921070458,0.0897973989491715,0.0589816085342876,0.952341623561,0.340713845314249
110,1.75038318605772,2.50166869163513,-1.05773959571097,-1.37081570027876,1.75038318605772,-0.0010814202701756,-0.0117002729932821,0.011750142889262,-0.0618298199600856,-0.0948568538655728,0.117330678117883,0.0075720217947137,0.144184459376509,0.144821096994965,15.3681968351372,0.149123189639933,0,13.9253933682729,9.61112356833089,1,0.121465306613887,0.177417219783922,0.162699892041987,0.561184843693739,1.58834749202611,0.0672533298092319,0.252147067278181,0.239573213611177,0.615510170315231,0.024522300389348,0.0159655045377943,,,,,1.72926744399254,-128.300304784031,2.07792654231528,HoldLanding,HoldLanding,0,0.495733069014386,0.171193431617948,0.119420497157556,0.949484152457585,0.29352301617281
111,1.799564475698,2.67424654960632,-1.03632365744271,-1.43943158504379,1.799564475698,0.0050623697977088,0.0002260070228928,0.0050674122728619,-0.063393913375033,-0.112800086413484,0.135497293015169,0.0087420762966512,0.191586500512417,0.192281056313373,15.3855981463966,0.226135239793241,0,14.6844556648646,3.59184582632715,1,0.0332135597262495,0.157295073335717,0.120296477676329,0.606763599436281,1.28685091432409,0.0710695861455485,0.250915009842679,0.129334086484319,0.592704579108576,0.0243722124206958,0.0184608794238645,,,,,1.81523472928788,-126.340586099222,2.20384328585771,HoldLanding,HoldLanding,0,0.518340071448809,0.19773249221273,0.13618463680006,0.949586807176251,0.342518183784747
112,2.60653162321518,3.0,-0.452734257715104,-2.53507249312129,2.60653162321518,0.0064652840652918,0.0064404493948565,0.0091257485420443,-0.0192379162278195,-0.334620665395571,0.335774353273042,0.0216616818666186,0.198044651329666,0.200894829988409,15.408122534663,0.238520516040506,0,12.6645112050617,4.27140324997469,1,0.0701364959083406,0.118020825926335,0.274605374304628,1.03646287078053,1.03584045483686,0.0323694057758734,0.131016362779251,0.134129965256436,0.340826434216882,0.0030088301589266,0.0049633065910466,,,,,2.96729568504797,-98.5728576137469,1.92278576039936,AttemptLanding,AttemptLanding,1,0.73525406552173,0.090203438675959,0.0572641598143679,0.967532913839355,0.340386682108251
113,1.89177773740446,2.79879069328308,-1.09238854654867,-1.52002272943896,1.89177773740446,0.0084577118661508,0.0088094613186605,0.0122122683697913,-0.0688925742717741,-0.12691886442856,0.149455358768303,0.0096429667182205,0.165072966877613,0.165821704475182,15.4078442802041,0.134786480435847,0,6.35643540342035,8.93226753117783,0,0.0810621107417215,0.133477968546302,0.240492228154215,0.802450566414113,1.45693815146069,0.0802394041060777,0.252586408154697,0.101606108011382,0.382225547723829,0.0247759302787966,0.0174867664785278,,,,,1.93223126337264,-125.804006762773,2.47685248096437,HoldLanding,HoldLanding,0,0.537638404202892,0.206316830940485,0.141160447306655,0.942127958020802,0.354841729772719
114,2.66671390162439,3.0,-0.355171783986796,-2.60843697351833,2.66671390162439,-0.0195149340829924,-0.0065470280520889,0.0205838827381613,-0.0126820965461052,-0.348036766543909,0.348688783007912,0.0224960203600959,0.197765555747021,0.200097147055355,15.3847827534351,0.287232803336115,1,12.0951270738412,5.64853714679487,0,0.171709304602098,0.0722241392120371,0.0529507093662263,1.09764655698214,0.953703626926041,0.0539991870233061,0.249861804046464,0.215133234727352,0.332496244042917,0.0246946213043363,0.0174479098715023,,,,,3.0,-96.7638294594719,1.56845513940663,HoldLanding,HoldLanding,0,0.751143136510908,0.0787630839698424,0.0645779321270052,0.956882655043354,0.304385229010066
115,1.79753425940871,2.41788697242737,-1.13128858409286,-1.38142762976606,1.79753425940871,0.0035548292501687,0.0052517083117155,0.006341707277161,-0.068909217636184,-0.102170164479728,0.126423749665665,0.0081582377300635,0.124484778040915,0.125130222197004,15.4112589240247,0.290276065516856,0,14.3851738136773,4.81065414694023,0,0.145570833581338,0.0726881858339349,0.199083121629515,0.596123045742733,1.73026530211255,0.0801208073291593,0.251821039914476,0.113168733709558,0.418875367267427,0.0245676309177051,0.0169564044719553,,,,,1.81906071923281,-129.474338611017,2.49407568648602,HoldLanding,HoldLanding,0,0.504368513615058,0.140742006763344,0.101530116395071,0.941660830745129,0.349702785017974
116,1.74040545587954,2.49412226676941,-1.09305912007384,-1.33346740757304,1.74040545587954,0.0054911944380335,0.0024294704824472,0.0060046268144966,-0.0654949297851779,-0.0949547181252211,0.11924342995347,0.0076986828751077,0.139946479968311,0.140926212286595,15.3913254861423,0.188391476772884,0,12.4356239864286,3.41655215851277,0,0.0450524282543771,0.0847622987494246,0.124864650866375,0.88409898268924,1.99914923355548,0.0482663090821037,0.160674042195011,0.123816047585901,0.392985065342694,0.0009639283382074,0.010717346032489,,,,,1.78140716467364,-128.268739059015,2.41209588514824,AttemptLanding,AttemptLanding,1,0.492293364025197,0.170687130699544,0.106737907753572,0.953212752331311,0.344970645517378
117,1.78858318410194,2.51641392707825,-1.07909752685984,-1.41062320335816,1.78858318410194,0.0029370721672035,0.0022557057717478,0.0037033230272362,-0.063439862552064,-0.105399007806109,0.126099013240928,0.0081345782897101,0.129867814747858,0.130505051471472,15.3930199282798,0.168514777713901,0,12.7296903315464,8.68079936038643,1,0.0766984446359129,0.0629459444166877,0.207136818198311,0.759211140888333,1.21781102647502,0.0713316385997601,0.252142542355752,0.108104312030046,0.336279907367106,0.0244875439601534,0.0169238439222075,,,,,1.80405508233153,-127.883265151708,2.21411649397606,HoldLanding,HoldLanding,0,0.503056526054812,0.164440859724662,0.115701993768597,0.948800435099408,0.351953639097757
118,1.80394580030954,2.56859660148621,-1.05352367480464,-1.44797964186016,1.80394580030954,0.0017174531489984,-0.0054718947845966,0.0057350917911312,-0.0605187204995776,-0.106842233602763,0.125585945777412,0.0081063421479489,0.12661522530465,0.127307582836721,15.3298480277878,0.269969295211248,0,10.1867011361103,5.56336703586443,0,0.127802141359163,0.0479388513282523,0.275203250911826,1.37709347836041,1.25495092756729,0.0698420880323446,0.24922981263149,0.133274652491574,0.459356873783785,0.0244275213711007,0.0164539861797615,,,,,1.8005551772584,-126.745983901943,2.14733155396394,HoldLanding,HoldLanding,0,0.506513729983222,0.173097863759791,0.120698662122539,0.94439860708011,0.340766821114856
119,2.60694511797915,3.0,-0.448388174867946,-2.53406078335615,2.60694511797915,0.0071945920457799,0.0049226818593211,0.008717508324819,-0.0195748447748087,-0.335157968789204,0.336403188230394,0.0217059499552531,0.195989576446303,0.198654654623742,15.3908256956792,0.239667227271268,0,13.1261513251722,5.44410660543807,0,0.149520957754942,0.0723039954945306,0.137914685054408,1.03349358676227,1.11451818679389,0.0201818153989623,0.0810827570944331,0.236152831028783,0.318341085598831,0.0030621870134733,0.0048309967926364,,,,,3.0,-98.5472955700195,1.5,AttemptLanding,AttemptLanding,1,0.734916295719187,0.0900355583142425,0.0571390331009469,0.973031856936863,0.29504318620943
120,1.70433976375726,2.52345609664917,-1.00002424938726,-1.35029171816065,1.70433976375726,-0.0004842609683643,-0.0061269540698908,0.0061460617357811,-0.0572158115370671,-0.097141685026281,0.118296826271899,0.0076319457547634,0.178381422013853,0.17896811076103,15.3950895846642,0.188566072736548,0,9.69030353576134,4.55260877204192,0,0.170206987462401,0.0479026489907728,0.104877841325121,0.593695074594693,1.28957561072944,0.0713558153006768,0.250491730131411,0.0858236613835204,0.4129787308653,0.024684739994076,0.0164603833745791,,,,,1.69953700690408,-126.726927999258,2.20876160548525,HoldLanding,HoldLanding,0,0.490284225820809,0.185427952885572,0.128213361238659,0.949524965536401,0.361856150496213
121,1.62737053337918,2.53628993034363,-0.880087498286533,-1.35586485588555,1.62737053337918,0.0008958707520837,-0.0025586115636399,0.0027109182093953,-0.0424489202114619,-0.0952883589440205,0.106235727588152,0.0068539554427802,0.11363225487779,0.114202410301194,15.3899039300185,0.32735719628329,1,7.94814459069934,5.72600154036637,0,0.0808971704109667,0.105571440544795,0.130671786650176,0.610238731826347,1.30440668070248,0.0676960816986996,0.252256240436864,0.0827188500148893,0.439677108507675,0.0245285839565589,0.0180260450226824,,,,,1.6281175232469,-123.046018113821,2.10229259830632,HoldLanding,HoldLanding,0,0.456805957628019,0.205003865988724,0.14045883792561,0.951108316623638,0.363236066660049
122,2.61774695039194,3.0,-0.440055381424049,-2.54752313882777,2.61774695039194,0.0019402664966879,0.0021843048073111,0.0029216128370152,-0.0188518471454902,-0.337653239163225,0.338803100705016,0.0218659753362043,0.19727416427582,0.19992123240093,15.3816097623807,0.231689262200636,0,12.60958689038,8.37446842709321,0,0.146146946325107,0.122112645223,0.232439981380721,1.06188377666926,1.45114849395346,0.0304254343737317,0.107100098290712,0.225961839426369,0.405402852301956,0.0030607731124118,0.0048477659222989,,,,,3.0,-98.4223369875654,1.83657845485129,AttemptLanding,AttemptLanding,1,0.738050099918037,0.0865425651819326,0.0550487066864211,0.965042029258241,0.299572515810503
123,1.5612082486893,2.36656522750854,-0.918014401292976,-1.2425846626537,1.5612082486893,-0.0013898605021096,0.0052867677972937,0.005466408872178,-0.0491806453686768,-0.085302013110564,0.101772973541442,0.0065619944705967,0.135346610992375,0.135620865823018,15.4991877237211,0.144722724949352,0,13.3897003327704,4.34474668408644,0,0.147041805712407,0.0956210437922696,0.277320264925304,0.516864543204918,0.362668115986217,0.0617551431714669,0.290556105717551,0.248608213186573,0.262256207837285,0.0613554039220796,0.073665599847112,,,,,1.60994475744194,-125.481401659111,1.91006559501426,HoldLanding,HoldLanding,0,0.443446372815084,0.182207495194229,0.163381056379846,0.962211814663479,0.289507460805967
124,2.66537057875392,3.0,-0.463639160721531,-2.587174026264,2.66537057875392,-0.0285299678253084,-0.0073085339565416,0.0294512093589899,-0.0174524457932997,-0.344557663859151,0.345592964829336,0.0222885597082054,0.203456228937125,0.205604940041382,15.440007413728,0.293081240671854,1,9.48527287753986,9.42640081162402,0,0.0373707674849593,0.109350233819072,0.187038531964185,1.04657321127204,0.620207254549129,0.0603846592669324,0.250125294916619,0.0990165633497307,0.27246327792214,0.0242759520388529,0.014861470889258,,,,,3.0,-98.4190936738779,1.7235827640365,HoldLanding,HoldLanding,0,0.751886475675988,0.0806910081628499,0.0646080881474353,0.956711538135082,0.355992638511231
125,1.68491481035543,2.43141984939575,-0.950857292910803,-1.37246595215573,1.68491481035543,-0.0054175363979396,0.0027597209742558,0.0060799474075642,-0.0501853112579846,-0.0985699063866046,0.113742718650413,0.0073373605846982,0.135949675652701,0.136585383967295,15.418146087389,0.181112526683327,0,8.97924687338503,8.86540920059299,0,0.164265214218089,0.138437890143071,0.128847098855236,0.566805766570359,1.0687330916089,0.0470772523588602,0.251074987226437,0.235937327930484,0.328649945643255,0.0246858192272742,0.015944990172433,,,,,1.70394137208591,-124.217456820887,1.53270971147332,HoldLanding,HoldLanding,0,0.476627692888241,0.169078290808792,0.118216627941918,0.963610711363447,0.295138965364229
126,1.64215641316762,2.29702973365784,-0.916152439263597,-1.3488384435975,1.64215641316762,0.0039360631985526,-0.0006378553909059,0.0039874118175463,-0.0459165625585198,-0.0960301359183975,0.108514063519273,0.007002668234205,0.118297332173987,0.119170555830993,15.3810970839432,0.268843563434626,1,7.89034211907032,7.06180028062858,0,0.138832533272144,0.0615442257323241,0.0528719751576933,0.573587595865997,1.63450958787588,0.0238861972968549,0.0911073380986995,0.23015511702455,0.361918197588113,0.0031891461664037,0.005004383604471,,,,,1.67689753088332,-123.079868701553,1.59516937113703,AttemptLanding,AttemptLanding,1,0.461742488010896,0.148077522610183,0.0920836877184607,0.970707566336458,0.297708836877978
127,1.72417133863558,2.53427934646606,-0.992387886625682,-1.38708254846378,1.72417133863558,-0.0009244218555107,-0.0100314417286722,0.0100739455489243,-0.0548011417179158,-0.096602718852447,0.114692674535209,0.0074036035652632,0.138710750087047,0.139286045195007,15.3911316712616,0.267486338611725,0,13.9937047466885,8.60615426256179,1,0.149948378167718,0.0823956616281181,0.181303791674321,1.33995752900328,1.17162277945997,0.0609106441464425,0.251586380832271,0.186321242776592,0.461296713568,0.0244624385671958,0.0167653553588548,,,,,1.70122994362469,-125.926493707361,1.90633277621919,HoldLanding,HoldLanding,0,0.487636232675156,0.184121191779162,0.127441402844016,0.949810832645996,0.317190558765959
128,1.55815254733167,2.22447395324707,-0.807571346262435,-1.31453477924419,1.55815254733167,-0.0005503606816462,-0.0006770107889406,0.0008724909674284,-0.0372146975936621,-0.0895682840805449,0.0993471969088137,0.0064095923001381,0.129438163415978,0.129956222724424,15.380645545646,0.255162884145992,0,7.63910651606408,6.24169762743847,1,0.166160286235449,0.0473601890801623,0.125416970126934,0.552323783469475,1.13768672169208,0.0507176917436531,0.254133107529238,0.259491906291564,0.414535394248755,0.024453712692758,0.0145143901450471,,,,,1.57271803987998,-121.511109536876,1.61856071018832,HoldLanding,HoldLanding,0,0.441498590499997,0.150082273008327,0.106195640610078,0.961362500159047,0.284670263870416
129,2.60715535851227,3.0,-0.409351673435631,-2.54262735297517,2.60715535851227,0.0049064147558694,0.0055074735014635,0.0073759860443154,-0.017089619287669,-0.336659940890031,0.337631151929604,0.0217947290449043,0.195153690344501,0.19790128051379,15.2493872281838,0.154257181076239,0,4.84335801099271,6.06491848293017,1,0.112192018226031,0.102197647147402,0.115375412287935,1.83029101586133,0.87912059093108,0.036799892003967,0.123217169414364,0.188483632251781,0.493944865932813,1.73651964912402e-05,0.0214435927060492,,,,,3.0,-98.115524096488,1.96710786498821,AttemptLanding,AttemptLanding,1,0.734821685039362,0.0897423084428646,0.061650773005753,0.960311819944648,0.316229496776986
130,1.71985731666978,2.49018239974976,-0.92065497998933,-1.43147005854281,1.71985731666978,0.0004864179469437,-0.0043189024012417,0.0043462075848445,-0.0480695575423767,-0.104719395380942,0.118316983131165,0.0076323059130251,0.139146480812444,0.139779775300945,15.3886473026549,0.129653290852705,0,6.65564940110124,7.08116890391346,0,0.145065562300409,0.14671133166136,0.261544959878224,0.640117076069873,0.948272465877757,0.0570037282102999,0.250921692569518,0.134832663357335,0.388294605600553,0.0242988590646754,0.0171249961742023,,,,,1.70851046235541,-122.854304670078,1.7946125003405,HoldLanding,HoldLanding,0,0.486584572838796,0.174119948416884,0.121498733303837,0.959017932350976,0.340074371841184
131,1.52924522669506,2.354088306427,-0.821779403682603,-1.27058443976406,1.52924522669506,0.0066524203236123,0.0057375653084517,0.0087848933875579,-0.0394372983851086,-0.0881114500309871,0.0993588210153818,0.0064118795809054,0.132274676658036,0.132744562465073,15.3930281865721,0.195961923241408,1,4.43811682941978,9.79690312011288,1,0.139343389497326,0.0467467794638044,0.181817498505551,1.04512685433973,1.30613210709944,0.0759937333836158,0.250685694703683,0.15065361997679,0.442706719163802,0.0246660752515135,0.018644307020075,,,,,1.55679587126254,-123.368694018533,2.34519380233193,HoldLanding,HoldLanding,0,0.434347639611698,0.187200256727405,0.130062602155527,0.943528955754027,0.333042835565871
132,2.61897861798073,3.0,-0.618475638203089,-2.50905850151083,2.61897861798073,0.0076412169936446,0.0060145309784313,0.0097243395680362,-0.0299027730654642,-0.327771734409596,0.330414315292182,0.021325425949091,0.197722691633325,0.200453097591029,15.3787046464802,0.285188604141872,0,10.9080419136111,3.58466243533052,1,0.0945248743289096,0.167441680366186,0.251065696466161,1.04508771176268,1.60138175451121,0.0232891509342356,0.0842225346522131,0.174959770010497,0.423466040174073,0.0029446219304099,0.0056760389352303,,,,,3.0,-102.159208261726,1.57834603037747,AttemptLanding,AttemptLanding,1,0.7384849176464,0.0875126065418097,0.0558802989413114,0.967561735869302,0.322240102217557
133,1.68487755199361,2.3764169216156,-0.795838598338141,-1.46470175141953,1.68487755199361,0.0002838759696186,-0.0075809852585953,0.0075862983764921,-0.0366612268325065,-0.108432425192097,0.116744207618672,0.0075318496058396,0.135839594838306,0.13645034370319,15.3869797889885,0.175414462866046,0,7.75575621460509,3.03357428713301,0,0.051982561909942,0.118986180214538,0.134214371740757,0.637204985398155,1.12161709481244,0.0583921150650683,0.250331238344623,0.116193979651653,0.410371692296329,0.0246930543512174,0.0178850824052147,,,,,1.68420884954605,-119.152741236505,1.84064568189445,HoldLanding,HoldLanding,0,0.476590749272267,0.156987179533972,0.111670664872315,0.956984626122954,0.348358231265932
134,2.66767562207558,3.0,-0.615444763695623,-2.56291324118565,2.66767562207558,-0.024874007108065,-0.003632939995837,0.025137909273156,-0.0278311462617735,-0.34156788989425,0.343868057908655,0.0222062987328993,0.199403468787633,0.201460623466483,15.2377449557471,0.231706429238823,1,12.9265481693335,8.44297058655248,0,0.0654742205300143,0.056309734797125,0.101009199407735,2.01086335944879,0.876060818554861,0.0816331938441333,0.417443629097417,0.158474837401096,0.498713513745097,0.0244891605828194,0.0177181868271286,,,,,3.0,-101.974077911171,2.2115048807353,HoldLanding,HoldLanding,0,0.751672290580118,0.0793816017330727,0.0649560094380323,0.936500427393619,0.329566738932846
135,1.64358857517474,2.41262412071228,-0.778349710152334,-1.42891050702023,1.64358857517474,-0.0039274366013409,-0.0057208194129907,0.0069392026208783,-0.0347524956308652,-0.103644243319723,0.111490952985236,0.0071915742952968,0.135712854823812,0.136334154414814,15.4103979853777,0.148146472256904,0,8.60017519142458,4.3464980839468,0,0.122467730603534,0.143578284198246,0.165241807330396,0.586391285959568,0.971136082864797,0.0573323965175011,0.250583833033188,0.0992445176040808,0.371163244756257,0.0245573796486596,0.0172990474210612,,,,,1.64295583088074,-118.56675799978,1.80196985797084,HoldLanding,HoldLanding,0,0.465557117596227,0.174305184893108,0.121788064589392,0.959096086700487,0.355891325509297
136,1.54724219670663,2.22003746032715,-0.729931524935932,-1.35349559807582,1.54724219670663,0.0019788839705359,0.0021056918058678,0.0028896227695224,-0.0294071803289472,-0.096487402223886,0.101942667907633,0.0065769287811663,0.105296941442575,0.106099567757532,15.4000625546509,0.247859468677584,0,12.1076970647712,7.19123198415705,0,0.163816162797482,0.0482233646552778,0.0669638982894916,0.56083207441092,1.16599396306406,0.0305917783618223,0.110675404765349,0.109707530707588,0.369664807428946,0.0031945818634864,0.004996360950207,,,,,1.59091926420837,-117.420269890065,1.85762868563791,AttemptLanding,AttemptLanding,1,0.433817832673273,0.15190869848903,0.0943818917823156,0.971136191953214,0.351241097463294
137,1.65231752550113,2.43150615692139,-0.784459453912546,-1.42563413396877,1.65231752550113,0.0017406430245727,-0.0084046104471464,0.0085829665563415,-0.037758187340139,-0.105920148902252,0.11587598879428,0.0074759717285616,0.173035811344315,0.17358858803553,15.4109078243819,0.26727375805294,0,6.27340498501222,7.72413119631836,1,0.0924144584174762,0.113736072581051,0.11939823850071,0.863346019623361,0.977585774015533,0.0702406229015681,0.281296313348798,0.135704806935952,0.492195420162899,0.0439846731169741,0.0695501194587541,,,,,1.64400627564805,-119.681547410493,2.01722947960258,HoldLanding,HoldLanding,0,0.475335724407407,0.176890985938221,0.150974287700933,0.950415224456339,0.33968675247291
138,1.5214398048214,2.32834553718567,-0.759406603815669,-1.2996683838339,1.5214398048214,0.0042480623465194,-0.0166516445297133,0.017184973064973,-0.0341822128551389,-0.0869697233283011,0.0955521631366674,0.0061628799178929,0.123958279472324,0.124215541063414,15.3969985494596,0.201480898848672,0,10.0144836669269,3.48989676391262,1,0.14548552653489,0.167552299482241,0.199367978013208,0.833033715252479,0.64272604496563,0.0757141195923638,0.300042389711768,0.203966061667023,0.402807237166011,0.024836055394376,0.0169896595468294,,,,,1.60523562484629,-121.327745837078,1.89051363005764,HoldLanding,HoldLanding,0,0.43056038949839,0.184704368177205,0.128038925765297,0.950547684944962,0.309348417036879
139,2.62054687559007,3.0,-0.500758754197801,-2.53707927934885,2.62054687559007,0.0052465339784616,0.0050379077924271,0.0072736946397378,-0.0225971262694426,-0.334525554079822,0.33612821168518,0.0216866439309251,0.19330701538718,0.196031860097584,15.4141370189061,0.231626927108639,0,13.3688660333426,4.14674846594726,1,0.12387407449769,0.13118757392183,0.0541183347569713,1.08163256920136,1.0305725134612,0.0197880836947274,0.0680204785767361,0.258399971352016,0.394545793305201,0.0030970645394748,0.004817134651296,,,,,3.0,-99.6944273233563,1.5,AttemptLanding,AttemptLanding,1,0.738018872176868,0.0867104636761871,0.0551544366621118,0.973510061074573,0.285155568287993
140,1.50179468439176,2.26321649551392,-0.683055617423999,-1.32641595229745,1.50179468439176,-0.0004171524893619,0.0039304704581125,0.0039525452839248,-0.0268157535692526,-0.0921804815608683,0.0970532246860903,0.0062597892717094,0.111276269484051,0.111818197792688,15.3884462179608,0.266537216565187,0,7.53219277431102,9.88143870563202,1,0.110228298098404,0.0437918307975908,0.173259898419296,0.573583522263239,0.777642433920784,0.0470403287198474,0.251273283278248,0.224299492237508,0.31092513435892,0.0246207421901208,0.0160167513380534,,,,,1.52174770580897,-117.115006093661,1.54455592309465,HoldLanding,HoldLanding,0,0.422842222063006,0.172044540804539,0.119993549781059,0.965863060270059,0.30031133678333
141,1.60542398149317,2.53563117980957,-0.74911226474436,-1.39324052380681,1.60542398149317,-0.0011301528966269,-0.0111528326283109,0.0112099474220387,-0.0338842357322284,-0.0998711652773906,0.108590967870043,0.007007869717643,0.170317073241703,0.170871701837381,15.3877490951777,0.262065724235453,1,5.53177836420095,5.72343470157928,0,0.110483569927023,0.0591437270574288,0.18361276089311,1.18171254971222,1.01318803698609,0.0669898841328964,0.250795084041328,0.11221965151575,0.409866965727326,0.0245617019501675,0.0160192759330215,,,,,1.59025262603988,-118.88840106146,2.04920415196053,HoldLanding,HoldLanding,0,0.462287402098988,0.211351776648564,0.143552569215362,0.949259410466637,0.350124599326333
142,2.57350394638087,3.0,-0.631204486614773,-2.46377370326659,2.57350394638087,0.0048769479956521,0.0032085387848491,0.0058377515265876,-0.0292977408329813,-0.31741525983007,0.319918317239132,0.0206587099165759,0.205690774644804,0.208206590665114,15.357573812437,0.359711102177932,1,8.34903647117194,9.57062698541199,1,0.114040882297984,0.177700380311324,0.167383554772511,1.62648231444579,1.92151427029233,0.0503302927821275,0.165041230234078,0.196506557706775,0.561163604204159,0.0014326555701985,0.0187910028189576,,,,,2.86513009173103,-103.173390896604,2.49742986180789,AttemptLanding,AttemptLanding,1,0.727909037167921,0.0970318665108453,0.0656889476496507,0.946957737585994,0.312663752130322
143,1.77524194437548,2.60575771331787,-0.854432820104381,-1.54285400334325,1.77524194437548,-0.0013570435807285,0.001687898404312,0.0021657719878315,-0.0408389646076973,-0.122646156934645,0.130895099818892,0.008446360059594,0.122302870879104,0.123048235547186,15.392545436875,0.276441529355049,1,12.3797002328844,5.84259575698604,0,0.167888075453998,0.120245640997421,0.199073621171916,0.639509868840984,1.34675906047336,0.049536858981878,0.252461171032954,0.232900098801074,0.363313328680937,0.024341224983325,0.016761078848133,,,,,1.79248213278172,-118.827132255119,1.57274523745475,HoldLanding,HoldLanding,0,0.498007498942899,0.187263106209807,0.129271123703653,0.959625171778734,0.296488844977301
144,2.67687575910835,3.0,-0.70065006827282,-2.54456757644578,2.67687575910835,-0.0275567010903441,-0.0070029070962551,0.0284325954281587,-0.0337458715067643,-0.331740995038339,0.335133794776166,0.0216225686318987,0.20746891372941,0.209519299786435,15.3730550560689,0.20237947261374,1,7.17648247779148,9.29530258601428,0,0.059993242268555,0.166168810553935,0.1803954938944,1.03674218757674,0.967690578723506,0.0679404780767966,0.250983813853757,0.0941473000653747,0.386864041071415,0.0241945381758659,0.017316599213859,,,,,2.99065240368585,-103.652251957395,1.92886261388229,HoldLanding,HoldLanding,0,0.755737395719515,0.0779155966957829,0.0637994312643084,0.950280646369243,0.3581567555265
145,1.62407441073416,2.39895057678223,-0.728664795688187,-1.43201745540524,1.62407441073416,0.0034975649661036,3.98424340425061e-05,0.0034977918908457,-0.0313018622652892,-0.108321806784164,0.114855606787027,0.0074102754456889,0.138568433532109,0.139140817808064,15.3867848643895,0.271842976650837,0,14.1832891722367,3.23986054065398,0,0.0550634402255773,0.102147608770347,0.253016495161496,0.650217110598574,1.30125486514806,0.0730348882169335,0.251575095270607,0.0911008734629576,0.414929565448117,0.0247307199247759,0.0166396058585676,,,,,1.62717802274902,-117.276491250742,2.26633289539402,HoldLanding,HoldLanding,0,0.460914673090721,0.174988399207471,0.122035236368913,0.948149561796381,0.359510722905352
146,1.55966951456357,2.22554779052734,-0.693187261313522,-1.38521299521567,1.55966951456357,0.0028152465172345,0.0043246477918654,0.0051602511059528,-0.0269642099303781,-0.101028286174295,0.105623299096654,0.0068147921620575,0.110013683086872,0.110810008658927,15.3830795946147,0.142489181377899,0,6.31102848662319,7.13404596184151,1,0.102109156419713,0.11360490249107,0.256512594292769,0.56159408707742,1.39846999694132,0.0249971224437533,0.0921606852922022,0.142945616760576,0.327449202726737,0.0030615525695406,0.0048576009519841,,,,,1.57859786558615,-115.506330805141,1.64515337498987,AttemptLanding,AttemptLanding,1,0.438073872282071,0.15076865812794,0.0935882852538473,0.972100935260833,0.336468614773077
147,1.5397252921308,2.27783131599426,-0.673951305394465,-1.36774056251232,1.5397252921308,-0.0016563552567547,0.0001884218095192,0.0016670379464431,-0.0266940233988514,-0.0963916719581481,0.101510192159712,0.0065477489243533,0.125021844696769,0.12558373339131,15.416382666834,0.223603697185244,0,14.0789128877143,5.84941898530326,0,0.0323132000415218,0.127598686672965,0.245439329147765,0.576017329138735,0.978332462097192,0.0501598719742943,0.252233465041253,0.172729743115091,0.315217909571581,0.0247792610982411,0.0174464317555696,,,,,1.53737363016854,-116.223023798313,1.61406130647845,HoldLanding,HoldLanding,0,0.435710157913143,0.166379478992793,0.117184849330253,0.962707315653142,0.323231225282182
148,1.69219555735588,2.44034862518311,-0.742597955642786,-1.49991746217554,1.69219555735588,0.0024524081428463,-0.0047118148137931,0.0053118268551017,-0.0332541076836195,-0.114179515881843,0.120821033845562,0.0077931659530131,0.137761961756565,0.138431679808155,15.379005150813,0.220251748639445,0,5.85825766601834,8.20538635472292,1,0.0883513736038603,0.113551611893974,0.257095198863473,0.824334752559306,0.847914277627734,0.0544800171201668,0.250387289560574,0.12723223805905,0.352268422556045,0.0243634006769745,0.0161676330459979,,,,,1.68916796666871,-116.88139676066,1.72975051704358,HoldLanding,HoldLanding,0,0.478938484589866,0.169308275184561,0.118292282478846,0.959620891917018,0.343452338640422
149,2.60813377732816,3.0,-0.706884480820285,-2.47456268809786,2.60813377732816,0.0030364173916659,0.0059726220774368,0.0067001526144034,-0.0358148040382442,-0.319586617700557,0.32328345980285,0.0208769781547678,0.204936329464757,0.207497383052274,15.3227788042067,0.164462566778578,0,5.69004040495517,9.10267739721933,1,0.0480043878158931,0.0633598826903973,0.247354274488835,1.75833465827282,1.33714685704339,0.039426529693185,0.13268258244068,0.179521970909835,0.634251794813401,1.88367205904492e-06,0.0266295008924558,,,,,3.0,-104.467447061392,2.06347270131445,AttemptLanding,AttemptLanding,1,0.737001817231297,0.0893982614138047,0.0633232489058485,0.955965094675923,0.320212457373407
150,1.5202816027938,2.38907694816589,-0.696205091707253,-1.33468400504958,1.5202816027938,0.0054951712179381,0.0084903329953758,0.0101134890659368,-0.0288611600878682,-0.0977469342290156,0.10372370163376,0.0066918120296586,0.129332373410407,0.129848315404917,15.4223088646996,0.185894096894514,0,7.84291438504156,7.77434694415606,0,0.167747542496744,0.163649613038526,0.0503103818197522,0.555081224041219,1.33268625967199,0.0795662371483548,0.25122673998177,0.086237352161418,0.362140788889715,0.0247076558164956,0.0181188760870201,,,,,1.55740833368322,-117.762259987245,2.47039134427741,HoldLanding,HoldLanding,0,0.431378090492662,0.197333092370811,0.135969717998835,0.945384422625219,0.361672287928259
151,1.68053146234542,2.50135374069214,-0.762764631973635,-1.46708684754507,1.68053146234542,0.00137105604629,-0.0077594825886132,0.0078796804963818,-0.0372911400185299,-0.109451199638569,0.118780531020823,0.0076623401495972,0.174656268072474,0.175307395049353,15.3785005499717,0.252836546740359,0,4.24092039132679,7.06173835746137,1,0.174227333357882,0.113696660079645,0.247585196896058,0.620137002495588,1.13523349447725,0.0510290380246053,0.251350451380006,0.199357980918864,0.347530092916646,0.0250353544597607,0.0164825870945159,,,,,1.69101625912663,-117.811995946369,1.63305804051266,HoldLanding,HoldLanding,0,0.483203202301983,0.186129620719014,0.128798264670116,0.960693284225768,0.31139645292495
152,2.64967395835275,3.0,-0.575249254448006,-2.55426608288909,2.64967395835275,-0.0092402648438291,-0.0025605866573247,0.0095884878064153,-0.026275688257491,-0.338934932814863,0.340837314843669,0.0219919123934725,0.189271588482171,0.191950383152369,15.376410597056,0.240593467766778,0,9.00973445026439,4.18432327597887,1,0.159949438084624,0.137331971568394,0.136793131279787,1.09119888520279,1.07489566448809,0.0208533008492672,0.0722274754063072,0.287275711382007,0.472659357964368,0.0012943226775749,0.0050192048639177,,,,,3.0,-100.730250894483,1.52497150003793,AttemptLanding,AttemptLanding,1,0.744969798857873,0.0805812488018078,0.0507491692095123,0.972554035256367,0.272321906052441
153,1.59828017668929,2.50466871261597,-0.68926944660916,-1.41637828574206,1.59828017668929,0.0124177355513311,-0.0023849142150453,0.0126446815711554,-0.0315378815576195,-0.109885877567031,0.116912707591701,0.0075383560248852,0.17812241589585,0.17850895862503,15.498360290698,0.204181439573336,1,15.8165775613252,8.27554029007621,0,0.0580302929092868,0.175589206030594,0.0601881671900808,0.56782861940382,0.342124930797359,0.0789586107173202,0.304221105183926,0.0819328348786782,0.100508809990383,0.0243226083071833,0.0167733511870787,,,,,1.69086530869602,-115.481230513615,2.25766325097645,HoldLanding,HoldLanding,0,0.461909838842151,0.20625561220488,0.140662815891119,0.953371059604045,0.363585406720587
154,2.61872204491622,3.0,-0.868633267891409,-2.43075703039867,2.61872204491622,-0.0266321127732982,-0.0058566065708858,0.0272684666106442,-0.0448489324685531,-0.30560407056552,0.311679309824285,0.0201035699924615,0.215852748818047,0.217760276670791,15.4029679284838,0.228344450291546,0,9.63149423147905,6.70239153069582,0,0.157335726029486,0.163593998818965,0.055042837887805,0.975714651029196,0.787920448754977,0.0621847171135581,0.251169799054004,0.103159592988525,0.298603514890815,0.0248015850954205,0.0188139366843776,,,,,2.8660583108225,-107.999041467264,1.78989011359928,HoldLanding,HoldLanding,0,0.741877933978485,0.0907867587724676,0.0723364134941482,0.955050508516345,0.3541512920051
155,1.546877616379,2.2898736000061,-0.675473808466078,-1.3735066502843,1.546877616379,0.0010634692358197,-0.0026762287931057,0.0028797859935389,-0.0274363592018952,-0.096836387678746,0.102246182998853,0.0065953903855347,0.129200701500614,0.129759138524289,15.3777062279425,0.291212244506108,1,10.8519277785986,5.09855794889241,0,0.164655449340646,0.128914715655936,0.133850386847627,0.563370199239326,0.949636148197421,0.0544529036465946,0.250052238511739,0.113534518909269,0.371508174935386,0.0248204054709843,0.0174993691939366,,,,,1.56021062314875,-116.350158175446,1.7301618580241,HoldLanding,HoldLanding,0,0.438452525405923,0.167702057081581,0.118015932549,0.960885641161128,0.349540213818103
156,1.53024390589035,2.22056913375854,-0.670310864446616,-1.36506049071281,1.53024390589035,0.001272616262663,0.0025045736026525,0.0028093488717313,-0.0250276862655035,-0.0979350981545284,0.101959191651566,0.0065798405525261,0.106366403087017,0.107159949997653,15.3735250382347,0.287253881615056,1,14.6463366727191,3.23648815091469,0,0.12345746653841,0.174919439661238,0.234659651687977,0.56154741141453,1.63210370754272,0.0264053570593705,0.0938793194710351,0.207675163030513,0.37827981493595,0.0032207104884016,0.0047234422452686,,,,,1.5486906196655,-115.323008512155,1.6598397397793,AttemptLanding,AttemptLanding,1,0.42949703157029,0.155838223563495,0.0966519763837471,0.969561491249936,0.307699927541994
157,1.67455177009106,2.46262311935425,-0.760840662739889,-1.48108510741751,1.67455177009106,-0.0027934419577556,-0.0006020532624362,0.0028575839623989,-0.0322350779282071,-0.112932239944115,0.11853219338866,0.0076458451032705,0.114907640655536,0.115581277518819,15.3923657389468,0.168286300375088,0,11.4738657548565,7.0225067259995,1,0.0782679096415885,0.0356221944312156,0.0821965582451389,0.693364572684632,0.984213162697474,0.0493653814490393,0.252809586006564,0.203739567784366,0.338079605888456,0.0249149077101441,0.016861055013299,,,,,1.67963675962339,-116.752551926055,1.590174066916,HoldLanding,HoldLanding,0,0.469663394194712,0.177839943977324,0.123908551434123,0.962136341354621,0.309449080984726
158,1.49842250763296,2.2934787273407,-0.631574522547077,-1.3406133893024,1.49842250763296,0.00121271631952,0.0071875044569683,0.0072890946756487,-0.0249364201954431,-0.0957754128225698,0.100457272357063,0.0064805974176518,0.127804663385741,0.128332431447884,15.4046789455385,0.169783096414546,1,9.36762492145816,6.14497585593638,0,0.080405173349144,0.0470883054320366,0.0586304634943299,0.55084966741798,0.970485144213933,0.0487374381143116,0.253215444102101,0.231411856850632,0.350631905083099,0.0246406236133731,0.0169296950432141,,,,,1.53324749594495,-115.000864111301,1.5779035435986,HoldLanding,HoldLanding,0,0.425245821658366,0.18022398345811,0.125242031090463,0.963677935994308,0.297150285844164
159,2.523718409315,3.0,-0.727975946297548,-2.38396709418366,2.523718409315,0.0056572013852035,0.0043511998714445,0.0071370069240549,-0.0365836172740812,-0.298574685476511,0.302591844362614,0.019527755555967,0.209320954213974,0.211611060633419,15.3913135002044,0.200131467474452,0,12.8210171122868,7.26785442907913,0,0.12440586487135,0.126500943264869,0.173344837596551,0.995079009563091,1.49289488762137,0.0270338004843553,0.0967423283895217,0.182143997665192,0.383953505925915,0.0030720582983295,0.0045881667698841,,,,,2.78430276691677,-105.933145069938,1.72999402033711,AttemptLanding,AttemptLanding,1,0.715313787944017,0.108471809173535,0.0681168690277808,0.966934733422802,0.319047112148804
160,1.72380251876652,2.67936253547668,-0.738172824050087,-1.53026241506486,1.72380251876652,-0.00268656748211,-0.0165999918257228,0.0168159856520513,-0.0343211362210081,-0.118408007278509,0.126079962771459,0.0081409336486318,0.182152044089093,0.182803387530196,15.205222182532,0.272694821528677,1,13.8925377797785,8.16027964193334,0,0.0745049259853252,0.129286293821099,0.225723766773371,1.60934305233789,0.718237994600996,0.0657157112051552,0.248015607176794,0.153881687600945,0.568915779449504,0.0248071778343271,0.0170743513417729,,,,,1.68229936373703,-116.284080981345,1.9723782918185,HoldLanding,HoldLanding,0,0.496241349177111,0.218083934462663,0.148084628081782,0.948854007600045,0.331608138844025
161,1.61688871314173,2.43643450737,-0.734013077561201,-1.42086564753586,1.61688871314173,0.0005545206745919,0.0013069200927307,0.0014196947937261,-0.0325669560030884,-0.105394085722569,0.112288255572524,0.0072438938290022,0.137022689439047,0.137700069850011,15.4012029578205,0.222379946958222,1,4.11987256973235,7.89178628546323,0,0.0704360881841499,0.0810384125165772,0.251305643812358,0.590454089280885,1.03465963249693,0.0508608449099977,0.251203299312741,0.220526093231633,0.33102257029438,0.0246749950933232,0.0167414474325903,,,,,1.63445116181305,-117.268187683498,1.62976507706875,HoldLanding,HoldLanding,0,0.458710337474463,0.18465808108021,0.127849312200444,0.96180082687389,0.301988403008163
162,2.56262516217886,3.0,-0.659964365486877,-2.44204491944751,2.56262516217886,0.0068701331151931,0.0061832610608061,0.0092429133051519,-0.0321508646914948,-0.313106595633571,0.316228363233158,0.020423570835154,0.208271165033333,0.210690645613575,15.3470836193832,0.212827281842185,0,7.9245739828296,5.30873528293846,1,0.161616756062548,0.0622329230167962,0.205325356382322,1.72895096606421,1.94944237553494,0.0510209607843318,0.228573739474181,0.183941228536735,0.483117337027268,5.15828260231183e-07,0.0233368827673304,,,,,2.89081657121031,-103.869165643979,2.4661676180918,AttemptLanding,AttemptLanding,1,0.725504839037077,0.100103872615702,0.0685486920145458,0.945587857638126,0.318248342872562
163,1.66050360792427,2.46330070495605,-0.662601576424568,-1.49488320903445,1.66050360792427,0.0026370094040761,-0.0042087101296049,0.0049665943615545,-0.0288467532791114,-0.117936358666935,0.123859843428643,0.0079977681651049,0.177421180877215,0.178019580556361,15.2284647602135,0.288115554025708,0,8.640962489345,8.83675324146238,0,0.0469492181813172,0.0906326420697877,0.073739625237002,1.98577448331385,0.856849739209541,0.0710107896970461,0.250043359535554,0.168639431644484,0.536930212551225,0.0250603022038463,0.0179997247552827,,,,,1.64906171874729,-114.380640755355,2.15109792403422,HoldLanding,HoldLanding,0,0.47840487822441,0.181539889131771,0.126607200026127,0.942159700545936,0.32504914149134
164,2.61149054431185,3.0,-0.819035967519624,-2.44562515833446,2.61149054431185,-0.016552275900154,-0.0050520448055465,0.0173060970236524,-0.0398236667362825,-0.308200988879404,0.312927304894738,0.0201879458056601,0.208995889759065,0.210950812051245,15.3981539554767,0.230485930328747,0,15.5601215623544,8.40220111397322,1,0.119497072242292,0.12941867753398,0.181889092291167,1.01207873380909,1.03246177488687,0.0519990370935884,0.252140222796297,0.214370488507932,0.377782941173457,0.0244569107484034,0.0167908801514278,,,,,2.86974882840161,-107.409446170029,1.54559120341954,HoldLanding,HoldLanding,0,0.73858764089341,0.0905874119841691,0.0713279599014221,0.957936234599166,0.304724227329808
165,1.67610982345168,2.30248308181763,-0.774813417992491,-1.473313825444,1.67610982345168,0.0018926566002809,-0.0012266822538335,0.0022554153405652,-0.033746422059987,-0.113143324168587,0.119509786327807,0.0077096799489824,0.111594800225799,0.112208305877832,15.4017458985961,0.196886166050394,0,12.7130192754556,6.53418122857028,1,0.177492083147476,0.143000328380905,0.202169427709513,0.953505828646851,1.13672986559642,0.0730471245883552,0.25178808993509,0.183034748200899,0.388324359659344,0.0244135034807918,0.0162594464442938,,,,,1.70066438927445,-118.076140138163,2.25649810053425,HoldLanding,HoldLanding,0,0.469404280762681,0.141347475944775,0.101571457538071,0.947053157251054,0.318651223021823
166,1.54863814027812,2.25473976135254,-0.748951105013403,-1.33871499452721,1.54863814027812,0.0045287272739321,0.0015480782107365,0.0047860126272518,-0.0319402539960166,-0.0954412732504948,0.102472381714535,0.00661076537928,0.128324747248002,0.129084625708113,15.3952511588115,0.248873492344636,1,13.7380481906074,5.02129804539022,1,0.159960832545552,0.078861939476747,0.135422506999577,0.678385969236258,1.28610110059287,0.0240841368984626,0.0838210706631152,0.219419477380388,0.385582923392663,0.0030745298977503,0.005027619297486,,,,,1.5818755043575,-117.768128957132,1.6291007389276,AttemptLanding,AttemptLanding,1,0.438787095882454,0.159750300390074,0.0990448631654639,0.972522676002111,0.302480232275383
167,1.66424858455914,2.70215010643005,-0.675493591508031,-1.4952146282611,1.66424858455914,0.0054874711708685,-4.83175562878467e-05,0.0054876838864277,-0.0291134177357578,-0.124906994716548,0.130754940170387,0.0084340324058517,0.185680385506652,0.186262599658921,15.4473931438975,0.278397511979372,0,12.1284957608906,3.0920213445952,0,0.0548791717487639,0.0982510410928311,0.152625617424766,0.96043010235852,0.839317875316615,0.0909665032091765,0.278701335951183,0.112374836562384,0.287550658264748,0.066329516500923,0.0779488792503901,,,,,1.69973286844467,-114.60986311528,2.3847163321634,HoldLanding,HoldLanding,0,0.481052142480887,0.234533917800135,0.198545182791744,0.940375871427964,0.350055628194496
168,1.50442354638439,2.20143532752991,-0.690221945271376,-1.32462448206446,1.50442354638439,0.0035793801761112,0.0037301168211642,0.005169693796026,-0.0284099780380011,-0.0977449866715315,0.10307950208595,0.0066477466764593,0.11021518566936,0.110526182119155,15.4482378127972,0.268355846820448,0,4.95443367991847,5.65216543321539,0,0.0544009862728627,0.0856979944830237,0.142618747237035,0.742990140456499,0.757280973927447,0.102046377769498,0.468825598030964,0.10256662509709,0.322699820180853,0.0248187965347992,0.0173056090075105,,,,,1.60122796585367,-117.236533214506,2.34478157963962,HoldLanding,HoldLanding,0,0.423284848793002,0.157775427953679,0.1119887817399,0.937188966645091,0.354414833290182
169,2.50265546945425,3.0,-0.74884913614499,-2.35288836153327,2.50265546945425,0.0069745792107346,0.0036604118239226,0.007876761383178,-0.0388012511549764,-0.291592385395108,0.296221587288194,0.0191170180011947,0.217707983087523,0.21999191056822,15.3793542244352,0.16426475552249,0,12.2223343448646,9.80312363173365,0,0.166509726114739,0.136533716088421,0.156356583974346,0.975423376808921,1.47960956511619,0.0245675886019263,0.0840722419749865,0.236053160421038,0.377707719432952,0.0030835199383196,0.0050093392324651,,,,,2.73453280736877,-106.252064921566,1.63517990315553,AttemptLanding,AttemptLanding,1,0.711373173968111,0.113346592293043,0.0711999865844601,0.96842666115534,0.295087484257316
170,1.54676733614291,2.30430436134338,-0.65861680466079,-1.37621134607985,1.54676733614291,-0.0013972403379827,-0.0065861582213409,0.0067327379778677,-0.0269821101211414,-0.0994808165564448,0.105297793907014,0.0068046367302486,0.161968500725726,0.162477513682632,15.2271574991853,0.200660671886777,0,4.29412102066359,5.40636791555583,0,0.0871069142830772,0.156463834361645,0.0790431445959263,2.35718746580392,0.935237846773442,0.0750774886711235,0.252419174316045,0.211920632928201,0.602669399912063,0.0243776439261667,0.0174631573266745,,,,,1.52065859676889,-116.006588270425,2.1993319769039,HoldLanding,HoldLanding,0,0.444966792374634,0.17168016596605,0.120192847019141,0.936592199637045,0.305813052031911
