scenario_id,mean_wind_speed,max_wind_speed,wind_velocity_x,wind_velocity_y,wind_velocity,wind_acceleration_x,wind_acceleration_y,wind_acceleration,wind_body_force_x,wind_body_force_y,wind_body_force,mean_wind_body_risk,mean_wind_gust_risk,mean_wind_risk_raw,min_thrust_margin_n,mean_abs_roll_deg,mean_abs_pitch_deg,mean_abs_vz,max_abs_vz,mean_tag_error,max_tag_error,stability_std_z,stability_std_vz,mean_imu_ang_vel,max_imu_ang_vel,mean_imu_lin_acc,max_imu_lin_acc,wind_speed_cmd,wind_dir_cmd,hover_height_cmd,gt_safe_to_land,label,success,onto_wind_condition,onto_gust,onto_temporal_pattern,onto_drone_state,onto_tag_observation
1,2.03262926040053,2.74361443519592,-1.25315789742124,-1.5826011664238,2.03262926040053,-0.0529508452526133,0.017454849489961,0.0557535988406434,-0.0847022675814469,-0.131704744470375,0.160342529633137,0.0103412162588365,0.12300291282997,0.0441397252301766,15.4411903657436,1.13137208252967,1.05248022966911,0.175859803388366,0.240286378150635,0.144860993037693,0.414509484457018,0.156708071037462,0.0427531512891985,,,,,2.0716688985117,-127.374480982322,2.31472368639318,AttemptLanding,AttemptLanding,1,0.550862414486175,0.170193157449749,0.187310526510854,0.894911258709969,0.335617336427692
2,2.30375044107437,3.0,-1.39257914036837,-1.79623457597982,2.30375044107437,0.0087224602213253,0.0056052172787586,0.0103682097323838,-0.110416013036781,-0.174888676078463,0.216161625789034,0.0139419898714259,0.228216778403694,0.0782244264311063,15.4687262261908,1.28401280981172,1.45498076404744,0.0295011936393287,0.103458203892123,0.107658471136019,0.5328969650654,0.0046636854675071,0.0057986822700618,,,,,2.42882567996652,-126.095851442396,1.85119679182919,AttemptLanding,AttemptLanding,1,0.629978336239387,0.158556989209203,0.0993155543567599,0.963728739385728,0.352151790606214
3,1.80178998020671,2.85800814628601,-1.11372480199352,-1.3805449937795,1.80178998020671,-0.0889645505266803,0.0044507213252131,0.0890758113672222,-0.0725699129335522,-0.106674111097595,0.136031190879708,0.0087718589389459,0.188337246920938,0.0626414753335434,15.4653828927502,0.807203728036338,0.824930003413932,0.174943409679178,0.240262377064892,0.140275992453012,0.437875457060966,0.155897998683923,0.0385233255954031,,,,,1.87319628751653,-127.297520073929,1.5,AttemptLanding,AttemptLanding,1,0.493005623121832,0.253979652785166,0.235684273120868,0.899704387270445,0.337655114465328
4,2.36351970072862,3.0,-0.673134691744181,-2.23576645393833,2.36351970072862,-0.016844435273156,0.0074591766008062,0.0184221148415039,-0.0321279433079735,-0.271233881467097,0.274723178892834,0.0177237950539273,0.2273373766643,0.0806078695370391,15.4141212502869,1.59708210575144,1.51499783935561,0.0629489154762449,0.24020663877783,0.130001086270135,0.49824869440143,0.0019474581598924,0.0102129748869967,,,,,2.46779887999601,-105.553838771394,1.51497972630322,HoldLanding,HoldLanding,0,0.646393494101708,0.146585455057002,0.0925306190439704,0.944073485550322,0.342221739435495
5,1.84658912574353,2.52925992012024,-1.07863978366255,-1.48306316192764,1.84658912574353,-0.0426280982159751,0.0132882114446951,0.0446512185825846,-0.063421139929497,-0.116678555020973,0.135706092454541,0.0087512698953112,0.126885094694637,0.0441914173351089,15.467231276018,0.994392312109505,1.04773992951205,0.177352941783004,0.240244197375492,0.123980988590741,0.428738478118505,0.156518347671722,0.0426019529840013,,,,,1.88084050141636,-125.058018224367,1.83309445894708,AttemptLanding,AttemptLanding,1,0.501262050331963,0.1617869854749,0.182127520628171,0.8952782043529,0.344897338404115
6,1.87195543766022,2.89202499389648,-1.0339487183486,-1.52730884210655,1.87195543766022,0.0077868869386454,0.0043212968877249,0.0089055721313741,-0.0626026208512351,-0.126882767522345,0.147305319587461,0.0095020920717172,0.195044680833365,0.0651648687002116,15.4777740697994,1.58376307203682,1.55858325998516,0.0244107191568376,0.0476563728498452,0.107982768424147,0.435391137152858,0.0001564858673795,0.0051153702373138,,,,,1.9161886291726,-122.783489357006,2.09707220085173,AttemptLanding,AttemptLanding,1,0.512221090449434,0.231148338377245,0.140618686932489,0.963104776384266,0.352007658478157
7,1.90377569604082,2.74670314788818,-1.07264544829213,-1.55052773978853,1.90377569604082,-0.0507399562593564,0.0145049886751136,0.0527725104355154,-0.0640763305952519,-0.128793993783515,0.147852553828393,0.0095352421573746,0.154951042038901,0.0531599821218326,15.4697863238989,1.08889468727494,1.16521332020874,0.177235548426393,0.240267538817042,0.169938617129492,0.470696407605693,0.159510222510562,0.0358663052739841,,,,,1.96867067391655,-123.586570068552,2.24524761455888,AttemptLanding,AttemptLanding,1,0.518305515368586,0.199333636912168,0.20353590720112,0.893671377156575,0.324471725720226
8,1.90656172499365,2.79753017425537,-1.11594158852576,-1.52355240520553,1.90656172499365,-0.0471888278855148,0.0137859367224654,0.0491613418096431,-0.0689892269153189,-0.124317374386392,0.146380883738915,0.009441297708927,0.153455227935806,0.0526454767769909,15.4434592150119,1.18245065421898,1.27996170533661,0.176883449579014,0.240236659461475,0.167732767922217,0.53837488551235,0.15661230549896,0.0406135177125311,,,,,1.96461919299708,-125.030810267647,2.34780634060161,AttemptLanding,AttemptLanding,1,0.518945555353704,0.209480813748989,0.210062509255508,0.89221074952827,0.325452103145681
9,2.62622135599454,3.0,-0.823290337820754,-2.46063171929874,2.62622135599454,0.0071173316782273,0.0011629148239011,0.0072117113853472,-0.0441119054472537,-0.315135706589668,0.320353899825489,0.0206745633453071,0.19395125670258,0.072657571352489,15.4372248454521,2.17017128363152,1.85193413506398,0.0342965801331326,0.0584180312431164,0.133656026345528,0.456634968636584,0.0223091679673237,0.0051659500654712,,,,,2.98365709536118,-106.900241715489,1.61031925399391,AttemptLanding,AttemptLanding,1,0.714857209202376,0.0854223419885416,0.063047118252915,0.951249453072255,0.34059732162421
10,1.82317143394834,2.87711405754089,-1.09105895470623,-1.42845726769968,1.82317143394834,-0.0708887860537266,0.0064046465816984,0.0711775209318749,-0.0694409310842545,-0.113740015690824,0.13966183865796,0.0090065991810938,0.186497164011289,0.0622537686301524,15.4708508806382,1.03421132310181,1.09870103096758,0.176809929916606,0.240291630557406,0.164140354568288,0.481127951324912,0.159615056109441,0.0361592946515162,,,,,1.92399487038037,-126.353098118705,2.3498926722071,AttemptLanding,AttemptLanding,1,0.49862980277892,0.250186302479169,0.234200640843764,0.894836437974009,0.327048731302983
11,1.86664904055952,2.9015839099884,-1.16337058779579,-1.4248986482891,1.86664904055952,-0.0612620640867347,0.0235282190320921,0.0656248244720646,-0.0781178539235176,-0.111628163067193,0.143392490859153,0.0092466095022742,0.186825970446912,0.0625204177856656,15.4875898558114,0.824999933153443,0.92945152595718,0.176420098484511,0.240256541704419,0.168179665200606,0.469147925195683,0.158560005269718,0.0348609337849981,,,,,1.90759543141243,-127.844704273722,2.11741114834703,AttemptLanding,AttemptLanding,1,0.510277161039672,0.244891563441377,0.230082754712579,0.89800497500759,0.325253482133064
12,2.62331924359004,3.0,-0.785997981072447,-2.46937575420913,2.62331924359004,0.0065620137982446,0.0036971807143154,0.0075318769455334,-0.0411635568595736,-0.317226552390309,0.321874251508676,0.0207704258187096,0.192901072698195,0.0724096198825551,15.4342007318087,2.06765841180848,1.84552313130032,0.0149719810774042,0.0748308849677687,0.130034930542405,0.52356271316635,0.000206651934022,0.0050426469230652,,,,,3.0,-106.299635778902,2.46169421676451,AttemptLanding,AttemptLanding,1,0.714033722267188,0.0861340142989228,0.053605943673569,0.961767583051157,0.342206697536709
13,1.96053620990442,2.94999146461487,-1.03292538067899,-1.64524353446669,1.96053620990442,-0.0582339490289563,0.0113037282910639,0.0593208824343104,-0.0599462427610596,-0.144336743130413,0.159796458812509,0.0103041183965118,0.149287699317257,0.0519991926727354,15.4797080335116,0.892990104953298,0.742048052731801,0.176515376869116,0.240260937679119,0.142580940966384,0.379399358130494,0.159375834253452,0.035419806871794,,,,,2.02726066309477,-121.319262228342,2.26009265785422,AttemptLanding,AttemptLanding,1,0.533209494509058,0.233502927422808,0.223815390337892,0.898895583183631,0.336630692903829
14,2.66932131538113,3.0,-0.712902585024784,-2.53770883057596,2.66932131538113,-0.0215120372039252,-0.0113901349102092,0.024341382827108,-0.0350983754342623,-0.328475602606581,0.332093037014095,0.0214230790139572,0.204848608366307,0.0764507378196621,15.4610581673484,1.59207047054506,1.42362945546043,0.0629627297853402,0.240389709390068,0.111509193884776,0.44291663324547,0.0018872534579799,0.0091552003828962,,,,,2.96211416560549,-104.652706865072,1.92335436811124,HoldLanding,HoldLanding,0,0.727109164998901,0.0788652908908815,0.0514871176247853,0.94482384997443,0.350440358273433
15,1.71845262715606,2.50535655021667,-0.916962448446012,-1.44039575301169,1.71845262715606,-0.0486844787807691,-0.0045800467164297,0.0488994407133644,-0.0460196325765523,-0.109190762961122,0.120373180689896,0.0077628048464513,0.116048278308325,0.0402484468850136,15.477001668662,1.0202243707612,1.02812762616868,0.177259028508806,0.240201466368079,0.194612982614267,0.446834452367076,0.158617204191157,0.0346063297584288,,,,,1.78867162897179,-121.8764556945,1.65443055282994,AttemptLanding,AttemptLanding,1,0.466303723285285,0.186018280152756,0.194691623199879,0.895276291484005,0.313505341060326
16,1.76111277202765,2.52726268768311,-1.0015349286031,-1.42811408085515,1.76111277202765,0.0060270169966258,0.0050051685190617,0.0078343248453088,-0.0558229905871597,-0.108544670609344,0.125445240913027,0.0080918786502283,0.147816932211296,0.0500093947185487,15.4675876027772,1.61490701659044,1.68325122557141,0.0294884037951313,0.0517405491054212,0.105473404088085,0.416122887869194,0.0082468067900946,0.0093958271822383,,,,,1.79698325918466,-123.928221238646,1.87769127257742,AttemptLanding,AttemptLanding,1,0.479631951484417,0.173820023910784,0.111373926238639,0.959341697628306,0.353122931516407
17,1.85947096753283,2.59788465499878,-1.02233306755368,-1.53081232020682,1.85947096753283,-0.0505911743406331,0.007825138066484,0.0511927700649601,-0.0587099878601983,-0.125924252022857,0.142655664185729,0.0091989998892335,0.154875475847447,0.0529019426766975,15.4741468702016,0.907169239667869,0.97144899058053,0.177238110062848,0.24025685508738,0.144754080590801,0.419579243729842,0.159470227080402,0.0362163634134332,,,,,1.90606506718967,-122.683382350962,1.64072899666863,AttemptLanding,AttemptLanding,1,0.50643931321076,0.175528420858415,0.189362295691022,0.896620373159481,0.335664853070755
18,1.83912152335757,2.47580218315125,-1.04746997973122,-1.49902432491885,1.83912152335757,-0.0515345044734241,0.0014244399588135,0.0515541868379052,-0.0599050103416807,-0.119004908695103,0.135392253964901,0.0087310048514302,0.123049923226098,0.0430266803638306,15.4770583187654,0.937625540519618,0.87017892695905,0.177291022724622,0.240247024045261,0.153835221016126,0.42070381713028,0.159317817897976,0.0376431022676547,,,,,1.87952489310621,-124.36494621675,1.96628163164803,AttemptLanding,AttemptLanding,1,0.499037742301452,0.152704749373859,0.176119169514684,0.897150310678928,0.3316287906595
19,2.6266607495149,3.0,-0.781357912891749,-2.47581615187853,2.6266607495149,0.0078242217968057,0.0009333605775722,0.0078796959772174,-0.0402934018475694,-0.318783697135085,0.323151014301415,0.0208511462040822,0.190226306471861,0.0716636942844159,15.4534008456289,1.94455865211011,1.73481961967803,0.0192814485808176,0.0468815547132193,0.128245890255886,0.435936739508747,0.0004043895569884,0.0073639022927506,,,,,3.0,-106.031594526481,2.30069231309687,AttemptLanding,AttemptLanding,1,0.714775605394189,0.0854459422883046,0.0541250767168869,0.961449875002684,0.34300182655294
20,1.87844185804834,2.94009494781494,-1.01094819871731,-1.5527340323607,1.87844185804834,-0.0674864612019611,0.0084900342113893,0.0680184028515398,-0.0603832093502773,-0.13261831409434,0.150816746307006,0.0097253766000812,0.186116242861521,0.0626426364785132,15.4706348852315,0.927658685445363,0.897970004061579,0.177099008386859,0.240250126511576,0.151513927874923,0.437359077729622,0.159327790010761,0.0382125433302879,,,,,1.95533603544456,-121.682915799118,2.25428552181628,AttemptLanding,AttemptLanding,1,0.513446356108594,0.251341985720267,0.235513012849977,0.897106270389016,0.332660476500034
21,1.96892226391098,2.57515978813171,-1.08611300913711,-1.62543274116209,1.96892226391098,-0.0580725664624098,0.0051317826694835,0.0582988693620881,-0.0641357691485038,-0.140139340539638,0.157058573615893,0.010127532917659,0.136720287256198,0.0481053592192208,15.489524024173,0.854596580322241,1.04092365906013,0.176436343832288,0.240282063204074,0.160203144300193,0.424334891247067,0.159716925365053,0.0365652875443879,,,,,2.01006102178809,-122.843348050567,2.00129791929373,AttemptLanding,AttemptLanding,1,0.534667008886773,0.147091568999381,0.172536709759834,0.896888454774423,0.328798602533248
22,2.62651836474737,3.0,-0.736112696805247,-2.48564701350234,2.62651836474737,0.0065221268034809,0.0006076492718377,0.0065503721786055,-0.0378317245394461,-0.321462896699188,0.325491845803586,0.0209981514829553,0.19889792144902,0.0743680824727748,15.4612116347024,1.65790877239547,1.71698219031787,0.0227155334961897,0.0591321632466949,0.120038733393373,0.439913488101079,0.0002460288636863,0.0072427068152577,,,,,3.0,-105.373889448931,2.17823144927635,AttemptLanding,AttemptLanding,1,0.715278513760519,0.0852342694979205,0.0538836194295753,0.962125232830586,0.346649451825167
23,1.71794973182029,2.31645178794861,-0.838332294091742,-1.484300843163,1.71794973182029,-0.0391546535454527,0.0109605153761191,0.0406598056017804,-0.0388683916503146,-0.116646726499698,0.124720631119792,0.0080427843190663,0.122978169612324,0.0425233999070437,15.4674429096862,0.985481221650421,0.919181742740961,0.175940161318104,0.240214375749471,0.132357025185976,0.460550739793837,0.15911008079424,0.0344268898113043,,,,,1.75191981509009,-118.497538474994,1.74735947920765,AttemptLanding,AttemptLanding,1,0.466624608466821,0.14211726032253,0.168504816679917,0.897064710335016,0.3411746554729
24,2.68934557374549,3.0,-0.624045858034662,-2.58216343335672,2.68934557374549,-0.0260810051538829,-0.0097680231551416,0.0278501904157988,-0.0278077974234227,-0.340872690729632,0.343172321470677,0.0221410029602266,0.199474305862192,0.0753409938308162,15.4317158572767,1.74651537030736,1.36154717938959,0.0630058956061228,0.240273728217298,0.11577616808894,0.507849977707354,0.001893361049401,0.0074950085688017,,,,,3.0,-102.185830974197,1.9720149462504,HoldLanding,HoldLanding,0,0.732227018431627,0.0750031141501617,0.0485688199512133,0.944076560735034,0.348543925293805
25,1.72111279177828,2.69444680213928,-0.934493883715937,-1.4178038048217,1.72111279177828,-0.05821808376659,0.007110689148881,0.0586507218849496,-0.0518095327872459,-0.110740531069492,0.126547007352695,0.0081620121942911,0.177276909455835,0.0588964813727543,15.4193055535242,1.20908853805644,1.25475418570674,0.177143813752869,0.240256853960211,0.178311229160486,0.490783831507315,0.158717028956262,0.037125475577123,,,,,1.79680657025774,-122.144595008979,1.57909573402884,AttemptLanding,AttemptLanding,1,0.470742707415425,0.2297527846768,0.221892745501554,0.892069328865426,0.320750564817562
26,1.84654391888392,2.55510234832764,-1.03142795334609,-1.5185255186722,1.84654391888392,0.0044584527021301,0.0011651081890475,0.0046081750823202,-0.0575791373993649,-0.120835786131215,0.135994073711264,0.0087769563062123,0.122512310686754,0.042897562620375,15.3893660901579,2.14120346172839,2.30614971765085,0.0251879376287441,0.0751574175323938,0.147032915313493,0.538598731262307,0.0175718749541884,0.0062360889309381,,,,,1.89015622586425,-123.159855511628,1.60088848589372,AttemptLanding,AttemptLanding,1,0.500991224226454,0.160270478723262,0.106239678137978,0.952462541919077,0.334652037638448
27,1.72787829933551,2.46813035011292,-0.821144722016595,-1.50191844674554,1.72787829933551,-0.0492694269683904,0.0200759264632537,0.0532026245325503,-0.0384714649527956,-0.120267129755225,0.128468065529659,0.0082841481517643,0.139920425134457,0.047775031246572,15.4826856304848,0.906159093704371,0.869517969201074,0.175341224429469,0.24022514989477,0.153768001890247,0.387792349697308,0.157593389332177,0.0386171216582503,,,,,1.77620387229689,-117.832865156267,1.6314802872153,AttemptLanding,AttemptLanding,1,0.470322552738782,0.176310525922551,0.189870411617297,0.898377639433866,0.331658665826557
28,1.69764756511998,2.42523980140686,-0.963043897726721,-1.37504449950505,1.69764756511998,-0.0570493819716015,0.0096510058246471,0.0578599507152319,-0.0532223979763015,-0.10299181518856,0.119731049058186,0.0077210354678437,0.14285056674396,0.0482598948506786,15.4737169078523,0.911945269198924,0.942156303022628,0.175606694774727,0.240235894199546,0.158228232441334,0.435154403439354,0.159455596919859,0.0363558408231066,,,,,1.77693740749085,-123.63065316624,1.62629109835647,AttemptLanding,AttemptLanding,1,0.462357996335462,0.174315910795675,0.188679006417866,0.897628711688038,0.329676341137185
29,2.6226664408048,3.0,-0.519468870830687,-2.53747249188951,2.6226664408048,0.0076377123740621,0.0031316495800884,0.0082548094709308,-0.0233007578515848,-0.334822361469303,0.336545267748496,0.0217090832103535,0.193731709284871,0.0733158710327088,15.4529995889761,1.52300892875425,1.18161470111505,0.0326741298061639,0.0514358403415,0.107987222049082,0.394402431188614,0.0183504704018966,0.004463540099634,,,,,3.0,-100.208461528465,1.6713585263859,AttemptLanding,AttemptLanding,1,0.714040891754488,0.0864134325552574,0.0616269296469956,0.962412320862231,0.352005679089297
30,1.8523470755337,2.50808763504028,-0.936011446485931,-1.58487263515769,1.8523470755337,-0.0444791577632184,-0.0006019553375283,0.0444832308353795,-0.0478074751361625,-0.133110680489059,0.143280023638877,0.009239095763533,0.124476942249192,0.0438104497092306,15.4734490343359,0.888192670939914,0.638991963266208,0.176734215494213,0.2402082171528,0.13197789545231,0.37053003193212,0.159502838527449,0.0366665944578491,,,,,1.90894849737311,-119.745808657761,1.73022074702861,AttemptLanding,AttemptLanding,1,0.502721310084167,0.155696884875466,0.177641588457505,0.899633584412703,0.341343157576751
31,1.90919496007517,2.88367772102356,-0.947615909849239,-1.64126697347797,1.90919496007517,-0.0497037881278729,-0.0104333588920671,0.0507870212951218,-0.049998630023043,-0.142328209336876,0.153013313988925,0.0098662356625804,0.131039939553524,0.0462183468298636,15.4932135364916,0.801092558377131,0.924633564806747,0.176136501477747,0.240254410404445,0.140645869729377,0.492845481053091,0.159380227217146,0.0357673740232035,,,,,1.95935225919259,-119.13516242978,2.45558849173796,AttemptLanding,AttemptLanding,1,0.518362325386018,0.228569575117493,0.220983719438069,0.898372472578967,0.337490724564722
32,2.62083198229472,3.0,-0.647161702872135,-2.50368484619637,2.62083198229472,0.0061514710206723,0.0045981833324002,0.0076800967231236,-0.0317464016671298,-0.326162087820595,0.329140197776858,0.0212337233548499,0.200952369545718,0.0751493172121104,15.4619202777301,1.68735223497951,1.66628262871903,0.024671477954724,0.0524122620199591,0.111947257288703,0.410713453612452,0.0002085785760345,0.0058113426387779,,,,,3.0,-103.01941117063,2.07116358683765,AttemptLanding,AttemptLanding,1,0.713918392054347,0.0867208217162611,0.0542384101241155,0.961314272807864,0.950245663427243
33,1.88012569534535,2.86370778083801,-0.814860875521352,-1.67315807128555,1.88012569534535,-0.0584653189999553,-0.0097357382418116,0.0592703815145441,-0.0390823710356797,-0.14952758854693,0.156823935560518,0.010111946694954,0.159270819501268,0.0548596085368483,15.4942735111636,0.823120665232427,0.766212743652943,0.176964754454676,0.240290205281517,0.139043582605508,0.390822467856922,0.156664109754306,0.0427475217727755,,,,,1.93692079365451,-115.089103932968,2.07316620263479,AttemptLanding,AttemptLanding,1,0.512338773799464,0.232172205846848,0.224476370104163,0.89903000313142,0.33820285217533
34,2.63166948432606,3.0,-0.555704591779211,-2.53881041968468,2.63166948432606,-0.0178036943110248,0.0037156346729234,0.0181872887518467,-0.0260291898029014,-0.339993460201985,0.342026274191425,0.0220629445421712,0.205431995066733,0.0770736596995396,15.4664926112516,1.52044385408961,1.14659079556129,0.063135562888028,0.240464886748683,0.110566821471173,0.43066908111579,0.0019346953324754,0.0108141919430087,,,,,3.0,-101.157933097739,2.16339357388836,HoldLanding,HoldLanding,0,0.717193261093524,0.0862087022978084,0.0565175194047177,0.947476946308729,0.350859190457256
35,1.78295396825894,2.67335438728333,-0.797486109662715,-1.56902482082823,1.78295396825894,-0.0621778448549466,0.0022338288820464,0.0622179586797901,-0.0388574749932674,-0.135901049695926,0.144143691425021,0.0092947646497781,0.187437346791044,0.0627375392921578,15.4874543304967,0.862150609682506,0.874508721122093,0.176687485419801,0.240283716796389,0.16116413281116,0.411447396222458,0.159429591830059,0.0358372260224158,,,,,1.86137587595629,-115.841095627455,1.5,AttemptLanding,AttemptLanding,1,0.48800189939415,0.211746720038448,0.210937346945589,0.898011076833778,0.328371496528373
36,1.9492732890447,2.96228194236755,-0.882635804566377,-1.70779423583621,1.9492732890447,0.0043100121718027,0.0009869673606241,0.0044215731919787,-0.0477965664105566,-0.157443319818415,0.168132165688971,0.0108457745874734,0.205182054867842,0.0691466586715841,15.4695092073175,1.57594243787855,1.64862555123409,0.0181810614342154,0.0499834107682986,0.114630251390617,0.431377854308081,0.0002051363997001,0.0050734792255151,,,,,2.00134863438598,-116.022448666907,2.32518179031863,AttemptLanding,AttemptLanding,1,0.533635542146236,0.228737568749505,0.139178614519454,0.965573577939864,0.94905322160417
37,1.79117906336882,2.50224256515503,-0.803645953988804,-1.58896623577998,1.79117906336882,-0.0435551666685927,-9.21614772271594e-05,0.0435552641739982,-0.0361462112491245,-0.133520424339068,0.139583889272076,0.0090011834190196,0.127219333240837,0.0444666283655649,15.4621264551715,0.932665932019626,0.982033815034059,0.177549369962992,0.240225601917077,0.147149194094581,0.440999621902755,0.159505916079251,0.0374501083568076,,,,,1.84847057739295,-116.145839673518,1.78697167867732,AttemptLanding,AttemptLanding,1,0.486541075904797,0.167974419667131,0.185294391278381,0.896181245577368,0.334600358180186
38,1.95451919967625,2.65141463279724,-0.762041879336596,-1.78708855458716,1.95451919967625,-0.0403203005028617,0.0110591076097171,0.0418094545977866,-0.0327868639040571,-0.168590076645025,0.172806047569508,0.0111423578011979,0.131096770742328,0.047128681683537,15.5011637101088,0.787944036955791,0.689832727903967,0.177016766256945,0.24025513484814,0.125238038826682,0.419226738587098,0.159521169691197,0.0375880586417775,,,,,1.9993932608471,-112.620106358339,2.31527191027329,AttemptLanding,AttemptLanding,1,0.530630856250375,0.164466539128483,0.183246606078268,0.899880513719058,0.344338649410364
39,2.63203233997027,3.0,-0.621293984651868,-2.52469525816232,2.63203233997027,0.0068574765624638,0.0041694270082338,0.0080255284176016,-0.0292746076836459,-0.331348365966152,0.333816155857536,0.021533176338955,0.197626889205936,0.0743612901990491,15.4584408181206,1.61058853558869,1.61574479224528,0.0215638418484518,0.0494188867759301,0.109812488366872,0.440372201642423,0.0001425266774683,0.0068118618044114,,,,,2.9987372183553,-102.731971335258,2.17798496982967,AttemptLanding,AttemptLanding,1,0.716747548698549,0.0842640703832494,0.0530988280760852,0.963868317214222,0.951194449614724
40,1.88984137976251,2.48566007614136,-0.284076133295396,-1.85544643622453,1.88984137976251,-0.0438938987223967,-0.0148616174243099,0.0463415797909239,-0.00689993423265,-0.180334032213305,0.180609539118944,0.011646907265654,0.123803236051303,0.0452938059013487,15.4831029324808,1.05706577984437,0.74797313324287,0.177553528197393,0.240228286032661,0.15627233796478,0.425425314671813,0.15956528175653,0.0375238375130473,,,,,1.96262077332345,-97.9255988407311,2.42128570702001,AttemptLanding,AttemptLanding,1,0.513016462450272,0.142555162980244,0.170096032613975,0.897040787298475,0.330545627571209
41,1.87643422399248,2.72820806503296,-0.261808959404002,-1.83937034052448,1.87643422399248,-0.0556200814710438,-0.0123768772213137,0.0569805278371219,-0.0072168996212024,-0.17966461619999,0.179994471870809,0.0116095472703777,0.150803783939088,0.0533678182709906,15.4531179252769,1.25513390256636,0.984441146581583,0.176467236445788,0.240264879828095,0.162238473722695,0.467083725233587,0.15668743329763,0.0409245768022315,,,,,1.94919332297993,-97.076725643542,1.85111654568065,AttemptLanding,AttemptLanding,1,0.511056023385527,0.202095544337579,0.205777850137659,0.894169720676658,0.327894011678802
42,2.61096410791079,3.0,-0.631885105375931,-2.49808163592956,2.61096410791079,0.0094017176868481,0.0062346993439833,0.0112811245615435,-0.0304686829504069,-0.324952590217209,0.327661831069366,0.0211400960512209,0.199103397739802,0.0745290865577952,15.4563936410774,1.85124130396081,1.68656365004673,0.0188727177577311,0.0521999209456867,0.126881795086095,0.42406536109718,0.0003189361767345,0.0061092734867593,,,,,2.97766096785849,-102.83550377438,2.27802616031671,AttemptLanding,AttemptLanding,1,0.711162912754437,0.0896012818896881,0.0561240725408801,0.962766602196789,0.343608091072847
43,1.82962237409994,2.65058588981628,-0.237308077816805,-1.7958382524753,1.82962237409994,-0.0513678244595044,-0.0213390372560633,0.055623806959953,-0.0066164089569329,-0.170737892602589,0.171052325789013,0.0110305747156855,0.147659212574141,0.0520191660732222,15.4836265228053,1.01582177734775,0.784894346064873,0.177476708860529,0.240226049827643,0.175694120189839,0.408172002043336,0.159525695557883,0.0367632784530437,,,,,1.87761184680711,-96.9149867627548,2.10125801040714,AttemptLanding,AttemptLanding,1,0.498303132974628,0.194914488978836,0.201217467416154,0.897113161742922,0.321913724360071
44,2.50413094784593,3.0,-0.599011850925877,-2.399133332459,2.50413094784593,-0.0180736972783359,0.003241276931306,0.0183620371814879,-0.02806383007894,-0.30883497651031,0.31133668730089,0.0200862911884498,0.224332870123893,0.0813602648690827,15.4076793976949,1.68823809626027,1.47047541221161,0.063257906051576,0.240435760442919,0.120820724048058,0.476227977693584,0.0019442088073102,0.0079670198610322,,,,,2.70268226585959,-102.84402520654,2.08845117087826,HoldLanding,HoldLanding,0,0.684040305732732,0.114936910217938,0.0727233370652962,0.943552583693361,0.346301900423085
45,1.68309871112408,2.40096998214722,-0.249911785728873,-1.64699623831948,1.68309871112408,-0.0507485980484394,-0.0172612340876016,0.0536038282784826,-0.00658261327196,-0.144748756141981,0.14506735322392,0.0093562139729076,0.137817480613076,0.0478945939649582,15.4542124044465,1.16983518887365,0.97635300644838,0.176792242509239,0.240195166045687,0.148314132330681,0.460054687222777,0.156609730537309,0.0410169341062601,,,,,1.74484723470437,-96.8322370152764,2.26990776847239,AttemptLanding,AttemptLanding,1,0.458405241759414,0.171348404497927,0.187328616147917,0.894740971496422,0.334082607853031
46,1.68252928753694,2.6003725528717,-0.247153339402041,-1.64168373166761,1.68252928753694,0.0061597971539042,0.0066518880926091,0.0090659095613094,-0.0073497437956698,-0.145006475642733,0.145440093480403,0.0093838864798722,0.173830948574779,0.0587180051083442,15.4453177576567,1.88894501923786,1.80677504942451,0.0270179432697295,0.054111063629959,0.123769453122706,0.402871192260474,0.0009084772065652,0.004972722928715,,,,,1.71876069037497,-96.5690723186371,1.95911244324312,AttemptLanding,AttemptLanding,1,0.460418077698186,0.208176818119896,0.127118121402469,0.957453227825645,0.344991354167686
47,1.76769808765982,2.47714996337891,-0.145683574312694,-1.75110170828604,1.76769808765982,-0.0366924084804521,-0.0140580506039648,0.0392932771206473,-0.0026437564224872,-0.161851498273562,0.161911991988602,0.0104405764496138,0.13012596282615,0.0463461923625747,15.4813804961204,0.905840494584611,0.624308395327351,0.17677179393722,0.240194098221646,0.111328504844549,0.364060736001583,0.15968125044676,0.0373746684640651,,,,,1.8330973949862,-93.5355183886098,2.15673869019834,AttemptLanding,AttemptLanding,1,0.480655395181801,0.166830439508912,0.184658496880739,0.899591504610653,0.350520664513534
48,1.70381994798881,2.48436212539673,-0.201467225850133,-1.67460450941166,1.70381994798881,-0.0460791485694816,-0.0196572068784836,0.0500968433651449,-0.0049699393976965,-0.149372130733406,0.149580720079007,0.0096452174522967,0.137311707554604,0.0479451644829889,15.495819130691,0.835995463779542,0.696947328144007,0.176918406506687,0.24021841636785,0.142692585805578,0.385622742849695,0.159280618288633,0.0334516200285188,,,,,1.76093856199151,-95.8152911333806,2.44585238718517,AttemptLanding,AttemptLanding,1,0.463941019026947,0.184806411200392,0.19383945809121,0.899496246238686,0.336581072975298
49,2.62354670643806,3.0,-0.671688449735983,-2.50367396911015,2.62354670643806,0.0084724523727235,0.0028382107683902,0.0089352050661344,-0.0323768462283954,-0.3261831003241,0.329186327618383,0.021234722490296,0.192257092596543,0.0725414335221701,15.4661613689522,1.56410986108948,1.49449730246696,0.0323625756429097,0.04794154715449,0.103495228458484,0.406492074129045,0.0244090196932404,0.0051552751561792,,,,,3.0,-103.690253195533,1.57805451142438,AttemptLanding,AttemptLanding,1,0.714120741754585,0.0863401119802268,0.0645271658964697,0.959786798750602,0.354002120685118
50,1.6604218393767,2.26904511451721,-0.159013781715234,-1.64372497882112,1.6604218393767,-0.0309588459910408,-0.0221600604515568,0.0380725416056459,-0.0027635365363945,-0.143011334574423,0.143076896572974,0.0092255575553798,0.119115489248231,0.0421925370632354,15.4980068454904,0.796878850337209,0.522093062736807,0.176526971325735,0.240211445383925,0.14022650542813,0.406270630301784,0.159370430663636,0.0373657964448245,,,,,1.72627812567413,-94.411640590645,2.41023368614325,AttemptLanding,AttemptLanding,1,0.451217664579766,0.143920202867651,0.170770986581335,0.901373163591551,0.337677108698609
51,1.60923861159759,2.24144172668457,-0.135319795192706,-1.59315018597738,1.60923861159759,-0.0307020641255299,-0.0042272744841749,0.0309917181055311,-0.0024785536633441,-0.133936299672985,0.134004197792358,0.0086408438461333,0.110815582872843,0.0392932655541462,15.4855787272879,0.860529985325644,0.595469817381913,0.175776090961378,0.24017712260858,0.116134882419148,0.410895732761841,0.159406460045231,0.0371029929470629,,,,,1.64198518080473,-93.7945426045898,1.66795294549335,AttemptLanding,AttemptLanding,1,0.436988949536854,0.147927515880584,0.173095822539304,0.900671956069466,0.348384496702601
52,2.61799554616813,3.0,-0.643148907428888,-2.50582910368966,2.61799554616813,0.004466310067411,0.0024383007799434,0.0050885397032675,-0.0306013539795345,-0.327880006625832,0.330618478616059,0.021335549701636,0.194683556886522,0.073339951857102,15.4478481693935,2.09357242194321,2.14589909130942,0.022178898776214,0.0642543864236754,0.147649546883293,0.446172666065444,0.0133774114098131,0.0091474535923316,,,,,3.0,-102.899260755177,2.05343064031473,AttemptLanding,AttemptLanding,1,0.712800136016255,0.08688390105777,0.061402203577649,0.955600417293479,0.334377979162981
53,1.70069744682952,2.57339787483215,-0.153384565285468,-1.67545382616513,1.70069744682952,-0.0578297270120344,-0.0190206071792928,0.0608774245821502,-0.0036802439328223,-0.151411008760363,0.151558402923891,0.0097726196059559,0.134699534402282,0.0472506940448537,15.4961595099806,0.822858410300252,0.577169080096414,0.174584952369924,0.240234225591134,0.136595849837171,0.351593509941533,0.159751228449724,0.0353883286368146,,,,,1.76767167051157,-93.7767495596924,1.91729548627572,AttemptLanding,AttemptLanding,1,0.46296945796351,0.207518457473987,0.208380103602707,0.901707307819064,0.339290733405702
54,2.62508626350569,3.0,-0.525099002634429,-2.5402018195852,2.62508626350569,-0.0106297415691923,0.0082138877887758,0.0134335162349408,-0.0242385362337034,-0.338262240838994,0.340020124080171,0.0219368539178564,0.197994805643849,0.0747542394356541,15.455093657809,1.73631453846133,1.68055587262751,0.0625413009602989,0.240534142802029,0.145098224432968,0.461577023283877,0.0019048334391119,0.0083374017622974,,,,,3.0,-101.106544404973,2.48867577413752,HoldLanding,HoldLanding,0,0.714973851488648,0.0868184020209587,0.0559694163111978,0.941882510575581,0.335511900252014
55,1.59533534447352,2.57906007766724,-0.154000518605953,-1.56527601509433,1.59533534447352,-0.0546862785531332,-0.0231924190680391,0.0594009879060813,-0.0041898553542557,-0.134324825491872,0.134548892355401,0.008676550321049,0.168655682235398,0.0566702898953538,15.4601173375174,0.877395320807056,0.695319588376674,0.176517807045046,0.240216736752379,0.11788344536373,0.399081581211071,0.159410771875812,0.0356098868695212,,,,,1.6954412846166,-94.4207914550518,1.72198398198017,AttemptLanding,AttemptLanding,1,0.436756816505343,0.232228246084701,0.223135229366361,0.899384050762462,0.34760735761612
56,1.71277535597483,2.42854714393616,-0.098395171546291,-1.69380529209753,1.71277535597483,0.0020721065712349,0.0030564881963692,0.0036926610644763,-0.0022129714646819,-0.151547971815575,0.151626974673472,0.0097799274498325,0.140608573594704,0.049028521293294,15.4732400811992,1.39551958399214,1.25843060652505,0.0326135693402325,0.048975951046,0.101295837774279,0.39795664050197,0.0215194286512094,0.0058563153726988,,,,,1.73280982852964,-92.1431804697514,1.67201050548345,AttemptLanding,AttemptLanding,1,0.466545799185281,0.161725640153119,0.108729143829956,0.962840749547249,0.354979627655876
57,1.59198657725308,2.51529288291931,-0.201355736428938,-1.55667695398409,1.59198657725308,-0.0560954038019457,-0.0157617594763488,0.0582677216775602,-0.0056993867787232,-0.132226066481578,0.132545087774735,0.0085467477106175,0.16433089871551,0.0552819930120853,15.4818718841748,0.781316573391037,0.651024077276511,0.175326160719496,0.240220663497533,0.106617240939595,0.341386703605313,0.156571128051605,0.0427152176554139,,,,,1.65239533729994,-95.8334835366937,1.71654559326913,AttemptLanding,AttemptLanding,1,0.435586152536573,0.218426334415787,0.216175775092558,0.901082814527864,0.352614559582402
58,1.64264386811772,2.2623176574707,-0.0876415730075157,-1.63128713033989,1.64264386811772,-0.0300010450389143,-0.0066281355744669,0.0307244997456505,-0.0013380718455157,-0.140246243573308,0.14027326320285,0.0090449414131025,0.10161368667973,0.0368155649930907,15.4880041355778,0.837330551420076,0.632751355087839,0.175334514887221,0.240168850935015,0.152214918284553,0.390882708879736,0.156624997512543,0.0415667495227389,,,,,1.68060545220575,-92.4282145747537,2.48958275046775,AttemptLanding,AttemptLanding,1,0.44540147783001,0.145059427557791,0.171761948184881,0.900782099005256,0.332348925206866
59,2.52067234198252,3.0,-0.506799393028461,-2.43509373677814,2.52067234198252,0.005465800364406,0.0036613682993059,0.0065787986324787,-0.0228193620405789,-0.310697977185677,0.312418458720421,0.0201548487994621,0.211071201731827,0.0774297546791715,15.4592343776257,1.67978905649273,1.58751707879957,0.0286432406386501,0.0558681285086296,0.114183166469456,0.455923700021478,0.0064035063944494,0.0055172987124215,,,,,2.78982386220964,-100.41262924442,1.91318659571605,AttemptLanding,AttemptLanding,1,0.687665242131174,0.109054836136553,0.0702851949647901,0.960006688617664,0.349251926013575
60,1.66919586731463,2.70965957641602,-0.0911603840544915,-1.64210019500668,1.66919586731463,-0.0585596715662921,-0.023424885063362,0.0630710739894583,-0.0022790249074192,-0.14662424028499,0.146770865272859,0.00946500885082,0.173286973627747,0.0586115982838982,15.4707825236238,1.07274344575019,0.814643559071119,0.176331248894253,0.240215653899604,0.132134780131599,0.461669386494175,0.159404584641793,0.0364286054954572,,,,,1.72864210057146,-91.9462754292346,2.24651325919385,AttemptLanding,AttemptLanding,1,0.456841217607348,0.245667364779212,0.231493666565258,0.897004906229277,0.341273431052623
61,1.60752676950919,2.33306980133057,-0.193499917360345,-1.5854982036394,1.60752676950919,-0.037827356131615,-0.0080237039900625,0.0386689629758567,-0.0036904626209389,-0.132479300630561,0.132593387793369,0.0085496811742648,0.118242456124006,0.0414575136591872,15.4930802129201,0.822238094025497,0.633792717391706,0.17548186946277,0.240160056478635,0.148406970650856,0.40310702622027,0.156621126128525,0.0417544278929159,,,,,1.6541677253945,-95.777639022521,1.75417878185628,AttemptLanding,AttemptLanding,1,0.436965307934287,0.170336492038718,0.186994712938383,0.900818823178908,0.334041346377397
62,2.58226620912552,3.0,-0.521426153792772,-2.4960179792483,2.58226620912552,0.0043336672767644,0.0025318574615659,0.0050190610946058,-0.0232740042316574,-0.326311012897176,0.32798896273833,0.0211618986154593,0.202753503491998,0.075639380078421,15.4387907874977,1.84378131387787,1.40297551586627,0.0224862084334954,0.0504508984760155,0.11248268118921,0.402305782738608,0.0001758594763304,0.0052565710914774,,,,,2.96888331606625,-100.576107342626,2.14990602799266,AttemptLanding,AttemptLanding,1,0.703732198449156,0.094910264147436,0.0589357986526205,0.963246663549548,0.35000769724924
63,1.55089803293449,2.13671898841858,-0.0751456635686729,-1.53832896897422,1.55089803293449,-0.036945162290679,-0.0112603784058236,0.0386230648515489,-0.0013484714038053,-0.12513148681069,0.12516635367006,0.0080721049270554,0.107390966673082,0.0378677634508633,15.4657748405607,1.08533683773656,0.743386122590419,0.177626849782624,0.240195892694482,0.133209664704389,0.450762629946085,0.159485111873596,0.0377516959268101,,,,,1.60300708299886,-92.1234906695166,2.00942272596215,AttemptLanding,AttemptLanding,1,0.421146361472703,0.138890610206705,0.167944527495774,0.896818037563262,0.340795704575827
64,2.67309503724762,3.0,-0.633625823352842,-2.55924651917412,2.67309503724762,-0.0277183541311536,-0.0066484995285529,0.0285045558064182,-0.0280618468801671,-0.336184915151629,0.338603052006273,0.0218430681154924,0.205652640916813,0.0769859399558886,15.4536479651273,1.59829326196221,1.42651230614998,0.062535648008288,0.240184622599351,0.118853365482809,0.391864119826916,0.0018524859091019,0.0070396697149606,,,,,3.0,-102.201792877698,1.795580000225,HoldLanding,HoldLanding,0,0.72822253125721,0.078779451850462,0.0506508780773385,0.944965846532117,0.347176282007641
65,1.52141353670432,2.14085817337036,-0.141397925138889,-1.50402569354853,1.52141353670432,-0.034238216357034,-0.0111306921767426,0.036002052269898,-0.0026378946410687,-0.118889096618497,0.118969436751239,0.0076714414462096,0.102169324363591,0.0360208063214239,15.4796564916092,0.838686824830099,0.670985204219401,0.176845485714472,0.240163172072562,0.136312285992098,0.413282510438142,0.159595981010994,0.033581683503031,,,,,1.55228808798252,-94.2268777224065,1.83004561894348,AttemptLanding,AttemptLanding,1,0.412914437718769,0.145975419499341,0.170728320089432,0.899715548343089,0.33941676178129
66,1.57085775732994,2.39789414405823,-0.120296278940884,-1.55569839179842,1.57085775732994,0.002420457839384,0.0007954048882997,0.0025478000487806,-0.0021164995549788,-0.127179446054191,0.127231134334708,0.00820924782295,0.116539872323301,0.0407084351730553,15.4396003484339,1.89121419590503,1.8305912261937,0.031087026820379,0.0667781801709163,0.127081767696898,0.446207017495346,0.0098909872315011,0.0032858827904327,,,,,1.60696450398557,-93.5145725727472,1.81280751828343,AttemptLanding,AttemptLanding,1,0.427037088989262,0.186550283689474,0.117521031008045,0.955213729701892,0.343519214356934
67,1.66280714966155,2.30847191810608,-0.100699067895384,-1.64935873964975,1.66280714966155,-0.0368259974875915,-0.0228619748497343,0.0433454032740033,-0.0017185700367226,-0.143231562897209,0.143275171476306,0.0092385118243338,0.114000989077606,0.0406672550003154,15.486519324173,0.810744680882443,0.57262957080237,0.176026405774411,0.240204959513944,0.129773427909622,0.354269731624859,0.156685965307942,0.0393091793024234,,,,,1.70472744872138,-93.0615211949791,1.52846999456322,AttemptLanding,AttemptLanding,1,0.451548690909811,0.153221230166919,0.175865191922744,0.901117427992414,0.342322920929057
68,1.60242124844571,2.41450428962708,-0.143978942307714,-1.57185191834799,1.60242124844571,-0.0578277693767725,-0.0210775697582714,0.0615492880381893,-0.003901330878312,-0.135327340586306,0.135533189744554,0.0087404884607393,0.171265039178398,0.0574978536760368,15.4556748594276,0.97290074796525,0.773897194720227,0.176317052524264,0.240227637831699,0.151419032344843,0.405079003030709,0.15945964999724,0.0364651365329433,,,,,1.6346567991892,-94.1375227104005,2.11770427949162,AttemptLanding,AttemptLanding,1,0.438811903654062,0.194002720406143,0.200532637446358,0.898116632759625,0.332702652291181
69,2.61942290226618,3.0,-0.390635102572467,-2.5598315414759,2.61942290226618,0.0066412911860478,0.0029273932371779,0.0072578495288171,-0.0158837225402998,-0.340833596652574,0.341655100732776,0.022044439226706,0.19387213193767,0.0735927470399951,15.4252207811462,1.84727821478937,1.71776656168607,0.0342399391639563,0.0576259728177121,0.121540725899098,0.421294049292508,0.0256114632722363,0.0039224429430754,,,,,2.97762147861884,-97.4745863886534,1.56113467567013,AttemptLanding,AttemptLanding,1,0.713231323345648,0.0869604527370583,0.0649854870960644,0.954868964317143,0.345981899600401
70,1.72079588604622,2.48222279548645,-0.0813084431113091,-1.70555283780241,1.72079588604622,-0.0435282060636608,-0.0303250364034233,0.0530500947783268,-0.0016505616495012,-0.153268290713612,0.153328969336594,0.0098888709475596,0.11906873442012,0.0426428299893279,15.4457564951029,1.17109761339312,0.963725772238907,0.177355656712489,0.240189859209258,0.143343725933577,0.433801239241353,0.159520666822545,0.0367881057659455,,,,,1.74106956136438,-91.9626622500687,1.7774021720235,AttemptLanding,AttemptLanding,1,0.467407468943525,0.181046905333411,0.192903710349198,0.894548559328075,0.336291677362855
71,1.60054129037727,2.40140581130981,-0.202520593980834,-1.57159715390812,1.60054129037727,-0.0511160723678484,-0.013245941325504,0.0528044298891088,-0.004781156885834,-0.131819567730864,0.13203285344753,0.008514172059021,0.138186890380338,0.0474159875554161,15.4800713141911,0.968651593808307,0.749052871983676,0.177286099440627,0.240184793844054,0.125812331368575,0.443252880238255,0.159539701706605,0.0350905481858831,,,,,1.67774962146967,-95.9395937551425,1.79030654857264,AttemptLanding,AttemptLanding,1,0.436294208278356,0.189875329356158,0.19759193104584,0.897860700905607,0.344083408280634
72,2.61432851513227,3.0,-0.615115799025048,-2.50902062624825,2.61432851513227,0.0075917070675613,0.0028284748654203,0.008101499013391,-0.0287059048258001,-0.328694859900038,0.331065356302791,0.0213596979843708,0.197725631977538,0.0742694781823211,15.4600390970022,1.83477409997941,1.70197915161209,0.0182083851623346,0.0533343191211621,0.118134013115103,0.449077188308902,0.0001231223502372,0.0049258272293928,,,,,3.0,-102.28205700878,2.34014072314244,AttemptLanding,AttemptLanding,1,0.712008166338402,0.0882613589143613,0.0548027462947641,0.963107031870614,0.347495994171065
73,1.67362963504532,2.34378600120544,-0.16221311016777,-1.6500424696644,1.67362963504532,-0.0471276203901354,-0.0304790975707315,0.0561247538289735,-0.0038208553620955,-0.143997823781028,0.144142200028778,0.009295661615059,0.120070422310296,0.04252808982363,15.4679644479784,1.03639129082604,0.700782559679969,0.176686842066261,0.240206635704061,0.128625974252863,0.388312787544758,0.159522008891788,0.0373906511760356,,,,,1.730743683828,-94.7490683234343,1.53276030629165,AttemptLanding,AttemptLanding,1,0.454806853976811,0.161074720588007,0.181140103399026,0.898007355855751,0.342832900332061
74,2.6715043748212,3.0,-0.596404519162099,-2.57081185020701,2.6715043748212,-0.0254801283897735,-0.0104415451825403,0.0275365722005912,-0.0256350478887686,-0.338290175283455,0.340282740614611,0.0219517996433133,0.202484395049149,0.076111578265064,15.4622756804771,1.64937387632695,1.24198895126416,0.0627734533509541,0.240473854886912,0.122269413749658,0.396226817778396,0.0018939712463608,0.0086304842187203,,,,,3.0,-101.440236798872,1.85445256533508,HoldLanding,HoldLanding,0,0.727623482272,0.0789598872353376,0.0513560552373016,0.945895422536307,0.345658038333485
75,1.64186237945038,2.58263993263245,-0.181932594359163,-1.61232320086972,1.64186237945038,-0.0568860614301769,-0.0310596677855321,0.0648130152668851,-0.0049032612571107,-0.143067814762677,0.143283436339275,0.0092390970535757,0.172262110593597,0.0581460011155823,15.4914658576353,0.829723564713321,0.623127833341226,0.177115139002006,0.24022462271931,0.136038364823462,0.41629653290237,0.159453218631702,0.0365442913397037,,,,,1.72844746755899,-95.0560971705178,1.53264771515935,AttemptLanding,AttemptLanding,1,0.44945916807655,0.223557335598228,0.21829133174302,0.900027169514283,0.339538504522906
76,1.76724388798078,2.3884539604187,-0.220201899571134,-1.74180672191105,1.76724388798078,0.00294319285889,-0.0001674114530403,0.0029479502708204,-0.0047514299278144,-0.158772106975041,0.158930465920786,0.010255886196283,0.125945393008469,0.0449627382399386,15.4236450172818,2.04624308398535,2.08324350537878,0.0163815810907507,0.0671299166631011,0.131821320589026,0.483864408565659,0.000271311056369,0.0055389029538573,,,,,1.80133462105751,-96.2777836497926,2.39303825945357,AttemptLanding,AttemptLanding,1,0.480257584442862,0.140312723848183,0.0863223635293047,0.959363243395335,0.341412746404877
77,1.67932160548716,2.49010610580444,-0.156130184458514,-1.64848014717395,1.67932160548716,-0.0689543435806071,-0.0435547051702176,0.0815580397085229,-0.0046417978211692,-0.148147905230871,0.148385245591222,0.0095682319235389,0.163929642147949,0.0558766549908621,15.474513075111,0.832697666822369,0.62125180080571,0.175895249895619,0.240230423965718,0.131675550123731,0.331316584908159,0.158677386426031,0.0338232292925498,,,,,1.75923009576763,-93.8331549635916,1.5,AttemptLanding,AttemptLanding,1,0.458994425794748,0.197378819851285,0.201249930873167,0.90062848637797,0.341477533278342
78,1.77265347010337,2.52017593383789,-0.203310844203564,-1.74839469810055,1.77265347010337,-0.0436161192915443,-0.020191087107471,0.0480629364545665,-0.0044931313678607,-0.16260936393401,0.162750064980719,0.0104951494350207,0.115118844540714,0.0418822579667287,15.47347264046,1.0097029755364,0.724143524389391,0.175989355451081,0.240217817513291,0.148778414964621,0.380239790783122,0.154712514148002,0.035248689227468,,,,,1.84421771642335,-95.6415120879709,2.49451318488653,AttemptLanding,AttemptLanding,1,0.481084043620912,0.17700409269027,0.187781278186899,0.898382242632186,0.333876260015724
79,2.60262450774511,3.0,-0.4065666909439,-2.54065785438447,2.60262450774511,0.0056022532572036,0.0040369249441605,0.0069052157506216,-0.0164555804501936,-0.338239545521958,0.339129477165015,0.0218805267553355,0.193217666658131,0.0732816687261742,15.4410154707977,1.82113144207976,1.53812757622368,0.0328216422999066,0.0462573151110801,0.1105528806494,0.375464008025092,0.0256985603823811,0.005150577840793,,,,,3.0,-97.5958361626102,1.59249402204571,AttemptLanding,AttemptLanding,1,0.708689535810597,0.0906754419782983,0.0676997849758003,0.957195000849091,0.350865386378044
80,1.77811155473294,2.65440559387207,-0.227430721372366,-1.74230144751769,1.77811155473294,-0.0606301011762459,-0.0338649951736729,0.0694467210655384,-0.0067958047691878,-0.164790433939823,0.165126114180919,0.0106479865558129,0.178330560582602,0.0609527587638496,15.4683564591775,0.886652784740781,0.624766690009216,0.176104550727606,0.240257275452735,0.127472373323231,0.382744101492314,0.159568459495761,0.0342905894278303,,,,,1.84269174465958,-96.4089816842801,2.31635312075595,AttemptLanding,AttemptLanding,1,0.486353633014887,0.20989805766832,0.209327455178925,0.900072285906019,0.343345611856342
81,1.82217495062867,2.67503499984741,-0.216476569995544,-1.78456886525821,1.82217495062867,-0.0625284741493933,-0.0302146765092769,0.0694459268496835,-0.006944089576563,-0.173630317091772,0.173979590586507,0.0112186005360239,0.186106511710643,0.0636849738884097,15.4815399858472,0.85642993589976,0.478288736560886,0.176394484439319,0.240298098708986,0.105099436560008,0.383054430203106,0.156656929808869,0.0423170249917553,,,,,1.90149022471625,-95.3637271300002,2.34875969109959,AttemptLanding,AttemptLanding,1,0.498650314945327,0.204625264329993,0.207788469823182,0.901315682496721,0.353289139306663
82,2.59204547405243,3.0,-0.413570093009694,-2.52209892373706,2.59204547405243,0.0090728042779506,0.0034974623884527,0.0097235806483333,-0.018389928515022,-0.331666061746809,0.33283356602797,0.0214710124161184,0.210946586009132,0.0783136844940225,15.4454326310631,1.63014449485255,1.20734830585607,0.0290651884261073,0.0475715783790054,0.102413324362882,0.415476153479878,0.0080657935313689,0.0060827714059731,,,,,2.91783086718893,-97.7855854258006,1.87555396977513,AttemptLanding,AttemptLanding,1,0.706874863312785,0.0935724247903979,0.0619401688741909,0.963172819495664,0.35448296694983
83,1.68412602753253,2.70277428627014,-0.317055051787835,-1.63175711590003,1.68412602753253,-0.0604654275027133,-0.017895173216128,0.0630579507082264,-0.009721522060735,-0.144644471227466,0.145342279082057,0.0093721696276622,0.169875313332863,0.0575231127392224,15.4845153747484,0.902262053381491,0.704690317557037,0.175910797538077,0.240229539608567,0.132603934716154,0.453737734442186,0.156718320882754,0.0433886134256869,,,,,1.75027764965131,-99.5200046041142,1.64741212718663,AttemptLanding,AttemptLanding,1,0.460604896556518,0.240756482512472,0.229884154175826,0.899418546887873,0.341064917903932
84,2.65835959964068,3.0,-0.454368272412173,-2.58507674714414,2.65835959964068,-0.0282352440234661,-0.0072154136816783,0.0291426011135319,-0.0170858841951734,-0.342897788046394,0.34387136056173,0.0221804890752655,0.202239492637998,0.0761981901440853,15.4677677845652,1.44843966785479,1.18716536003991,0.0633294699719376,0.240389369955943,0.115371515295545,0.423652529487302,0.0018646701835048,0.0096414150482987,,,,,2.95681470906161,-98.270421652992,1.71171763636831,HoldLanding,HoldLanding,0,0.724135531266332,0.0822119002849946,0.0536618515832489,0.947626939794859,0.348723770979758
85,2.04064008573286,2.9118504524231,-0.457876012803002,-1.97436151448773,2.04064008573286,-0.051187360946834,-0.0136948080407445,0.0529876748685419,-0.0144454811115149,-0.205298018128393,0.206175908587671,0.0132957849189967,0.139020158967906,0.0510130971336694,15.4717864076574,1.03593237758138,0.710511116407654,0.177338373542717,0.240320363737809,0.15932315002019,0.419344989481539,0.156641957727669,0.0378431238716612,,,,,2.10680641889481,-101.731697741666,1.71817634150591,AttemptLanding,AttemptLanding,1,0.554373308955495,0.205736739564537,0.206821827571017,0.897608757204442,0.329189711102138
86,1.97924523790677,2.91037368774414,-0.550826610581333,-1.88802096295571,1.97924523790677,0.0022032763702424,0.0043519428031891,0.0048778922626374,-0.0187140728160109,-0.186673566628285,0.188109478495633,0.012133394493267,0.132027712629767,0.0481016899342171,15.4674421038511,1.45677403302182,1.42132776154663,0.0322738550054193,0.0501704130553748,0.100605900117582,0.399734169986647,0.019375612982054,0.0088938690601886,,,,,2.01104491577433,-105.279667622794,1.6998906101208,AttemptLanding,AttemptLanding,1,0.537419068095316,0.210398181461558,0.138084426628219,0.961249415539967,0.355286266614408
87,1.99693140610546,2.74425148963928,-1.1544766605666,-1.60472939742634,1.99693140610546,-0.0587757450990289,0.0243234752227349,0.0636099022075731,-0.0738656510832104,-0.137818784743995,0.161151337068996,0.0103914755655246,0.159430262173043,0.0551031115477801,15.4761797559499,0.847042969173523,0.894201279535039,0.17560692349713,0.240277810228918,0.140248115837911,0.403875140922167,0.159561180573288,0.0363856610947644,,,,,2.06469467336038,-124.238920485483,2.04694202800893,AttemptLanding,AttemptLanding,1,0.543535663937678,0.179808834199833,0.192032530263699,0.898515333440154,0.337667504072039
88,1.93007517834099,2.72824430465698,-1.07606871611286,-1.58629251709054,1.93007517834099,-0.0490741876940948,0.0022223797573889,0.0491244834030985,-0.0633839831725222,-0.134352622842158,0.151361174153196,0.0097600111791529,0.146642810236716,0.0508248508964218,15.4787343846714,0.811452715510943,1.06282880738892,0.176520068352976,0.240244850287327,0.154799208670862,0.455900913730354,0.159650658749364,0.0382666186589427,,,,,2.00959748573364,-123.70580417537,1.71034624489695,AttemptLanding,AttemptLanding,1,0.524851684403548,0.188594208711666,0.198027507617848,0.897013468143585,0.331200351701839
89,2.62975129564603,3.0,-0.24197666509503,-2.58752580512917,2.62975129564603,0.0045259342512409,0.0064175548787943,0.0078529670487589,-0.0093353848763632,-0.347659251222304,0.348071669528875,0.0224577965421053,0.192902740509238,0.0735912797322451,15.4429080151034,1.89622070208085,1.62539855134252,0.0336217826357803,0.0764457341186096,0.122033851542047,0.474937102387417,0.0240154891351687,0.0044186111949026,,,,,3.0,-94.0907171926139,1.50358466800443,AttemptLanding,AttemptLanding,1,0.715985268118724,0.0847456691052486,0.0631277198971281,0.955519243119498,0.345762732647979
90,1.9586456470749,2.63028502464294,-1.06874935332147,-1.61805678828376,1.9586456470749,-0.0495032365654166,0.0065245723763019,0.0499313576337076,-0.0636726802801598,-0.138955190375688,0.156887881476226,0.0101165328992561,0.148454051137708,0.0516177883707916,15.4884253327683,0.922158867845147,0.90033242046089,0.177419961550446,0.240265791098124,0.152613030388198,0.375258047205575,0.159649759603192,0.0370056742517103,,,,,1.99637079272466,-122.311062912018,2.04938184922856,AttemptLanding,AttemptLanding,1,0.532629063560798,0.160272942185656,0.180575822842727,0.896970444816658,0.332171986494134
91,1.86309902765313,2.66750383377075,-1.12635913111688,-1.46140246908087,1.86309902765313,-0.0607357716211568,0.0116370257746702,0.0618405556515921,-0.0708443110673004,-0.114432145660542,0.139023602063422,0.0089641987382878,0.157033808584301,0.0533850816920918,15.4964035317498,0.75572981295252,1.03637022225529,0.177221563203554,0.240250656717424,0.172581867596147,0.49309758804401,0.159046094797137,0.0367361271812075,,,,,1.94546366280019,-126.251978914843,2.19485291973269,AttemptLanding,AttemptLanding,1,0.507503423712586,0.192328516579257,0.199442854892983,0.897308432407304,0.323296947735046
92,2.62558110713959,3.0,-0.483299949055353,-2.54865032938045,2.62558110713959,0.0039827965599377,0.0025703269776818,0.0047401739641125,-0.0210349782626639,-0.337600115020508,0.338993997362178,0.0218774411575905,0.196142788242796,0.0741570452831523,15.4014025478659,2.17421853898078,2.00318940019722,0.0206802375181328,0.0754311207598662,0.136581664936997,0.50677592958068,0.0003618872871973,0.0043059563004375,,,,,3.0,-99.2513675644137,2.21513081605724,AttemptLanding,AttemptLanding,1,0.714986370960521,0.0851132827870135,0.0527946107575862,0.956837390290249,0.339297037805779
93,1.69336289852052,2.61283946037292,-1.03563810511133,-1.31025998941806,1.69336289852052,-0.0747123719566373,0.0020023808805927,0.0747392002404219,-0.0623885772923263,-0.0934136112186919,0.117552318375034,0.0075803626422115,0.160320271281797,0.0534023352340871,15.4859360048983,0.843224552806751,0.854308387466872,0.176471547083294,0.240223069655387,0.157317899054579,0.383709613400397,0.156666490356235,0.0417507365543055,,,,,1.74681180591764,-126.657123786368,2.31921670071676,AttemptLanding,AttemptLanding,1,0.46224390665229,0.220584413127535,0.217162285165706,0.898426467641917,0.330080933753521
94,2.67837275048861,3.0,-0.259875543226959,-2.63179445659175,2.67837275048861,-0.0249747154601195,-0.0155270440228137,0.0294079157439001,-0.0098679794342274,-0.352577693143462,0.353052199596275,0.0227737282238957,0.202197596487421,0.0766008887029532,15.462435123034,1.52993860816047,1.18407391523916,0.0622921142206574,0.240279415263524,0.106675378919313,0.438243929024338,0.0018447041565249,0.0106757752092304,,,,,3.0,-94.2734617915732,2.0096128497651,HoldLanding,HoldLanding,0,0.72955291120422,0.0777575823597775,0.0513565180059614,0.947529558777246,0.352588720480305
95,1.78083870281168,2.82374787330627,-1.13174204961952,-1.33870432255005,1.78083870281168,-0.0816242534684238,0.0122695760358373,0.0825412699828194,-0.0737916097467525,-0.0995150308356193,0.131143786763766,0.0084576058716131,0.177890537604522,0.0592874853914857,15.4731479227785,1.00038566489917,1.05378482409358,0.176415884106978,0.24024040798429,0.188404671717113,0.407501291544611,0.159210329142708,0.0347035146332915,,,,,1.86493072097439,-128.583435678336,1.8944974744082,AttemptLanding,AttemptLanding,1,0.486747817828077,0.249787129524802,0.23325188386718,0.895652146961568,0.31626459034795
96,1.72095550735792,2.48139095306396,-1.06067074688634,-1.33348234836759,1.72095550735792,0.0037903101531386,0.0026494894396961,0.0046245264998751,-0.0619607965926209,-0.0946322655167716,0.117021332601497,0.0075482750047129,0.13756666445691,0.0465537918403721,15.476811234061,1.53557333903979,1.50308054252365,0.0259924521643953,0.05360163091892,0.105264552581411,0.517019662251247,0.0020575342945285,0.0065225287315445,,,,,1.76269102467469,-127.19753908103,2.00510405905028,AttemptLanding,AttemptLanding,1,0.468232226996852,0.171945805142172,0.106453771401413,0.963128636276947,0.353215754408262
97,1.76461184346998,2.41966867446899,-1.08053711377787,-1.37353581581267,1.76461184346998,-0.0503309038037551,0.0157089144439074,0.0527254195877933,-0.0640143474744666,-0.100739027651362,0.123289456445415,0.0079501438427621,0.134259281619837,0.0458428851758845,15.4572174064539,0.761863248311434,0.95094845070456,0.17596487619711,0.240223475445059,0.139259634611724,0.431784106519434,0.156621874820808,0.0412620150750267,,,,,1.81622668042125,-127.513201967813,2.15832621570237,AttemptLanding,AttemptLanding,1,0.479731735293838,0.157054113899207,0.178846559600297,0.898559755694891,0.338106829061456
98,1.85127132685006,2.6359920501709,-1.16461375935906,-1.42290668962965,1.85127132685006,-0.0435776862581724,0.0077795966588687,0.0442666563430128,-0.0729873812195667,-0.107256657297869,0.132955853629163,0.0085735825936197,0.119009197490873,0.0417042670627956,15.4875072593195,0.878248697496839,1.05017418509811,0.177002613836157,0.240229102722843,0.161146079161336,0.489937060805506,0.159488833177205,0.0352681762318757,,,,,1.91962505408224,-128.853168090004,2.11409973160853,AttemptLanding,AttemptLanding,1,0.502013207239242,0.184677716410074,0.194515347059626,0.89634679900439,0.32837952037274
99,2.62487911184629,3.0,-0.163287260545881,-2.58602600943518,2.62487911184629,0.0039635938091536,0.0062343750404515,0.0073876591711425,-0.0061076612238719,-0.347492564117049,0.347796823001324,0.0224380000755851,0.198529959374013,0.0752655878651135,15.4544782257774,1.72132297643609,1.75291668501205,0.0326834766893006,0.0572723842142195,0.126919417551563,0.482975768380923,0.0180579241852122,0.0061638951079265,,,,,3.0,-92.2002194325483,1.66750071182143,AttemptLanding,AttemptLanding,1,0.715020880732033,0.0857566040159613,0.0617211228947757,0.9563606643154,0.343591369977083
100,1.6366716209723,2.37794256210327,-1.03196626856659,-1.2571431509715,1.6366716209723,-0.0421023486873872,0.0087554369820129,0.043003086421097,-0.0577588312550551,-0.0846150145124567,0.104769639351911,0.0067564036375509,0.116614871211753,0.0397139439098116,15.4644316769961,0.939300518998038,1.0075165657393,0.177090566619475,0.240173131756191,0.155425013627828,0.394998905928971,0.159473446404228,0.0384884574506055,,,,,1.68546986904653,-128.540481584722,1.67533665600511,AttemptLanding,AttemptLanding,1,0.444388554374576,0.174669860931669,0.189674806559081,0.896158296738755,0.33092221616541
