scenario_id,mean_wind_speed,max_wind_speed,wind_velocity_x,wind_velocity_y,wind_velocity,wind_acceleration_x,wind_acceleration_y,wind_acceleration,wind_body_force_x,wind_body_force_y,wind_body_force,mean_wind_body_risk,mean_wind_gust_risk,mean_wind_risk_raw,min_thrust_margin_n,mean_abs_roll_deg,mean_abs_pitch_deg,mean_abs_vz,max_abs_vz,mean_tag_error,max_tag_error,stability_std_z,stability_std_vz,mean_imu_ang_vel,max_imu_ang_vel,mean_imu_lin_acc,max_imu_lin_acc,wind_speed_cmd,wind_dir_cmd,hover_height_cmd,gt_safe_to_land,label,success,onto_wind_condition,onto_gust,onto_temporal_pattern,onto_drone_state,onto_tag_observation
1,2.04129852891779,2.6545045375824,-1.25502610505162,-1.592495012364,2.04129852891779,-0.0528862878055369,0.0103330303622643,0.0538862779779561,-0.0851575719045639,-0.133453470714756,0.161985263938593,0.0104449848800226,0.126519302636435,0.0452672802069464,15.4807605612973,0.831358125782235,0.946300232045959,0.17524316077131,0.240272247167337,0.12615606367576,0.403695341501477,0.156696596487934,0.0411278094338782,,,,,2.0716688985117,-127.374480982322,2.31472368639318,AttemptLanding,AttemptLanding,1,0.553399730419467,0.147850502912161,0.173308800586577,0.898411103945695,0.343930638366329
2,2.30042705615362,3.0,-1.3920657089472,-1.79315026401829,2.30042705615362,0.0074919859309194,0.0067937180125259,0.0101135778843501,-0.1099076259508,-0.17432619080183,0.215204661815238,0.013883544859638,0.230301577801032,0.0788089547420562,15.4516930851533,1.65605983521153,1.85649195614973,0.0341355362067169,0.109227776108798,0.128135917427052,0.462830310920529,0.0125987978630942,0.0087739161291544,,,,,2.42882567996652,-126.095851442396,1.59133896787116,AttemptLanding,AttemptLanding,1,0.629209005922709,0.159258068310901,0.104344821659527,0.955333610678803,0.343050703365754
3,1.7520990830821,2.47914505004883,-1.08622152684079,-1.36161677128262,1.7520990830821,-0.0482448201413331,0.0071011624232403,0.0487646304018683,-0.0668129368448218,-0.104074306106066,0.126157176306405,0.0081373729758823,0.145671725011389,0.0493976785865342,15.3967545479654,0.983552523043594,0.898414773977423,0.175404303505515,0.240338660724416,0.194664743808163,0.434145378213435,0.156474757930431,0.0389609944530414,,,,,1.87319628751653,-127.297520073929,1.68338744767195,AttemptLanding,AttemptLanding,1,0.477105957872532,0.172525524807857,0.187227286089244,0.897510962342077,0.313482336085261
4,2.36204555573918,3.0,-0.679306864169493,-2.23167139723138,2.36204555573918,-0.017931714227455,0.00438757009834,0.0184606919291493,-0.0325871647925504,-0.271670546638362,0.275264116444164,0.0177579324353298,0.229115712607909,0.0811652664871036,15.4452281645297,1.67448776039267,1.55723752647407,0.0629091383246258,0.24035358525478,0.139588444976859,0.475595246814373,0.0019452213232301,0.0105976636391381,,,,,2.46779887999601,-105.553838771394,1.56146418523125,HoldLanding,HoldLanding,0,0.646111868161201,0.146924210145696,0.0928727647665197,0.943153303583734,0.337960691121396
5,1.81561965566792,2.63735127449036,-1.04555984945843,-1.46380526105052,1.81561965566792,-0.0510857581724944,0.0126202475927118,0.0526215292191317,-0.0602265377075598,-0.114551709399145,0.13293215493325,0.008572880001917,0.144206427711559,0.0492629443148096,15.454695967905,1.05167883003056,1.04180692777779,0.17762707857864,0.24027009821286,0.155493406653303,0.454781650347376,0.159423630631684,0.0354408322458435,,,,,1.88084050141636,-125.058018224367,1.8671930166003,AttemptLanding,AttemptLanding,1,0.494017830374407,0.194536894591889,0.200464659064673,0.894737644042186,0.330891819265199
6,1.88602468530337,2.56185054779053,-1.03385255387016,-1.56172281134529,1.88602468530337,0.0051382785719264,0.0026744871083321,0.0057926494780327,-0.0579912972781428,-0.127992612139866,0.143111862915863,0.0092369441035607,0.130518259558505,0.045621338740044,15.4048553274017,2.24260905877644,2.08665805420734,0.0337952288634961,0.0756879741449327,0.141778974457404,0.526835860446689,0.0159074050771015,0.0054372579602687,,,,,1.9161886291726,-122.783489357006,1.66787613528715,AttemptLanding,AttemptLanding,1,0.512064183828908,0.15312280479725,0.10092082540322,0.949086715394808,0.336987122463376
7,1.90694950227024,2.90032529830933,-1.06803502361975,-1.54884399176179,1.90694950227024,-0.0619041104061631,0.0123563006725545,0.0631252489221944,-0.0663119816203841,-0.132684674225113,0.154015619526993,0.0099308367657584,0.198602085728986,0.0665322114547268,15.5023193815661,0.72383928972028,0.940574971486717,0.176472757308264,0.24032304405206,0.154421633137511,0.414344537931788,0.159417124765661,0.0351514244238833,,,,,1.96867067391655,-123.586570068552,2.3722388968143,AttemptLanding,AttemptLanding,1,0.521826309563009,0.235082516411197,0.224683901452263,0.898686080722099,0.331368163049995
8,1.90800815374673,2.83704257011414,-1.11422696810831,-1.5267184952513,1.90800815374673,-0.0482517306415649,0.0131390716851325,0.0500086463989297,-0.0688741414598369,-0.124947949704923,0.146828564097149,0.009468842034126,0.156694895038269,0.053636657935369,15.4450903665975,1.01799281967343,1.21093002202912,0.177447862060797,0.240264744538746,0.156603054126943,0.528497339075259,0.15990027180434,0.0377246367706037,,,,,1.96461919299708,-125.030810267647,1.59437975941738,AttemptLanding,AttemptLanding,1,0.519529505919535,0.21820099552247,0.215705434516843,0.893763103784796,0.330398642610248
9,2.62497733155886,3.0,-0.822997626463068,-2.45972438701053,2.62497733155886,0.006596854685184,0.0002764461990877,0.0066026444882656,-0.043940959731652,-0.314980523936654,0.320169573155491,0.0206597848119502,0.194253378220694,0.0727378628345733,15.4490755388203,2.07936610207408,1.81687640357638,0.0263105036913289,0.059203144338785,0.122277599776917,0.482377088308972,0.0002071499533447,0.0069413872036903,,,,,2.98365709536118,-106.900241715489,2.00633071884077,AttemptLanding,AttemptLanding,1,0.714541527649278,0.0855905852221044,0.0539705585805356,0.956231414181368,0.345654400099148
10,1.84923851895495,2.62349796295166,-1.11111166608276,-1.45451067819836,1.84923851895495,-0.0618106498519637,4.55490775828513e-05,0.0618106666348174,-0.0686313410136622,-0.113289051498145,0.13695416372562,0.0088307499674234,0.149491898397351,0.0510290944964018,15.491650351539,0.727389600272856,0.807030037318357,0.176604720083341,0.240247990708904,0.12929132928654,0.412190205490397,0.159432176316469,0.0354517518507685,,,,,1.92399487038037,-126.353098118705,2.42991665837156,AttemptLanding,AttemptLanding,1,0.503336090620599,0.185540330448977,0.19507448942648,0.89964148566297,0.34253718698376
11,1.87400624703388,2.95017027854919,-1.16597321839375,-1.43223204362395,1.87400624703388,-0.0532153539123935,0.0234396884875537,0.0581488855302907,-0.0781729397752813,-0.113817307123956,0.145326301249094,0.0093715124195318,0.188070861296067,0.0629813170824924,15.4677060945937,0.903975661774768,1.06054864498599,0.176593311253792,0.240295720394038,0.169535362670025,0.530053165581496,0.15945127234109,0.0369959560464123,,,,,1.90759543141243,-127.844704273722,2.01295532513598,AttemptLanding,AttemptLanding,1,0.512331262625533,0.252797536104833,0.235998828740463,0.896267796248555,0.324650949924433
12,2.62754494865735,3.0,-0.787002905305406,-2.47374459839152,2.62754494865735,0.006537825536366,0.0038322016707974,0.0075781879357549,-0.0411380368465908,-0.318689775039968,0.323356243909352,0.0208733710112193,0.194133048537588,0.07285127426913,15.3751021881418,2.32130130702112,2.23342533795992,0.0356801132307048,0.0799754648268987,0.144559974807986,0.5470188268582,0.0247960892927915,0.0063876850000002,,,,,3.0,-106.299635778902,1.50595601312568,AttemptLanding,AttemptLanding,1,0.71524890782912,0.0851917210069838,0.0644583112797744,0.946372805459797,0.335751122307562
13,1.95504194133136,2.85910415649414,-1.02583850554871,-1.64174857031818,1.95504194133136,-0.0613619495455885,0.0066492800822268,0.0617211615059799,-0.0591478184973262,-0.144451971201416,0.159781633922484,0.0103028975358998,0.161785049186755,0.0557475430311564,15.4880053465218,0.875778349830023,0.718131668746936,0.177023365221241,0.240274981004303,0.152047496698117,0.371425851581171,0.159396176574234,0.0360174972768635,,,,,2.02726066309477,-121.319262228342,2.38452989943164,AttemptLanding,AttemptLanding,1,0.532494026294593,0.214729544687723,0.212777743693779,0.898964738671989,0.332423334800837
14,2.66354967913224,3.0,-0.718263549443353,-2.53148669523482,2.66354967913224,-0.0198964724432775,-0.0094492955478783,0.0220263206649965,-0.0338370276219258,-0.328039113405219,0.331442212475265,0.021384490387176,0.203506831799994,0.0760211928110215,15.4401987638849,1.78367555379049,1.51472620941849,0.063623243269185,0.240327418862581,0.124745113190856,0.510392868525448,0.0018883609397987,0.0113014533959037,,,,,2.96211416560549,-104.652706865072,1.51358813553798,HoldLanding,HoldLanding,0,0.725484152997469,0.0797394809838279,0.0527925795357884,0.942272364511623,0.344557727470731
15,1.69946907045079,2.48403406143188,-0.905601649824289,-1.41174253452279,1.69946907045079,-0.0680115870942877,0.0011492330038701,0.0680212960445556,-0.0484850177001072,-0.10926565983077,0.123475180942654,0.0079613218621462,0.172854452246209,0.0574292609773651,15.5026460795667,0.632728987048044,0.8903543772451,0.17723767025611,0.240233711787435,0.140630218628014,0.473578212606071,0.159469748195062,0.0375114262426207,,,,,1.78867162897179,-121.8764556945,1.82822042843838,AttemptLanding,AttemptLanding,1,0.464677604315684,0.188997693912248,0.197914578623279,0.899414081295356,0.337497680609772
16,1.77039055705071,2.56926465034485,-1.00482032916074,-1.44325635560924,1.77039055705071,0.0024195756155702,0.003956643492227,0.0046378199495069,-0.0547055794064902,-0.109332155473609,0.124620095882071,0.0080399141620071,0.119315355192526,0.0414225464711629,15.4538555335199,1.76159608866187,1.73240452628494,0.0307050239628443,0.0532683856093888,0.119126997508596,0.474267349231305,0.0102824925749967,0.0058721053823158,,,,,1.79698325918466,-123.928221238646,1.81841030718278,AttemptLanding,AttemptLanding,1,0.480388657841087,0.180596937981925,0.115063470537269,0.957194626043996,0.347054667773957
17,1.84794790566373,2.52306699752808,-1.00796045608172,-1.5348046253314,1.84794790566373,-0.0483518029378464,-0.0003501573906053,0.0483530708180828,-0.055632626531092,-0.124729011758609,0.138845921088322,0.0089543299525557,0.123074420750069,0.0431903571918097,15.4610820994799,1.06594176501676,0.933800474514263,0.176845822417194,0.240268828205596,0.1470245817291,0.439444831775746,0.15951070381589,0.0382860091578307,,,,,1.90606506718967,-122.683382350962,2.21709116654954,AttemptLanding,AttemptLanding,1,0.501424179615357,0.16076652531946,0.181275746480373,0.895864828337945,0.334655741453733
18,1.82280525382684,2.60742688179016,-1.03548388007792,-1.48675669873192,1.82280525382684,-0.0313332990043164,0.0230789146811805,0.0389154458969071,-0.0579954085871701,-0.118019514889042,0.133825917743774,0.0086300312374949,0.129094766266023,0.0447694517460534,15.4751469632367,1.01101291555675,1.12368571603962,0.177399100467872,0.240264148434033,0.179694934535168,0.499483463235846,0.159574826165137,0.0375787466934774,,,,,1.87952489310621,-124.36494621675,1.76213444766084,AttemptLanding,AttemptLanding,1,0.495035291369702,0.18367436470618,0.194791762583619,0.894527817660664,0.320135584651036
19,2.62182266553243,3.0,-0.78112939387166,-2.46684212554379,2.62182266553243,0.0101198034594486,0.0032792200589789,0.0106378431203453,-0.0413741855832596,-0.317093432419528,0.321901573755638,0.0207672032751525,0.202978908121605,0.0754307147290882,15.4507560000027,1.73282581637277,1.53887671655741,0.0319933185111752,0.0582887457063345,0.110358602495506,0.475835097914737,0.0115161367762886,0.0054686966212805,,,,,3.0,-106.031594526481,1.78093567042737,AttemptLanding,AttemptLanding,1,0.714238853754466,0.0870401714939333,0.0593310028612367,0.958297106557104,0.35095173222422
20,1.8870701433039,2.62710118293762,-1.01512293857026,-1.57510320888231,1.8870701433039,-0.0536613737456839,0.0069883149401358,0.0541145043216373,-0.0566357662789363,-0.131186654765427,0.145417376537444,0.0093784939644453,0.131658854639167,0.0460626021668619,15.4647119140851,1.13343120777778,1.17770878771375,0.177874562200682,0.240286896961413,0.158655281193124,0.474181898816385,0.159513140624263,0.0353410184960209,,,,,1.95533603544456,-121.682915799118,2.48045684148942,AttemptLanding,AttemptLanding,1,0.512431225314413,0.176427976376553,0.18960279444537,0.892903761792226,0.329486541691945
21,1.93316760598397,2.87204670906067,-1.07119323484873,-1.57642637909608,1.93316760598397,-0.0821444580544458,-0.0044615995412567,0.0822655326338142,-0.0674818788644073,-0.136125596001591,0.157933817139901,0.0101840378883945,0.186744628309081,0.0631522150146006,15.4710920500349,0.895586702139614,0.948313873870866,0.17644896149624,0.240283804665513,0.156154299462766,0.466442595040132,0.159480726222891,0.0372176605639037,,,,,2.01006102178809,-122.843348050567,1.56123111741224,AttemptLanding,AttemptLanding,1,0.528141804598645,0.226329812508457,0.220211905021314,0.897287729011798,0.330598089127659
22,2.62061448057493,3.0,-0.737991682880389,-2.48080854339846,2.62061448057493,0.0064320554845342,0.004314206853705,0.0077449156569121,-0.0375911832563789,-0.32049454529304,0.324476896619731,0.0209361526961123,0.197266374536598,0.0738352192482579,15.4398204784153,1.88727940567374,2.09728785468003,0.0256288788176603,0.0514403591679271,0.137364036178166,0.420186932748019,0.0002403935489982,0.0048366590908254,,,,,3.0,-105.373889448931,2.04524526273292,AttemptLanding,AttemptLanding,1,0.713597572002965,0.0867816430744089,0.0539346125459144,0.955878246402676,0.338949317254149
23,1.71504086702048,2.28967380523682,-0.837604526983624,-1.48414028209215,1.71504086702048,-0.0405390974009144,-0.0097631217126634,0.041698164991485,-0.0388515682031137,-0.116123198890646,0.123993741120467,0.0079960163890017,0.1139519883433,0.0397828079752913,15.4673836981082,0.977212780690343,0.872954738397274,0.177391452872916,0.240176433818166,0.136669253701761,0.424655346395495,0.159499328512837,0.0342436534582279,,,,,1.75191981509009,-118.497538474994,2.36121275568478,AttemptLanding,AttemptLanding,1,0.465300792800521,0.136937074680447,0.165503072879592,0.896767243056425,0.339258109465884
24,2.62065596199931,3.0,-0.590108623685818,-2.52265297030126,2.62065596199931,-0.0151096884469977,0.0103128109789468,0.0182936260826776,-0.0275211142649451,-0.339126169462244,0.341326434540316,0.022016781951018,0.199600971921244,0.0752920389420858,15.4712473341827,1.45738879976499,1.18931184185642,0.0623169798205637,0.240445994307696,0.109716091078744,0.437874029706031,0.0019407087992611,0.0083857212115738,,,,,3.0,-102.185830974197,2.25649132207099,HoldLanding,HoldLanding,0,0.7138999976549,0.0887062399986459,0.0571356344111486,0.948046005048407,0.351237292853892
25,1.73608040890726,2.5117392539978,-0.942807075345211,-1.43693669518821,1.73608040890726,-0.0482097679141772,0.0123820808152017,0.0497744678289283,-0.0496625747762895,-0.110829964931861,0.124616734208657,0.0080354796685514,0.142521828939731,0.0483813844499052,15.4903447204048,0.829265756848622,0.850845837347562,0.176871811097079,0.240226039829548,0.152838465362299,0.39212038997898,0.159537979199542,0.0379126565393431,,,,,1.79680657025774,-122.144595008979,2.25603733538819,AttemptLanding,AttemptLanding,1,0.472631052598584,0.183648559247342,0.194881324641296,0.898363217639919,0.332071793172312
26,1.83159420163336,2.55712795257568,-1.02142329246829,-1.50557139668847,1.83159420163336,0.0038489456579896,0.0010357537432027,0.003985871108643,-0.0569758894666928,-0.119253712972052,0.134606347573213,0.0086855109933955,0.131641236735136,0.0455722287159178,15.4448465602239,1.97514268650006,1.9950762806627,0.0171641473109987,0.0513568061897299,0.136919993066918,0.46312115076843,0.0003236018115496,0.006027953238111,,,,,1.89015622586425,-123.159855511628,2.37911083942928,AttemptLanding,AttemptLanding,1,0.497539566178747,0.163975836998606,0.100721308222196,0.960223348745365,0.339146669748036
27,1.69500357192635,2.42218995094299,-0.813254155961178,-1.46742790263649,1.69500357192635,-0.05585876234658,0.0001270451015048,0.0558589068220058,-0.0386274392183813,-0.117842248648786,0.126325206237588,0.0081452455714742,0.133705306266589,0.0458132637800086,15.4991724392526,0.700816685759092,0.644972884647474,0.175623857740957,0.24020712905391,0.101416357548122,0.393499426322742,0.156368362478479,0.0403211696106805,,,,,1.77620387229689,-117.832865156267,2.35816065586014,AttemptLanding,AttemptLanding,1,0.461163605269694,0.17385773486278,0.188473934402896,0.901614010219184,0.354926063311946
28,1.68905166435886,2.46034455299377,-0.954472499681707,-1.37223083895049,1.68905166435886,-0.0456094709834855,0.0065724120316288,0.0460805864036788,-0.0516180579315371,-0.101687945050178,0.117530166538544,0.0075784569473288,0.141920026173886,0.0478809277152959,15.4755558987641,0.748180550092649,0.991870718564799,0.175115910930987,0.240200679599014,0.127045757366009,0.446794079078588,0.159343755205878,0.0360294230350361,,,,,1.77693740749085,-123.63065316624,2.13890975590842,AttemptLanding,AttemptLanding,1,0.459989962705422,0.181989007450197,0.193114459604663,0.898770213137912,0.34353521894844
29,2.62216757535934,3.0,-0.514165134011767,-2.53961645198854,2.62216757535934,0.0065086902956661,0.0033730144699066,0.0073307759465896,-0.0223927562357147,-0.335793928232115,0.337268203153495,0.0217577553217485,0.195857458426174,0.0739876662530762,15.4387201314693,1.64585072703939,1.33681967350921,0.0320059713926928,0.0514120203882829,0.1100017239536,0.420362639893948,0.0142941101183203,0.0057084118294602,,,,,3.0,-100.208461528465,1.74093865554717,AttemptLanding,AttemptLanding,1,0.714042220013107,0.0863562711343556,0.0602424866307817,0.960561746870772,0.351110344909511
30,1.83657407192957,2.81980443000793,-0.936356602732896,-1.55019516724406,1.83657407192957,-0.0587304074930204,0.0098371978249809,0.0595485619082782,-0.0525884417101864,-0.131684248083216,0.146228116363569,0.009429798861301,0.184424678984626,0.0619282628982985,15.4664600043369,0.927339784795084,0.791559993049512,0.176804424785507,0.240244740793543,0.138400344935131,0.416785468550496,0.159485237107664,0.0340618617618061,,,,,1.90894849737311,-119.745808657761,2.29136513743208,AttemptLanding,AttemptLanding,1,0.502138738427545,0.232144066917483,0.222554899303644,0.89809214649561,0.338488735584386
31,1.88654676829877,2.61435747146606,-0.940666012709086,-1.62170513626351,1.88654676829877,-0.0509094227827652,-0.0050520343817719,0.0511594798592493,-0.0488096796400504,-0.139209029741689,0.14934351511801,0.0096304527164627,0.12994488956232,0.0457247837702199,15.4695112922987,0.938342782772543,0.948258896548462,0.177207160576935,0.240232830532849,0.161203675224688,0.443185115576655,0.159439475624467,0.0363907422069499,,,,,1.95935225919259,-119.13516242978,2.06284611535935,AttemptLanding,AttemptLanding,1,0.512224094967048,0.173136646186838,0.187976974044696,0.896573120802582,0.328353922122361
32,2.62724535783132,3.0,-0.645661699471957,-2.51408628430859,2.62724535783132,0.0058744039245948,0.0026689664216628,0.0064522866666987,-0.030737172946482,-0.32917318865603,0.331896991171635,0.0214097924656606,0.194703782857474,0.0733979895832046,15.4744042783685,1.62158903578246,1.38083186103751,0.0337409962614633,0.0549607522593759,0.103075066960933,0.420482356779322,0.0178216259421129,0.0054561591786654,,,,,3.0,-103.01941117063,1.6482394481239,AttemptLanding,AttemptLanding,1,0.715278360004993,0.0850527137101813,0.0609364087501989,0.959539051965683,0.354188859128474
33,1.85158970972308,2.79435396194458,-0.814895811289177,-1.63487263853098,1.85158970972308,-0.0741915882293991,-0.0143314781425127,0.0755631062738293,-0.0416858395970043,-0.146026887901078,0.154940982718379,0.0099912184151281,0.188087276245075,0.0634200357641122,15.4874421152695,0.904736546146705,0.766214657710339,0.176618622087371,0.24027120238022,0.161800860662742,0.386794076539475,0.159455603698166,0.0379218262015022,,,,,1.93692079365451,-115.089103932968,1.98079654243706,AttemptLanding,AttemptLanding,1,0.506441263078976,0.22597519290004,0.220244027921574,0.898561786640295,0.328088506372115
34,2.62471402185853,3.0,-0.543468769219886,-2.5372311993877,2.62471402185853,-0.0115887922763314,0.0077414850372402,0.0139366673565014,-0.0251394444369506,-0.337294046700484,0.339168585871977,0.0218875000713048,0.196582426038862,0.074295977861572,15.4048392784057,1.9986086344821,1.76798545291399,0.0626656550125256,0.240498763780927,0.14552997446443,0.489231733711593,0.0018998061722936,0.009145291529244,,,,,3.0,-101.157933097739,2.43818225058919,HoldLanding,HoldLanding,0,0.71478293473459,0.0869944007638556,0.0563665593131993,0.939072504664196,0.335320011349142
35,1.81362698759351,2.47405171394348,-0.805762083584409,-1.61170521881623,1.81362698759351,-0.0379786458236627,0.0043848657458939,0.0382309375533576,-0.0362388701172715,-0.136365413602459,0.142465304212672,0.0091874830414601,0.114116036354364,0.0406660490353312,15.4631169520576,1.07195957302288,1.00586851699959,0.17756455651679,0.240210155245787,0.136027601034392,0.475462899358056,0.159520665130179,0.0376745599095854,,,,,1.86137587595629,-115.841095627455,2.22102398107305,AttemptLanding,AttemptLanding,1,0.491767073165337,0.155604568646858,0.177960654546427,0.894891929605714,0.339543288429159
36,1.9732030069828,2.84716701507568,-0.897893457335071,-1.73624915120741,1.9732030069828,0.0072014705482572,0.0020156154816736,0.0074782273185147,-0.0461998595881101,-0.15909959313651,0.168113666868046,0.0108443590183759,0.155725689080024,0.0543087580368703,15.4745219822253,1.64231548059235,1.41912241902591,0.033416447594678,0.047833833552638,0.107604847069457,0.416698736354228,0.0256431783589212,0.0052925454027316,,,,,2.00134863438598,-116.022448666907,1.58468642755018,AttemptLanding,AttemptLanding,1,0.537049220136122,0.198012910162626,0.132129276221726,0.959237621277089,0.352175623524686
37,1.78327983090667,2.44544172286987,-0.795531175591637,-1.57692782961138,1.78327983090667,-0.0576923250486982,0.0069750363696582,0.058112438443785,-0.0364550909068105,-0.132549588480301,0.139453993049903,0.008992626686773,0.136791576412075,0.0473323116043636,15.4746130342709,0.955962733517654,0.900628266563961,0.176681288712219,0.240245412377283,0.139583305808896,0.451024308355415,0.159520449765985,0.0374316884419427,,,,,1.84847057739295,-116.145839673518,2.24049273688155,AttemptLanding,AttemptLanding,1,0.485007750562651,0.159640372739749,0.180293724387418,0.897071854928963,0.337962975196046
38,1.94223982622834,2.74555921554565,-0.754179009164541,-1.76826938912035,1.94223982622834,-0.0546058623474143,0.0058547932491453,0.0549188383589365,-0.0342035628303498,-0.166516992621779,0.171836039820459,0.0110804271904389,0.152725489229974,0.0535739458022993,15.4939722524288,0.905779026295373,0.920496442915775,0.176906395965699,0.240280285133447,0.173239342795653,0.443237924245152,0.159474341632347,0.0356283199336688,,,,,1.9993932608471,-112.620106358339,2.17632892695016,AttemptLanding,AttemptLanding,1,0.528645409488018,0.190815316295533,0.198322427650404,0.897197494759063,0.323004736535265
39,2.62656311114629,3.0,-0.629167591815542,-2.51554104346795,2.62656311114629,0.0048266757742274,0.0012344521797378,0.0049820348466839,-0.0299991215555387,-0.329057078446458,0.331659145984668,0.0214033653650702,0.197177983011913,0.0741357506591229,15.4291124319173,2.11649062792583,1.81616023151239,0.0253988592570722,0.0580199311405563,0.138437637928621,0.407473893305788,0.0002728364450056,0.0054850371666221,,,,,2.9987372183553,-102.731971335258,2.02949765772639,AttemptLanding,AttemptLanding,1,0.715243979770836,0.0849366730473099,0.0530778234402914,0.956401170761592,0.338472160920613
40,1.90367027472805,2.88422775268555,-0.298307625866761,-1.86299357082761,1.90367027472805,-0.0520108782363909,-0.0189039696373719,0.0553397824622699,-0.0083605701583588,-0.184314448021268,0.18472182224131,0.0119112168357172,0.158660260377551,0.0559359298982674,15.4952892693561,0.879928776711167,0.44195583976999,0.174992708902823,0.24025908286943,0.141905198704011,0.357683622190255,0.156620678518395,0.042094420756104,,,,,1.96262077332345,-97.9255988407311,2.04831867536644,AttemptLanding,AttemptLanding,1,0.518832592573801,0.230771059325186,0.22337888814086,0.902117409276237,0.336931022798217
41,1.88361730299839,2.57364153862,-0.268730626553216,-1.84610180393568,1.88361730299839,-0.0503789414426569,-0.0281530119546992,0.0577116090834772,-0.0076281560833169,-0.181244938084428,0.181592055369818,0.0117102962603733,0.157533872990928,0.0554573692795396,15.4657863348441,1.02308752604565,0.807020453093714,0.176887148481876,0.240264448141322,0.150293264730375,0.434684447226933,0.156683279032959,0.0415472717618332,,,,,1.94919332297993,-97.076725643542,2.35160033481608,AttemptLanding,AttemptLanding,1,0.513389421322146,0.165835914680165,0.184246660534121,0.897177005922967,0.333202993453167
42,2.61863508145014,3.0,-0.631144848184048,-2.50674152891673,2.61863508145014,0.0064041026087577,0.0024115546485585,0.0068431079230479,-0.0303208327736596,-0.327104587737972,0.329806827937381,0.0212815133010059,0.203564646064658,0.0759664531301015,15.4010000927682,1.90279875822017,1.60136323468265,0.0259757046310981,0.074464899958214,0.117065056790598,0.470360549018349,0.0005443541661689,0.0058791999307329,,,,,2.97766096785849,-102.83550377438,2.00245763837674,AttemptLanding,AttemptLanding,1,0.713495979012725,0.0870616764596097,0.0546168319446327,0.959479446311643,0.347971085870846
43,1.82548415579763,2.49146270751953,-0.230268203327306,-1.79894271398323,1.82548415579763,-0.0415852712704623,-0.017889431040308,0.0452699296397053,-0.0051070556331661,-0.17080385566069,0.170969871606101,0.0110247096645548,0.131093064504826,0.0470452161166362,15.487863626769,0.938250221796731,0.67611483776433,0.176720664355939,0.240218525586473,0.160563336395075,0.371321866016755,0.159473428969768,0.0362142060539283,,,,,1.87761184680711,-96.9149867627548,1.60803207750747,AttemptLanding,AttemptLanding,1,0.496204818102696,0.15814466123804,0.178932678486371,0.898955370925479,0.328638517157744
44,2.56460869050607,3.0,-0.607619063935044,-2.45956122030717,2.56460869050607,-0.021449986055743,-0.0147243655393928,0.0260174718665982,-0.0270072345218233,-0.309668898460507,0.312085238020887,0.0201362289911006,0.219952572994162,0.0800811321920191,15.4403085311333,1.7960821206589,1.4204734900317,0.0628036035042079,0.240221426126426,0.127510931895787,0.37967136913269,0.0018923013213982,0.0064488341018039,,,,,2.70268226585959,-102.84402520654,1.88002603260121,HoldLanding,HoldLanding,0,0.699911877240024,0.102732914478343,0.0648258020789903,0.943325261306756,0.343328474712984
45,1.67025750429452,2.44263076782227,-0.224509362971391,-1.63721021853039,1.67025750429452,-0.0570353815281503,-0.0216699245791861,0.0610132803357538,-0.0057541540813979,-0.142992477299148,0.143261387960254,0.0092380694041182,0.134282513941124,0.04675140276522,15.4836474785202,0.948344208913124,0.781639085569236,0.176666102122918,0.24019180668718,0.150323044435315,0.505018130770152,0.159513520127898,0.0353440165751236,,,,,1.74484723470437,-96.8322370152764,2.20684736812285,AttemptLanding,AttemptLanding,1,0.454752281698249,0.184969752355298,0.194729118911481,0.898074223053323,0.333189758028749
46,1.65379373073578,2.44024062156677,-0.217748977115187,-1.62298595188475,1.65379373073578,0.0008800774005259,0.0028094931124524,0.0029441106942223,-0.0052160999785423,-0.139440499080993,0.139669057837706,0.0090126485798013,0.137706160252633,0.0476207020816508,15.4505471384161,1.99075747891209,1.96352321956277,0.0342541122150842,0.0730094882917798,0.142305123412007,0.470641891257174,0.0219645395617819,0.0059406572454291,,,,,1.71876069037497,-96.5690723186371,1.58694869881347,AttemptLanding,AttemptLanding,1,0.450535801945871,0.177490304064248,0.118416439019901,0.951803595547298,0.336753278483552
47,1.76604845004828,2.40879583358765,-0.137959556112272,-1.74894648510067,1.76604845004828,-0.0483110633916618,-0.004011836569318,0.0484773522244366,-0.0028158566059099,-0.160678351075786,0.16075089084504,0.010366496743378,0.121027618931465,0.0435648333998042,15.4735975158716,1.00682269192071,0.765754003878877,0.177064575810006,0.240209700662911,0.149522548570007,0.414103504119554,0.159519482481517,0.0352469933857734,,,,,1.8330973949862,-93.5355183886098,1.81014185302019,AttemptLanding,AttemptLanding,1,0.479659220026168,0.153505675870838,0.175818041795984,0.897540323770857,0.333545533968886
48,1.72620207796226,2.39402937889099,-0.199844080536625,-1.70439057912667,1.72620207796226,-0.0392946163810072,-0.0156823258045788,0.0423084178287428,-0.0039616429144456,-0.152635874847796,0.152749395077961,0.0098494156921121,0.106276147665505,0.0387774352841301,15.4823183568517,0.819569977534826,0.611039825768081,0.176067277545808,0.240180540544222,0.12419769225081,0.385041459319422,0.156604479497034,0.0414426158124623,,,,,1.76093856199151,-95.8152911333806,1.87159107182752,AttemptLanding,AttemptLanding,1,0.468076041180094,0.158017685977568,0.179482644587734,0.900725855629716,0.344801025666307
49,2.62388135115306,3.0,-0.666520925454702,-2.50593141862779,2.62388135115306,0.004825084239897,0.0016719518189589,0.0051065507739591,-0.0318761113474779,-0.32675791150127,0.32962965281104,0.0212690312308035,0.192540982338905,0.0726506165632338,15.3912445343855,1.87754625768616,1.71019925620269,0.0299922908675242,0.0784270029904682,0.113135350665804,0.467312313543658,0.009658072592739,0.0065740642116815,,,,,3.0,-103.690253195533,1.85429580022139,AttemptLanding,AttemptLanding,1,0.714231816953462,0.0855628969657883,0.0580207836916048,0.95681442552854,0.349717621926309
50,1.65997348269638,2.50371289253235,-0.160938106339324,-1.63557976668787,1.65997348269638,-0.0540396023303071,-0.02273683748592,0.0586280001268921,-0.0037407813255934,-0.143131635307868,0.143274965779519,0.0092401768714975,0.139490872778136,0.0483153856434891,15.4459571845651,1.11048711171744,0.895369035319648,0.176688808138493,0.240206884325268,0.133637369593462,0.446629616009483,0.156609574539718,0.0403232605819899,,,,,1.72627812567413,-94.411640590645,2.23067321470324,AttemptLanding,AttemptLanding,1,0.452322672514398,0.200589833903024,0.204621159540796,0.895895297632605,0.340605613514017
51,1.56418491788462,2.37740874290466,-0.121178710668329,-1.54311516770482,1.56418491788462,-0.046803671288376,-0.0159754799739054,0.0494550260991439,-0.0025352110871855,-0.127018205273364,0.127111914859274,0.0081967365724498,0.126328412625346,0.0436362393883187,15.4679859929225,0.882149296182559,0.658033989977481,0.176908434452344,0.240168275727289,0.127862645333256,0.406903712903935,0.159498874443366,0.0371550395765762,,,,,1.64198518080473,-93.7945426045898,1.94603978668282,AttemptLanding,AttemptLanding,1,0.425843225980229,0.192042115414353,0.199624581372499,0.899444342668285,0.343172157629664
52,2.6139718808458,3.0,-0.633093923708774,-2.50081876998268,2.6139718808458,0.0081861205440005,0.0036386719153,0.00895837612897,-0.030807279167184,-0.325602414238392,0.328447512575773,0.0211929355713436,0.202200829202374,0.0754953036606527,15.4251484635572,1.89971873521824,1.87345327814238,0.0226852278623661,0.0547741498359385,0.133706432165672,0.455029556362532,0.0133690663280439,0.0074638210015215,,,,,3.0,-102.899260755177,1.61856118913517,AttemptLanding,AttemptLanding,1,0.712158228957677,0.0884986957666728,0.0617551414447381,0.959011034535269,0.340574919037479
53,1.7212586978938,2.29265856742859,-0.145336388324199,-1.70336354547426,1.7212586978938,-0.0458423283754811,-0.0125904207619045,0.0475398544996431,-0.002887668454759,-0.154069020474282,0.154146145775325,0.0099402124560156,0.122341902157343,0.0436607193664138,15.4738437908921,0.995139620763877,0.630222958105077,0.174804163300959,0.240206523545764,0.123750269961414,0.408156591491378,0.156511875441623,0.0389110035627151,,,,,1.76767167051157,-93.7767495596924,1.91922016811476,AttemptLanding,AttemptLanding,1,0.467734463311628,0.13728061063693,0.166078655752755,0.899827212372693,0.344999880017149
54,2.68296286169305,3.0,-0.590920858875015,-2.5782085161768,2.68296286169305,-0.0331652187934801,-0.0087448621505725,0.0342987514590827,-0.0256800466529934,-0.341533502389311,0.343583019142371,0.022169350868508,0.205722004441978,0.0772351469405492,15.4230629859899,1.86774778264794,1.60331740893837,0.0622452471364082,0.240332506503839,0.129474647185093,0.455636024317783,0.0018720110171233,0.0078398683450543,,,,,3.0,-101.106544404973,1.99401408599259,HoldLanding,HoldLanding,0,0.730903792506256,0.0776214605532291,0.0502557424448201,0.941604721355046,0.342455712362181
55,1.66112268700892,2.39034056663513,-0.156759073171698,-1.64249257860707,1.66112268700892,-0.0354574275304278,-0.0183179436305498,0.0399096006736165,-0.0029360797186638,-0.1424291712643,0.142509206113606,0.0091895218529571,0.116318271628946,0.041328146785754,15.4761544678468,0.85386969737316,0.683133505876088,0.176557169379409,0.240200717822617,0.146402515479271,0.412284280394042,0.15946151012588,0.0375066234438002,,,,,1.6954412846166,-94.4207914550518,2.2441556951909,AttemptLanding,AttemptLanding,1,0.451231679226195,0.171390783039395,0.187345024263187,0.89964496157048,0.334932215342546
56,1.69019582172235,2.5946033000946,-0.101692408979017,-1.66374782523653,1.69019582172235,0.0028414960902083,0.0044773170967441,0.005302873599801,-0.0026669221510975,-0.149671875216633,0.149826644541925,0.0096641695381166,0.179417065233463,0.0605900382467206,15.466046361444,1.41469756082858,1.38421901304254,0.027823912047068,0.0482519421095575,0.0987997487929099,0.380417738796036,0.0061259742819435,0.0076637038771901,,,,,1.73280982852964,-92.1431804697514,1.94131449617429,AttemptLanding,AttemptLanding,1,0.46283689344197,0.204463876127054,0.128187782322539,0.964096556610336,0.356089000536485
57,1.58212841124762,2.31121373176575,-0.185117661904577,-1.55561900537562,1.58212841124762,-0.0468059138881994,-0.0233259636455797,0.0522962154931353,-0.0043625712565857,-0.129460334325502,0.129650705319651,0.0083616650836966,0.137272108863003,0.0470347982174886,15.4502462726475,1.11299711995415,0.967035387307799,0.17671631757686,0.24017780704319,0.133016641155657,0.445485372284898,0.159551248631,0.0357827395818389,,,,,1.65239533729994,-95.8334835366937,2.40783912955617,AttemptLanding,AttemptLanding,1,0.431307869309529,0.173631836623654,0.188102673334902,0.895298728654512,0.340881492819708
58,1.65073660198523,2.39444923400879,-0.111376452633496,-1.62822447894682,1.65073660198523,-0.0479071222971263,-0.017099376043747,0.0508672883873053,-0.0025794165229803,-0.140108679636157,0.140226801968036,0.0090427984747094,0.135641744565941,0.047022482302079,15.4690741448417,0.97348588346988,0.62123282450483,0.176229518176742,0.240189798084131,0.114554225055234,0.391631638038314,0.159491504298101,0.0360356342691034,,,,,1.68060545220575,-92.4282145747537,2.18065057677095,AttemptLanding,AttemptLanding,1,0.449600923656477,0.176661011742973,0.189985587074109,0.899355308206114,0.349087011086563
59,2.5326197107633,3.0,-0.532725022478959,-2.445218104466,2.5326197107633,0.0041899072442037,0.0053091281636572,0.0067632953930143,-0.0233617638825446,-0.313550202065125,0.315281354212543,0.0203473163383073,0.205613602767113,0.075927202266949,15.4053227949528,2.10090750869785,1.88693995756316,0.0334591398101224,0.0689316074634154,0.137118385270393,0.465860696382831,0.0217119848590432,0.0050680555721597,,,,,2.78982386220964,-100.41262924442,1.63510617968278,AttemptLanding,AttemptLanding,1,0.690550696656935,0.106400502566978,0.0753330018876176,0.951937342860031,0.339058495435381
60,1.67433432656892,2.36635947227478,-0.0779792599430933,-1.66137993104644,1.67433432656892,-0.0403466853513428,-0.0175512747521528,0.0439988893526395,-0.0015029707773121,-0.146916869723444,0.146957817587326,0.0094779084282749,0.124488123045907,0.0439809728135644,15.4529915451685,1.16278357358485,0.910272461584065,0.177389774885624,0.240216213179336,0.138073365723689,0.445568752910096,0.15948529583908,0.0343737177670594,,,,,1.72864210057146,-91.9462754292346,2.28166738670381,AttemptLanding,AttemptLanding,1,0.455285348314424,0.163772120831804,0.181645159938816,0.895016815138003,0.33863405967836
61,1.61389018889187,2.35767102241516,-0.184364151831997,-1.59127715724604,1.61389018889187,-0.042986542120587,-0.0040524771082217,0.0431771394860482,-0.0037778199637641,-0.134264646624007,0.134397177541019,0.0086672226207772,0.115965479994122,0.0408566998327806,15.4808337843369,1.06797128388434,0.725340274775169,0.177510017033901,0.240185654758303,0.136013611391665,0.456090996522248,0.159668799076726,0.0368448538286874,,,,,1.6541677253945,-95.777639022521,2.43292886926153,AttemptLanding,AttemptLanding,1,0.438542057004389,0.175266496448516,0.189521937234854,0.897154686379296,0.339549506048149
62,2.61897924979528,3.0,-0.548476654355449,-2.52846622322588,2.61897924979528,0.0066996980459261,0.0021701059995387,0.0070423940500244,-0.0247594102506479,-0.332579831851518,0.334409687327222,0.0215814079897456,0.198624682517717,0.074694390348137,15.4137804177031,2.12766011504924,1.96675169813408,0.0198410191422003,0.0740428333658488,0.128085634636562,0.459529170861637,0.0002355290823744,0.008529663462533,,,,,2.96888331606625,-100.576107342626,2.25971778684038,AttemptLanding,AttemptLanding,1,0.713333344681701,0.0870207743719003,0.0554188400198641,0.957909111896745,0.343073051272639
63,1.54528690763071,2.29742622375488,-0.0754637985981937,-1.52923285592528,1.54528690763071,-0.0383275473475856,-0.0210635996178995,0.043734152724668,-0.0014184666542351,-0.124973602185075,0.125029799485705,0.0080625413589824,0.131634952009108,0.0451342645540201,15.4882552033257,0.923109869915294,0.708850986700975,0.176824184839034,0.24015603636572,0.141771895405965,0.419805299959993,0.159571509595351,0.0373849693837303,,,,,1.60300708299886,-92.1234906695166,1.69262375439394,AttemptLanding,AttemptLanding,1,0.421103361612327,0.177249274127461,0.1908647697291,0.898765357992784,0.33699026870846
64,2.6732653188588,3.0,-0.61636902757141,-2.56761075383534,2.6732653188588,-0.0217666079635978,-0.0094001827612799,0.0237096743585066,-0.0274228068450334,-0.337092116545798,0.339369116179609,0.0218917644637041,0.198601031306626,0.0749045445165807,15.4611165418933,1.56307866694094,1.20976259119654,0.0629435154965476,0.240183071044011,0.107992809779618,0.410915166070288,0.001852650362778,0.0080333178861636,,,,,3.0,-102.201792877698,1.70813451907184,HoldLanding,HoldLanding,0,0.727851660598996,0.077862076889163,0.050461852798792,0.94674163236636,0.352003195653503
65,1.5145767027018,2.15534901618958,-0.140829586650672,-1.4996003957744,1.5145767027018,-0.0307178538075279,-0.0204561750343412,0.0369058483112942,-0.0022508062668764,-0.119342325937937,0.119395628723509,0.0076991681998724,0.100635327336378,0.0355800159408242,15.4706651756881,0.90886679671642,0.77703989343912,0.176976066923598,0.240165594587764,0.1295145693274,0.492743103675709,0.159475491823053,0.0367997021562223,,,,,1.55228808798252,-94.2268777224065,2.45734313521903,AttemptLanding,AttemptLanding,1,0.411003123908645,0.150939842725153,0.174823611875883,0.898265556829836,0.342437969187822
66,1.56833340307077,2.23719215393066,-0.132490620026539,-1.54713875716267,1.56833340307077,0.005108994746744,0.0067038018304015,0.0084286882908049,-0.0028908571581962,-0.126959858450997,0.127068469410157,0.0081994520172347,0.133337662211765,0.0457409150755939,15.4511533103996,2.11667102171846,1.94607796299889,0.0230494937832264,0.0515137771414474,0.134879650291762,0.404409790041481,0.0002373821191232,0.0067987943392358,,,,,1.60696450398557,-93.5145725727472,2.15562113186118,AttemptLanding,AttemptLanding,1,0.42737042383399,0.152038478463458,0.0938008790927606,0.956553653942751,0.340053488759217
67,1.64563386943065,2.39887094497681,-0.102452724975029,-1.6267334805894,1.64563386943065,-0.040795330261561,-0.0194532047395188,0.0451960855139853,-0.0021834327920298,-0.141121618355513,0.141203680381301,0.0091054136058161,0.124447449860481,0.0437080244822156,15.4821269564097,0.921843905473542,0.758338580387373,0.176266730015686,0.240203805477416,0.139199376747125,0.403419974806043,0.159447170807584,0.0363349149278361,,,,,1.70472744872138,-93.0615211949791,2.35021230757618,AttemptLanding,AttemptLanding,1,0.447577303411282,0.177764291008783,0.19073668019048,0.898665201174678,0.338133610334611
68,1.61041414048396,2.23256707191467,-0.145539544113804,-1.59064282473178,1.61041414048396,-0.0461916955912921,-0.0272759426031878,0.0536437301694335,-0.0030454693666253,-0.133996953764864,0.134095690923224,0.0086470141024471,0.118461461923516,0.0415913484487679,15.4772100602027,0.911446641737113,0.799239422686724,0.177215600525327,0.240223909926698,0.145823831649067,0.439494510333534,0.159552870705053,0.0369889585346215,,,,,1.6346567991892,-94.1375227104005,1.7690845041962,AttemptLanding,AttemptLanding,1,0.437762040485476,0.149819093436307,0.174254373418034,0.897951094945435,0.33518940815597
69,2.62280500690142,3.0,-0.388865136013256,-2.56181672433435,2.62280500690142,0.0068643365470717,0.003666937869708,0.007782387138389,-0.0162069117091316,-0.341182467504083,0.342066723384039,0.022073122611275,0.195212765173208,0.0740150153798549,15.452539576611,2.12264452816353,2.11706694897316,0.0142299404137473,0.0579607905559124,0.147075442537268,0.452037332580851,0.000243708917526,0.0036510812253657,,,,,2.97762147861884,-97.4745863886534,2.49311953650644,AttemptLanding,AttemptLanding,1,0.714217671583017,0.0862956444225511,0.0532133676281197,0.959573011044195,0.334633136650103
70,1.69102515979689,2.35358500480652,-0.079679285860853,-1.67271023687017,1.69102515979689,-0.0491779393002986,-0.0245370809362311,0.0549594218919287,-0.0016439224669552,-0.149341487785273,0.149411763833499,0.0096359075820775,0.128682972701334,0.0453500271178545,15.4656977813924,1.11696455745901,0.889058634733866,0.176536629095233,0.240225853644798,0.162340029211543,0.463183450223106,0.159511532529555,0.0366416367321395,,,,,1.74106956136438,-91.9626622500687,1.85765888864853,AttemptLanding,AttemptLanding,1,0.460010048036075,0.159151859140687,0.179709361480952,0.895970074656583,0.327848875905981
71,1.6188055674235,2.38686275482178,-0.185280181063072,-1.5970628649607,1.6188055674235,-0.038894721874515,-0.0053201738007443,0.0392568928847661,-0.0037264027075719,-0.135427689581211,0.135552224081417,0.0087406737055254,0.113632530017778,0.0402082305992011,15.4867881488141,0.858917641679468,0.767012671360814,0.176574459529048,0.24019452835933,0.162102096008624,0.40032093852607,0.159549124398251,0.0359638154853478,,,,,1.67774962146967,-95.9395937551425,2.09780519883727,AttemptLanding,AttemptLanding,1,0.439723130766108,0.180009964193486,0.19199445155645,0.898937603490159,0.327954623996167
72,2.62111524780591,3.0,-0.608949611784022,-2.51403372950991,2.62111524780591,0.0066390550119523,0.0012896428204695,0.0067631523756395,-0.029108697067521,-0.32866504955865,0.331162643218869,0.021367629985927,0.196145793338038,0.0738010789915602,15.4522692858786,1.96722202767046,1.98941843255801,0.0202115870840108,0.0706811081903485,0.128842643905646,0.485905007763555,9.4029668862946e-05,0.0063237805486542,,,,,3.0,-102.28205700878,2.24669570061704,AttemptLanding,AttemptLanding,1,0.713724281879889,0.0864889805125368,0.0542347358346081,0.958806317127628,0.342736602708602
73,1.67512895947411,2.55148673057556,-0.165542466225462,-1.65030701797103,1.67512895947411,-0.0467525498000397,-0.0134800598023599,0.0486570953210361,-0.0036907359171315,-0.14491063829994,0.145049281384947,0.009353828908355,0.13634085626821,0.0474499371163116,15.4818671591544,1.0428141686832,0.825845238722409,0.176830434959871,0.240205138853773,0.157965542194347,0.458588754278973,0.159502344220748,0.0379781276231907,,,,,1.730743683828,-94.7490683234343,1.72621303554326,AttemptLanding,AttemptLanding,1,0.456191043283025,0.20610096597335,0.208360738575402,0.896902458604735,0.329793092358068
74,2.60166790198397,3.0,-0.558137873490442,-2.51026763963905,2.60166790198397,-0.0118858022479149,0.0153736127508943,0.0194324538875305,-0.0260571724731081,-0.337546583997595,0.339562928359254,0.0219103937020539,0.198459097240075,0.0748750047634603,15.4490119547206,1.89761444171404,1.5638359135537,0.0630949094496792,0.240454996626115,0.137739917065187,0.394896539631689,0.0019504802130873,0.0117173719362991,,,,,3.0,-101.440236798872,2.40052937998248,HoldLanding,HoldLanding,0,0.708753108148417,0.0931873385996546,0.0610401457767888,0.941255435340914,0.338782259082139
75,1.67900243016327,2.39260458946228,-0.183445874673685,-1.65782884179245,1.67900243016327,-0.0343051056368509,-0.0083707599510005,0.0353116113327156,-0.0035745151658944,-0.145371446467807,0.145474583709111,0.0093816833528579,0.121706698010182,0.0430791877500552,15.4702041291091,1.07378629774532,0.889825497777529,0.177930174762524,0.240204121057885,0.130376677220945,0.450328112041271,0.159466896230245,0.0371397208948729,,,,,1.72844746755899,-95.0560971705178,2.02417619022988,AttemptLanding,AttemptLanding,1,0.456349818926884,0.167034281253274,0.184600097906977,0.895606534225344,0.342054810124024
76,1.77227495392164,2.44781446456909,-0.222107835977001,-1.74747854161755,1.77227495392164,0.0051636665757415,0.0026346785666707,0.00579698056363,-0.00460548084588,-0.159597431120817,0.1597385006394,0.0103051787315325,0.119304214554224,0.04300488947834,15.4621362355546,1.73519688702256,1.64996094820917,0.0258229632443248,0.0623615513129441,0.114664870853147,0.44644421436422,0.0001592152560392,0.0048966535592662,,,,,1.80133462105751,-96.2777836497926,2.01671398457335,AttemptLanding,AttemptLanding,1,0.481207632274771,0.153059169665676,0.0936868654297019,0.960490849672445,0.949037835176379
77,1.68703807760405,2.3685827255249,-0.163151254878583,-1.66382369388411,1.68703807760405,-0.0501199400205886,-0.0279157368665007,0.0573698244068004,-0.0037525612319153,-0.148968092023121,0.149103811377885,0.0096161985354985,0.132206873085318,0.0463934009004445,15.4672157812894,1.13228890721108,0.69401065984894,0.174636099875039,0.240229258704625,0.168302926413242,0.359759694063598,0.157501964568724,0.039101289249367,,,,,1.75923009576763,-93.8331549635916,2.01863452850455,AttemptLanding,AttemptLanding,1,0.459155500874502,0.163865346923438,0.182538731931852,0.898332453464152,0.325198699371892
78,1.79994136935112,2.45527958869934,-0.212165146020291,-1.77589419355268,1.79994136935112,-0.0506242864226352,-0.021517616858209,0.0550075104968193,-0.0046421501486415,-0.165432351877062,0.165590322086273,0.0106774278206908,0.113316346638041,0.0414691034658958,15.4894292678463,0.878360524089362,0.602871557370237,0.175556023533271,0.240223709786017,0.118837592483193,0.436497975403852,0.158566473831761,0.034813547300318,,,,,1.84421771642335,-95.6415120879709,2.15384179651859,AttemptLanding,AttemptLanding,1,0.488278185853479,0.157535809611099,0.177654945881901,0.900583736164753,0.347183292229692
79,2.6187555463019,3.0,-0.407704047005136,-2.55531121013586,2.6187555463019,0.0043194049356726,0.0044441870366639,0.0061974234497221,-0.0171467751017919,-0.340686317905562,0.341669684238025,0.0220489788551723,0.197925717361673,0.0748120004071227,15.4132509419863,2.1010839388849,1.82466170898429,0.0176626286340002,0.053359418108758,0.12473012204112,0.428989261953545,9.02521826337776e-05,0.0052605175363334,,,,,3.0,-97.5958361626102,2.34999156602157,AttemptLanding,AttemptLanding,1,0.713297212428599,0.0869161963811876,0.0541027453776408,0.960323541306885,0.344564390203947
80,1.78299233621481,2.57019734382629,-0.233172501780352,-1.75061046685651,1.78299233621481,-0.0515113628648801,-0.0102714984260267,0.052525462245593,-0.0059183373144895,-0.163478584550063,0.163724652881869,0.0105602013783355,0.145582205857751,0.0510668027221602,15.4428695046849,1.24747754727847,0.948140602167053,0.176030388792842,0.240213756282933,0.157255802670089,0.430123008522451,0.156654325417503,0.040119356873029,,,,,1.84269174465958,-96.4089816842801,1.75092564494768,AttemptLanding,AttemptLanding,1,0.485677983535047,0.186750794790944,0.196263478549305,0.89473352014365,0.330108532146627
81,1.8374964517801,2.51684236526489,-0.196947723181353,-1.81582681736136,1.8374964517801,-0.0395226709298292,-0.0153860138653039,0.0424119197878485,-0.0040646349275609,-0.173369602469805,0.173486048706381,0.0111873467976322,0.115544396965126,0.0424944618478804,15.4625366265489,0.946318444898908,0.73349015188754,0.177226095693243,0.240212854891025,0.139201423220265,0.454513967049866,0.159512226939018,0.0354346702493836,,,,,1.90149022471625,-95.3637271300002,2.2714326307714,AttemptLanding,AttemptLanding,1,0.498497946177602,0.160628349161851,0.180156667217258,0.898188456035771,0.338132700790993
82,2.58484280864398,3.0,-0.397728025537204,-2.52157328925076,2.58484280864398,0.0062332952275432,0.002889465697719,0.0068704425921485,-0.0169740177093802,-0.332146126704078,0.333147467239057,0.0214908827437753,0.204094948745584,0.076272102544318,15.457747488974,1.62146264459312,1.6097045870607,0.0229276339334032,0.0529025795370565,0.114128002691685,0.369521538237935,0.0001094303102277,0.0054463964900974,,,,,2.91783086718893,-97.7855854258006,2.12209303764083,AttemptLanding,AttemptLanding,1,0.704545836147257,0.0946699491969991,0.0588311130262149,0.963148440498875,0.34927644324814
83,1.69520972294061,2.39274120330811,-0.302379602763446,-1.65207038928468,1.69520972294061,-0.0421997661282526,-0.0072724166508075,0.0428218204333044,-0.007732590228567,-0.144808956491487,0.14523034732095,0.0093642928862592,0.125518300364668,0.044210495129782,15.4971061684919,0.759685747508122,0.612625488791624,0.177274617135227,0.240215241423458,0.118890414929909,0.370468758573343,0.159518373579056,0.034899240659466,,,,,1.75027764965131,-99.5200046041142,1.82877315229742,AttemptLanding,AttemptLanding,1,0.460898025143453,0.164795250162125,0.182464837988378,0.900580246004317,0.347159815586707
84,2.66256999739681,3.0,-0.448976873582128,-2.59256986178695,2.66256999739681,-0.0263213357385074,-0.0111659744867075,0.0285918117875911,-0.0174840731009567,-0.343747496233522,0.344773327447861,0.0222388517047542,0.203037907038693,0.0764785683049357,15.4704122541342,1.47242683806643,1.20296764697767,0.0625296408664363,0.24025280450607,0.108240688755784,0.453291633904513,0.0018503492855317,0.0060521897513891,,,,,2.95681470906161,-98.270421652992,1.98239006560454,HoldLanding,HoldLanding,0,0.725314379633471,0.0811635827467752,0.0517213233815339,0.947714222898578,0.351893027219652
85,2.0060389098667,3.0,-0.442568944048468,-1.93099874242543,2.0060389098667,-0.0730065713839047,-0.0173415652375695,0.0750379194149335,-0.0165385729555323,-0.203880666692843,0.205267651376958,0.0132387774750788,0.217889520187719,0.0746340002888709,15.4645441744573,1.23569265078065,0.859715445937905,0.177890201937446,0.240353403851547,0.143740012997966,0.496594819785106,0.159550647851117,0.0354935026954978,,,,,2.10680641889481,-101.731697741666,2.2004631361894,AttemptLanding,AttemptLanding,1,0.54987050935556,0.237398197172731,0.226257045601488,0.894590978271345,0.336115549778682
86,1.98413762569427,2.60434865951538,-0.550554278167131,-1.89271211451433,1.98413762569427,0.0024183689875112,-0.0001537815409751,0.0024232534580808,-0.0187558708196733,-0.187350405820584,0.188816564695725,0.0121791996934976,0.139502488335014,0.0503761862859524,15.4685471173257,1.53343215486365,1.46033013631083,0.0311222485547034,0.0543946829120013,0.105346745571251,0.431346201492725,0.0158663373619022,0.0061623157837826,,,,,2.01104491577433,-105.279667622794,1.72428117620253,AttemptLanding,AttemptLanding,1,0.539178604108997,0.13999174574373,0.0932875950436107,0.960916457720563,0.353179224190555
87,1.99011646525389,3.0,-1.14289951158646,-1.59532212111292,1.99011646525389,-0.0757377906950684,0.0168021914088487,0.0775791632818348,-0.0762137850316784,-0.140916581690695,0.167160373232772,0.0107797777111528,0.197475274762154,0.066788426826453,15.4578946374097,0.953156780634797,0.893073518261248,0.177490405186076,0.240303345387002,0.14936532336453,0.41326844822326,0.15946376479422,0.0346193652104959,,,,,2.06469467336038,-124.238920485483,2.15957149558937,AttemptLanding,AttemptLanding,1,0.544055409432996,0.241446641919543,0.228329629581257,0.89674870220135,0.333615411837987
88,1.95632084535093,2.97492957115173,-1.10844225391861,-1.57841311202739,1.95632084535093,-0.0744398015230458,0.0002224036722057,0.0744401337598467,-0.0721209831212228,-0.137989200130168,0.162254984762272,0.0104632000707382,0.211223903168605,0.0706914110000981,15.4758723239347,0.972148254613546,1.02779287342371,0.177421925989331,0.240311784543743,0.179144402296029,0.495254009374258,0.159443296063858,0.0375272409142638,,,,,2.00959748573364,-123.70580417537,1.70703268699913,AttemptLanding,AttemptLanding,1,0.535823840960267,0.242834321161153,0.230210549259553,0.89557521385647,0.320380265646209
89,2.63957253654798,3.0,-0.246292667787609,-2.5944665996874,2.63957253654798,0.0046515790806227,0.0039695425049718,0.0061151006240343,-0.0098153764591874,-0.349364536535513,0.349816987329183,0.022567215586853,0.196149619365349,0.0746419367204018,15.4677949485852,1.71407998993228,1.4571581218518,0.0328165648190231,0.0491180414639458,0.106535837343527,0.437900988514704,0.0221532247083945,0.0057425803009117,,,,,3.0,-94.0907171926139,1.67214183197295,AttemptLanding,AttemptLanding,1,0.718814397090208,0.0822172810577778,0.0612644573013553,0.958674846712185,0.352650738958432
90,1.96429009178058,2.72096180915833,-1.06981047598712,-1.63099054555899,1.96429009178058,-0.0416658300623716,0.0037325673233646,0.041832684035451,-0.0624092298857932,-0.140303618636739,0.156376528242231,0.0100833949147318,0.125337697064689,0.0446596855597189,15.4916391214852,0.885919365866485,0.862152018410697,0.176287641492435,0.240265371763137,0.139828566019281,0.364325581772764,0.159552947870527,0.0374302663793165,,,,,1.99637079272466,-122.311062912018,1.78372430987338,AttemptLanding,AttemptLanding,1,0.532742628253431,0.177920461816492,0.1912757043218,0.898121332663033,0.337853970658097
91,1.849651907577,2.90395665168762,-1.11818897316303,-1.43817682961194,1.849651907577,-0.0767842668075524,0.0116672795784938,0.0776656232958709,-0.0732938544771928,-0.114067020852761,0.142553875235529,0.0091921893438197,0.189872175799196,0.0633961852804326,15.4866120753989,0.86114291398,0.973822860678065,0.177165007508931,0.240273369520403,0.173774057142725,0.447414999672544,0.159628777880198,0.0371566270247074,,,,,1.94546366280019,-126.251978914843,2.22511689881233,AttemptLanding,AttemptLanding,1,0.505919745743285,0.251457265029134,0.235331983256048,0.896999908016078,0.322767085714345
92,2.62905407230059,3.0,-0.474150780037952,-2.55224548997364,2.62905407230059,0.0065652709054821,0.0065440129365423,0.0092696756888255,-0.0208434536954593,-0.338586854152437,0.339989219185972,0.0219344436072356,0.197492880350687,0.0746019746302709,15.4575369529541,1.79294882449028,1.62582636072486,0.0304936004035477,0.0562828005010163,0.121629971555621,0.464493758636916,0.0104618730188623,0.0041327802733046,,,,,3.0,-99.2513675644137,1.83036735753344,AttemptLanding,AttemptLanding,1,0.716001480872879,0.0851622742753179,0.0572499150971999,0.957891394771536,0.345942234864169
93,1.71164016091094,2.41401958465576,-1.03739940299775,-1.34867631855602,1.71164016091094,-0.0447884272664995,0.0062459077641354,0.0452218374328665,-0.0588110069785911,-0.096498227429942,0.115271632917699,0.0074330366960878,0.111537400873586,0.0386643459493373,15.4865161262611,0.860082911911531,0.782707474513123,0.177002240018124,0.240197923633784,0.131978430754528,0.386347552971717,0.159426548389166,0.0365121921815937,,,,,1.74681180591764,-126.657123786368,2.17237370961684,AttemptLanding,AttemptLanding,1,0.464170245432784,0.166326040538611,0.183929028844992,0.898591241240459,0.341342919664654
94,2.59291612407266,3.0,-0.23791689015838,-2.54851332448859,2.59291612407266,-0.0167336568036192,0.0158471512429283,0.0230466369029747,-0.0100720314775567,-0.35115161574087,0.351640668148637,0.0226874704515447,0.204780046492443,0.0773152432638142,15.4055510245819,1.71381823647161,1.40008907946101,0.0624356611613995,0.240488938177392,0.120735888023768,0.497444222803065,0.0019291623833847,0.0070896280090358,,,,,3.0,-94.2734617915732,2.3093522766171,HoldLanding,HoldLanding,0,0.706907348405473,0.095819088849196,0.0609269053619845,0.944315754794115,0.34633960532277
95,1.80914513351155,2.61983847618103,-1.15123929593444,-1.36963202632347,1.80914513351155,-0.0718896508936929,0.0083974098434045,0.0723784387624875,-0.0733109910704149,-0.100440005914178,0.129486318831101,0.0083504421519955,0.141321386064456,0.0482417253257337,15.4678917270383,0.938969819179309,0.94228848013978,0.176524518531702,0.240218383547383,0.144585435453369,0.37226220358269,0.156828408071548,0.0430882768829555,,,,,1.86493072097439,-128.583435678336,2.42861691396376,AttemptLanding,AttemptLanding,1,0.492087047334893,0.195675382540422,0.202775208543794,0.896956425525213,0.335739806465169
96,1.71930909117063,2.45829486846924,-1.05976458605,-1.33223287824019,1.71930909117063,0.0042186603619503,0.0035888257772899,0.0055386610032779,-0.061916056762029,-0.0944957479226253,0.11687082826987,0.0075396949246486,0.138630208362746,0.0468668489560779,15.4561701592872,1.66725011460533,1.7440488547404,0.0261098030938646,0.0554093667220174,0.119086514545867,0.454196512938806,0.0008882866077912,0.0059561602777964,,,,,1.76269102467469,-127.19753908103,2.00510405905028,AttemptLanding,AttemptLanding,1,0.467855794103383,0.167287221076121,0.102933003158233,0.960142035122494,0.347072660201837
97,1.78847924381697,2.49821257591248,-1.09686910994317,-1.39826544008695,1.78847924381697,-0.0416345867320125,0.010768354006648,0.0430046074317387,-0.0650275601244285,-0.103319720786798,0.124774706979002,0.0080461440027839,0.112701748168943,0.0394428252526316,15.4725727367338,0.927299422135595,1.03845437725382,0.176845714718269,0.240218783274969,0.147578328226281,0.456485724783058,0.159542767248527,0.0361049236133496,,,,,1.81622668042125,-127.513201967813,1.73136686333412,AttemptLanding,AttemptLanding,1,0.484816363401719,0.16757417775064,0.184581466337412,0.896131934217091,0.334409631899431
98,1.86137054728813,2.70738816261292,-1.1733000498211,-1.42199343330246,1.86137054728813,-0.0519930242294205,0.0129167850407316,0.0535734813532738,-0.0752979924361036,-0.108726899212462,0.136889773212009,0.0088275353330258,0.154359037417319,0.0524869859583139,15.4792558226312,0.958200815602983,1.07892128767516,0.176682428385624,0.240253183314086,0.152414734959435,0.543702058679256,0.159511476302935,0.0365638660873746,,,,,1.91962505408224,-128.853168090004,2.28894930562713,AttemptLanding,AttemptLanding,1,0.506862876468497,0.200175768362844,0.204295401790177,0.895652826424288,0.332260117795806
99,2.62145708203316,3.0,-0.16329834467563,-2.58295676177677,2.62145708203316,0.0049415763645208,0.0065591464007206,0.0082122821719956,-0.0060175724397809,-0.34666388065477,0.346962380342179,0.0223886635145101,0.198173859505984,0.0751242223119521,15.4185865682698,1.96666333021609,1.65511276633089,0.0328939465210351,0.0735604541221975,0.116508533874231,0.497981985690994,0.0216096570424816,0.006077067732303,,,,,3.0,-92.2002194325483,1.66750071182143,AttemptLanding,AttemptLanding,1,0.714080066337899,0.0866777416074054,0.0638207797950705,0.955096214552328,0.348218429389231
100,1.62896134334357,2.32966256141663,-1.02637683628985,-1.24456036389828,1.62896134334357,-0.0402821195383843,0.0128085073086812,0.042269457223641,-0.0584125438025283,-0.0833525475170273,0.105344591030568,0.0067932653032875,0.13344837594396,0.0447897984954892,15.4687026386673,0.932092780555518,0.936891128670499,0.177007384536122,0.240197015290224,0.133640942776902,0.382509259334066,0.159565831223838,0.0337862909597871,,,,,1.68546986904653,-128.540481584722,1.70785235083962,AttemptLanding,AttemptLanding,1,0.443347651257382,0.165407174557439,0.182448375930435,0.896811434159449,0.340604025432488
