scenario_id,mean_wind_speed,max_wind_speed,wind_velocity_x,wind_velocity_y,wind_velocity,wind_acceleration_x,wind_acceleration_y,wind_acceleration,wind_body_force_x,wind_body_force_y,wind_body_force,mean_wind_body_risk,mean_wind_gust_risk,mean_wind_risk_raw,min_thrust_margin_n,mean_abs_roll_deg,mean_abs_pitch_deg,mean_abs_vz,max_abs_vz,mean_tag_error,max_tag_error,stability_std_z,stability_std_vz,mean_imu_ang_vel,max_imu_ang_vel,mean_imu_lin_acc,max_imu_lin_acc,wind_speed_cmd,wind_dir_cmd,hover_height_cmd,gt_safe_to_land,label,success,onto_wind_condition,onto_gust,onto_temporal_pattern,onto_drone_state,onto_tag_observation
1,,,,,,0.0,0.0,0.0,,,,,,,,,,,,,,,,,,,,2.0716688985117,-127.374480982322,2.31472368639318,HoldLanding,HoldLanding,0,0.0,0.0,0.0,1.0,1.0
2,2.07208044290543,3.0,-1.07199459771281,-1.75331301094507,2.07208044290543,-1.11148796696149e-17,-7.00308110175543e-17,7.09073694466691e-17,-0.0648750323885053,-0.157439082174556,0.175068435505713,0.0112935147761933,0.0689259145240082,0.0770748819809246,15.4021698941751,0.974366412948986,0.825238464539308,1.21339502874796,1.93249555831926,0.171183236131469,0.364217987387286,0.0,4.536406081492301e-16,,,,,2.42882567996652,-126.095851442396,2.10387515459019,HoldLanding,HoldLanding,0,0.567969761170965,0.208781900346279,0.125269140207768,0.535860247391163,0.323918561719347
3,1.91306300643755,3.0,-0.988959774980779,-1.56674489766498,1.91306300643755,0.0193155220291884,0.0109574607381788,0.022207101050988,-0.0595738269507942,-0.143813604372872,0.165755720968088,0.010700868536098,0.180135477233891,0.181937396397584,15.3158229760287,1.60941701868258,1.76154933265935,0.140150239443641,0.209879855573132,0.160086800441811,0.586299748891507,0.117138552337119,0.0126510631789508,,,,,1.87319628751653,-127.297520073929,1.739236042145,AttemptLanding,AttemptLanding,1,0.546537614329531,0.248632125410898,0.205841240673564,0.903438716089064,0.328850310914751
4,2.00428407689182,3.0,-0.842269087681971,-1.74159549474916,2.00428407689182,-0.0105920570463156,0.0292571870492103,0.0311155052426421,-0.0502991298564727,-0.189985821948108,0.205204202780746,0.0132417074858154,0.22756350941289,0.227600827035063,15.4241326234208,1.30919205040996,1.39336829405405,0.0676259110844195,0.240239168403902,0.110348454531982,0.379191488450202,0.0019523360535503,0.0103465335835007,,,,,2.46779887999601,-105.553838771394,1.81161912617244,HoldLanding,HoldLanding,0,0.579995919244832,0.229740591993825,0.142474435957529,0.944952641751287,0.35095624243023
5,1.66211328520412,2.81938171386719,-0.93605451300346,-1.34772994958389,1.66211328520412,0.0127815895732773,0.0486282586660677,0.0502799818308807,-0.053957328876339,-0.109675765198399,0.127163461882303,0.0082012069400571,0.150002390729568,0.151075740551438,15.444508308551,0.944184431577721,0.990676421138883,0.161159616121667,0.240291328290164,0.167626954646182,0.436174327832073,0.156812738010938,0.0427550044614307,,,,,1.88084050141636,-125.058018224367,1.96295212616298,AttemptLanding,AttemptLanding,1,0.473445357498054,0.269603393118184,0.247003860447605,0.904217713810679,0.325499131268363
6,1.98309358477592,3.0,-1.01277234844643,-1.66687963316171,1.98309358477592,0.0126944186722108,-0.0364609052287955,0.0386075883153634,-0.0601965936903394,-0.154044576120823,0.171722674646579,0.0110780175061671,0.186947038001637,0.188023004128025,15.4429630564515,1.0436624244913,1.33732967726986,0.0407688653882011,0.0967924604306437,0.10818884500905,0.409245216984022,0.0318789971350619,0.0130960141329358,,,,,1.9161886291726,-122.783489357006,1.58073506376562,AttemptLanding,AttemptLanding,1,0.566429556765852,0.235882001283234,0.16045983089851,0.960907772220633,0.351916068884867
7,1.93919402747959,2.83268761634827,-1.06876797724678,-1.60465817232803,1.93919402747959,-0.0657856553059518,-0.002647200990797,0.0658388951693388,-0.0621778259866965,-0.13574081419572,0.151570626806801,0.0097744168251303,0.130232587670605,0.132636264658843,15.4696878512528,0.670528014815849,0.797311387957213,0.18037456517551,0.240265188849194,0.11272099209804,0.410604062340649,0.156674376083733,0.0426992775434068,,,,,1.96867067391655,-123.586570068552,2.11897453803348,AttemptLanding,AttemptLanding,1,0.54364566025966,0.21310652160983,0.213023979018897,0.898279693533314,0.34990178128976
8,2.27950906328804,3.0,-0.90975366083045,-2.0203781095805,2.27950906328804,0.0030081814062029,0.0072793283790281,0.0078764063520332,-0.0528500415416791,-0.226805077442606,0.239630607378363,0.0154642567142312,0.169894343929133,0.170762307173487,15.344025672766,1.39619973689289,1.19096330032639,0.0727381250388729,0.240050123702605,0.147994380794644,0.472560942319415,0.154559017999522,0.0437438975031526,,,,,1.96461919299708,-125.030810267647,1.73959245873725,AttemptLanding,AttemptLanding,1,0.642021544978174,0.163554468591397,0.182732449862843,0.943303227902412,0.334224719646825
9,2.33297998865445,3.0,-0.877301458942527,-2.11448241503707,2.33297998865445,-0.0006621230459421,0.009122070685451,0.0091460691293217,-0.0465864592652838,-0.24314977155054,0.251503997634535,0.0162349179907006,0.17889011108173,0.180266590296971,15.3946701075515,1.78448431886164,1.73827306586286,0.0222702965832587,0.136438810638074,0.104485512455756,0.272503655222102,0.0078508466908436,0.0065671313440737,,,,,2.98365709536118,-106.900241715489,2.38160002317348,AttemptLanding,AttemptLanding,1,0.658181315033915,0.151756281893123,0.0969310820932859,0.961186043685535,0.353561994464109
10,1.83423887510769,2.65056920051575,-1.09356050890353,-1.45615638063554,1.83423887510769,0.0087696618244513,0.0034705759743261,0.0094314296959056,-0.0652599374423983,-0.111317750327555,0.131985928849556,0.0085153055915661,0.114945907598747,0.116038630407718,15.381625246735,1.15916084573082,1.0966118307005,0.115665998183824,0.249866049644593,0.202083632238127,0.558490506379297,0.148915677471269,0.0403535089640689,,,,,1.92399487038037,-126.353098118705,2.44236278394005,AttemptLanding,AttemptLanding,1,0.512338092776927,0.185403418661063,0.192100799999085,0.924443072736127,0.31018505233861
11,1.60556248153549,2.83650016784668,-0.999609916453682,-1.22847405977252,1.60556248153549,-0.0792734572150835,0.0244578910907668,0.082960650042291,-0.0664510381326387,-0.0961061113445972,0.12248685718515,0.0078988703467385,0.192684652946457,0.193419588161064,15.4628332547522,0.803170829847699,0.899698282462878,0.164120224355508,0.240172066671467,0.10684880995005,0.425887820104601,0.158504121885259,0.0379388522776842,,,,,1.90759543141243,-127.844704273722,2.35377167202992,AttemptLanding,AttemptLanding,1,0.466833912708342,0.292170431927772,0.259544481832906,0.904560201939806,0.3525116400222
12,2.11539868950844,3.0,-0.877521831233596,-1.88012541158172,2.11539868950844,-0.0062306480734886,-0.0581186373183814,0.0584516636132901,-0.0497082260771561,-0.208082401393073,0.218939434779547,0.0141312671312871,0.217736809833847,0.220289240519813,15.4054361020076,1.58795392182017,1.60135355772929,0.0449990300920413,0.0891295111395234,0.116446767070623,0.422098158832837,0.0329568546961574,0.0112842324542877,,,,,3.0,-106.299635778902,1.5,AttemptLanding,AttemptLanding,1,0.608164165306213,0.209751433189705,0.144601708145997,0.952441640471805,0.348245881301946
13,2.39926528763026,3.0,-0.948714303972989,-2.15161283773257,2.39926528763026,-0.0104077019216344,0.0292513792487522,0.0310477607444389,-0.0558413210821255,-0.251055361119392,0.263208566819793,0.0169752058188929,0.191660186890478,0.194337907732812,15.4536507916536,1.03798408029738,0.622592828257315,0.0942255725409716,0.239965655104847,0.118942156772189,0.238120682830648,0.1596138835515,0.036472217197391,,,,,2.02726066309477,-121.319262228342,1.94377518993842,AttemptLanding,AttemptLanding,1,0.678671658247965,0.140857399753005,0.168716568087885,0.939839823733727,0.34713681921236
14,2.49406601407845,3.0,-0.838737242759188,-2.27350446812948,2.49406601407845,-0.0448133529291336,0.0169931637911595,0.0479270718528084,-0.0415584911461014,-0.286012571135758,0.293591782848281,0.0189418877987254,0.224365813348811,0.225880466625948,15.4275134745229,1.27593940941112,1.0893055659681,0.0573777445517827,0.240211107217658,0.0937510544691742,0.438402346343958,0.0019192058465906,0.009173752851942,,,,,2.96211416560549,-104.652706865072,2.04202021121631,HoldLanding,HoldLanding,0,0.71026036374611,0.12262177667203,0.0777619565074595,0.952727060060415,0.358332864680367
15,1.48974095341526,2.56182813644409,-0.80243180615661,-1.24181007697027,1.48974095341526,-0.0068927262603999,-0.0094752145139286,0.0117170544671334,-0.0429738229683696,-0.0995777364946351,0.110624029237887,0.007135694137197,0.168340128938338,0.169127819437738,15.4043613671221,0.91333163534424,0.999900825667013,0.143951956797556,0.240163643306041,0.143636617606644,0.511655332482084,0.156610211445257,0.0425841357233983,,,,,1.78867162897179,-121.8764556945,1.64168870431293,AttemptLanding,AttemptLanding,1,0.431089818131616,0.243367742833796,0.231110324383446,0.912991480836134,0.336161503285936
16,2.0627615737915,3.0,-0.90756744384334,-1.79735366327384,2.0627615737915,0.0274792083019641,-0.0005913800507738,0.0274855711104424,-0.0487064450546065,-0.183945512675461,0.195906644439354,0.0126465403033489,0.193658121146708,0.194648177137788,15.3940824499554,1.88606728032455,1.77585308413635,0.0173932709611996,0.0584765525722952,0.119258790586031,0.429132403637917,0.0060541111456475,0.012852820073252,,,,,1.79698325918466,-123.928221238646,2.23933471208862,AttemptLanding,AttemptLanding,1,0.588999388438625,0.215917667267159,0.136915069178938,0.96253113308435,0.346996093072875
17,2.17571682006793,3.0,-0.863717150139655,-1.939254273739,2.17571682006793,-0.0265297717248457,-0.0005909588146932,0.026536352803147,-0.0458074602719615,-0.208943277920121,0.218868269130999,0.0141145278147689,0.172611014200563,0.174931264050193,15.4627214419375,0.860585465334806,0.589593681153264,0.0694309500332985,0.240075496212166,0.124294192265542,0.268673466603523,0.159214795263334,0.0357140617968315,,,,,1.90606506718967,-122.683382350962,1.70613300635955,AttemptLanding,AttemptLanding,1,0.615177404828153,0.190328713498626,0.197946290889808,0.953890260260944,0.34475813677087
18,1.43318772569616,2.53925371170044,-0.728130584340754,-1.21320491515459,1.43318772569616,0.0943871079796044,-0.0583669509350438,0.110975795172674,-0.0381644247793775,-0.0975034253083571,0.107576626150837,0.0069373082867743,0.168721600066243,0.169561092958716,15.4176405857587,0.983222886251094,0.978891579025888,0.15798943599148,0.242780898592497,0.113870219706819,0.431756489075096,0.156746775096706,0.0419500700359621,,,,,1.87952489310621,-124.36494621675,1.99793416860475,AttemptLanding,AttemptLanding,1,0.416095612110719,0.269210409299287,0.246446049878054,0.905588668348512,0.349391013463636
19,2.62525293946266,3.0,-0.6956174271807,-2.49359316107004,2.62525293946266,0.0308712593977153,-0.0332190934597701,0.0453491215691105,-0.0351901238494031,-0.324109076872047,0.327835543630741,0.0211608289011704,0.168551661785318,0.171032242265207,15.4059679054535,1.68993404477028,1.61146338919352,0.0118996747722665,0.0541290928312109,0.118460308696654,0.421501865444201,0.0021299793071186,0.0091653601625968,,,,,3.0,-106.031594526481,2.41522555186966,AttemptLanding,AttemptLanding,1,0.734273898976418,0.0926320942419047,0.0598587722559177,0.968110611347008,0.347350973912598
20,2.45360996162713,3.0,-0.766644100514291,-2.26866167743262,2.45360996162713,-0.0322032248188487,0.0157285072043439,0.0358389959068388,-0.0413093475710837,-0.277684599093097,0.285754767534311,0.018427361145574,0.177924659231318,0.180631590749629,15.4490275922737,0.898814923556963,0.438009440699145,0.0874700493982225,0.239948197387863,0.105661844591298,0.184564347730277,0.155911630700471,0.0404159297757525,,,,,1.95533603544456,-121.682915799118,2.17215887310561,AttemptLanding,AttemptLanding,1,0.690422307917162,0.129508241216815,0.161695704555825,0.945761355296019,0.353039180181645
21,1.63731191697575,2.83448839187622,-0.955151738198285,-1.30741636355435,1.63731191697575,-0.0409130024002607,-0.0890251410272426,0.0979762700878339,-0.0622079730598286,-0.107076118791349,0.127897417651374,0.0082513155974534,0.195120442700982,0.19748571887582,15.4296684907094,0.809193451694998,0.854654066349399,0.133808169726504,0.240061578452751,0.119253536169285,0.326677226071424,0.157854323544781,0.039455565739312,,,,,2.01006102178809,-122.843348050567,1.74082657659875,AttemptLanding,AttemptLanding,1,0.476113654968697,0.287327023035376,0.256901169402898,0.92002282749497,0.346998428369207
22,2.65171892148595,3.0,-0.755147141612632,-2.50582220237828,2.65171892148595,-0.0142238146456047,-0.0120558162138496,0.0186456324015743,-0.0388188640427665,-0.327700600761757,0.331860934876684,0.0214083856389607,0.193565409256085,0.196097670208985,15.434265936082,1.36525139527974,0.934760048097886,0.0173533388086843,0.0516800564677275,0.0882735554152146,0.380212144152349,0.0002080013031811,0.0050904283739152,,,,,3.0,-105.373889448931,1.75999896575047,AttemptLanding,AttemptLanding,1,0.746344579771384,0.0817816086059495,0.0510124750504477,0.973251812111976,0.360767308704349
23,1.60356124904421,2.27695155143738,-0.780201986720208,-1.39035286351374,1.60356124904421,0.0947524687794272,0.0095461973304515,0.0952321386049282,-0.036746775448029,-0.110878791187806,0.118051372950796,0.0076121590681272,0.123530755862108,0.125417186004206,15.4663407639729,0.634725361942724,0.69323753197104,0.163005291306825,0.240201351347372,0.14064569827308,0.258583921226269,0.158667962164025,0.0334406203678328,,,,,1.75191981509009,-118.497538474994,2.17155928322648,AttemptLanding,AttemptLanding,1,0.452699770279296,0.168972043449367,0.184062545953045,0.908063360180122,0.33749080076752
24,2.57474973550071,3.0,-0.599041654593714,-2.46900862468346,2.57474973550071,-0.0229905089033337,-0.0047635695019462,0.0234788222454649,-0.0251504783633321,-0.325640553373668,0.327674866374315,0.0211339158279119,0.201948195653774,0.203623867253862,15.3907213743012,1.09474096486951,0.73427452981048,0.0521655820619878,0.240227850093253,0.0869680390261697,0.408814133440265,0.0018883138728947,0.0060179932784873,,,,,3.0,-102.185830974197,1.57579810382974,HoldLanding,HoldLanding,0,0.727324702917629,0.0999857602573421,0.0630190679567579,0.959546372939378,0.361347538210591
25,1.73657972822266,3.0,-0.916339442884468,-1.44738661761839,1.73657972822266,0.0434016247668686,-0.0493001014543594,0.0656825778712604,-0.0499033782246838,-0.116516795914964,0.13127924508819,0.0084662647019883,0.174731149790767,0.177141113415844,15.470344569784,0.741426280700484,0.760033737779546,0.165032667624104,0.240244066458599,0.106809284836327,0.399290849088781,0.159519162808491,0.0383102618883214,,,,,1.79680657025774,-122.144595008979,2.09110092803968,AttemptLanding,AttemptLanding,1,0.498516150209212,0.296311367092965,0.262615230271468,0.905686480328462,0.35252920673941
