scenario_id,mean_wind_speed,max_wind_speed,wind_velocity_x,wind_velocity_y,wind_velocity,wind_acceleration_x,wind_acceleration_y,wind_acceleration,wind_body_force_x,wind_body_force_y,wind_body_force,mean_wind_body_risk,mean_wind_gust_risk,mean_wind_risk_raw,min_thrust_margin_n,mean_abs_roll_deg,mean_abs_pitch_deg,mean_abs_vz,max_abs_vz,mean_tag_error,max_tag_error,stability_std_z,stability_std_vz,mean_imu_ang_vel,max_imu_ang_vel,mean_imu_lin_acc,max_imu_lin_acc,wind_speed_cmd,wind_dir_cmd,hover_height_cmd,gt_safe_to_land,label,success,onto_wind_condition,onto_gust,onto_temporal_pattern,onto_drone_state,onto_tag_observation
1,NaN,NaN,NaN,NaN,NaN,0,0,0,NaN,NaN,NaN,NaN,NaN,NaN,NaN,NaN,NaN,NaN,NaN,NaN,NaN,NaN,NaN,NaN,NaN,NaN,NaN,2.0716688985117,-127.374480982322,2.31472368639318,unstable,unstable,0,0,0,0,1,1
2,NaN,NaN,NaN,NaN,NaN,0,0,0,NaN,NaN,NaN,NaN,NaN,NaN,NaN,NaN,NaN,NaN,NaN,NaN,NaN,NaN,NaN,NaN,NaN,NaN,NaN,2.42882567996652,-126.095851442396,2.10387515459019,unstable,unstable,0,0,0,0,1,1
3,1.78558813280134,2.41434717178345,-1.07183395203101,-1.40816659731597,1.78558813280134,0.00569601307617119,0.00933722194106044,0.0109374713046725,-0.06319243842946,-0.106803913663286,0.127940080773768,0.0082517590240808,0.141385072209162,0.143764147195878,15.4383515659257,0.693816468251294,0.986406111614531,0.171861525429494,0.240232400631265,0.108982260348338,0.409000235279163,0.159434221732714,0.0356170079701547,NaN,NaN,NaN,NaN,1.87319628751653,-127.297520073929,2.02651962562808,stable,stable,1,0.504909664852866,0.143475986843497,0.169896885471401,0.90086748844345,0.351563439845183
4,2.32093422208197,3,-0.658665314869816,-2.19607122022423,2.32093422208197,-0.0105038951346481,0.0121757565098263,0.016080449607715,-0.0321449464669056,-0.264695097316781,0.268290542570217,0.017321695046796,0.227891614361011,0.229465344259063,15.3978251794723,1.84941272628217,1.5647611684756,0.0581185167576387,0.240424423607518,0.142623385794681,0.467142905496806,0.00193094885736541,0.00909654451027567,NaN,NaN,NaN,NaN,2.46779887999601,-105.553838771394,2.36330248122722,unstable,unstable,0,0.664808861407006,0.155737882459637,0.0976087633353175,0.944115089590941,0.336611828535697
5,1.77845598690545,2.52951908111572,-1.02526851233191,-1.43851762765544,1.77845598690545,0.00302232202846655,-0.00341005983072712,0.00455663675235286,-0.0566192297340893,-0.110323967268417,0.126535897907109,0.00816192832812269,0.12531303302454,0.127575975194305,15.4031402660234,0.961361876767339,0.957579900372175,0.172962195642277,0.2402175427312,0.117627640817232,0.410970061701055,0.15946484527402,0.0359772453169908,NaN,NaN,NaN,NaN,1.88084050141636,-125.058018224367,1.98702553903493,stable,stable,1,0.499770124880315,0.169824579601909,0.1858506469881,0.898441502501337,0.347721048525675
6,1.89216039220492,2.75815463066101,-1.05087530183683,-1.55116615680521,1.89216039220492,0.0048952178362824,0.00165540536057764,0.00516754531402353,-0.0614579158594897,-0.127580042442844,0.145426001518763,0.00939164710829199,0.154688623311903,0.155834092028362,15.3692988075751,1.85364952030873,2.15682517447846,0.00944726490662946,0.0721511869976929,0.132344202168257,0.495136291550835,0.000242357300457912,0.00774299234934638,NaN,NaN,NaN,NaN,1.9161886291726,-122.783489357006,2.39929589224114,stable,stable,1,0.535742922993651,0.195796086960191,0.120401000113454,0.963765494944786,0.341180354591886
7,1.88156106825228,2.63490748405457,-1.0341315301989,-1.55813164477496,1.88156106825228,0.00647694484362122,0.00130050847587117,0.00660621955456555,-0.0581095267616073,-0.128796400577178,0.143644043897735,0.00926514855734466,0.124701544668754,0.12732424112719,15.4555377325736,0.902620394653774,0.9624095831538,0.171690166022223,0.240245982823156,0.141333855945007,0.409343257208577,0.15947511280992,0.0366814732145244,NaN,NaN,NaN,NaN,1.96867067391655,-123.586570068552,1.97796810365841,stable,stable,1,0.527214466426046,0.170714083807184,0.186644995732385,0.8995011100204,0.33718495291333
8,1.87927788186956,2.81677722930908,-1.06735811553721,-1.51502495221285,1.87927788186956,-0.00193329409224836,-0.0112409542301397,0.0114059930760639,-0.0662137792497624,-0.126798685945825,0.149159039405047,0.00961895226502181,0.181958442007219,0.18458856922072,15.4722912221033,0.673712245444743,0.821770041916415,0.172029674002354,0.240288224752344,0.109880665557227,0.428271769626825,0.159433866255501,0.0379816120773665,NaN,NaN,NaN,NaN,1.96461919299708,-125.030810267647,1.8583145830656,stable,stable,1,0.538058482342694,0.213028451904503,0.212488062557119,0.9022349450267,0.351164148641233
9,2.61774382034938,3,-0.805141855921674,-2.45667583498545,2.61774382034938,0.00523955895752946,0.00406516649030572,0.00663163303141328,-0.0427726790052972,-0.314381830043339,0.319375387142802,0.0206057949109028,0.197896695562629,0.200362195674342,15.4607854584425,1.35939417041848,1.2991678608487,0.0187929740653639,0.0479856431517983,0.0887978131617926,0.433456568766335,0.000408083096713313,0.00621844053116947,NaN,NaN,NaN,NaN,2.98365709536118,-106.900241715489,2.0321406165321,stable,stable,1,0.738137457894702,0.0872234398104829,0.0547766852537391,0.969714811293076,0.360534305261426
10,1.82986287320102,2.94195413589478,-1.07835595826839,-1.45043151397675,1.82986287320102,-0.0116771276979769,-0.00142704137425985,0.0117640026504039,-0.0666084698887487,-0.116939235049444,0.140138231202381,0.00903859762730965,0.186128861706658,0.188574882558279,15.4667452660278,0.850892985479009,0.956367192370098,0.170979109563605,0.240268506588888,0.164619178174775,0.374565892565916,0.156623484686004,0.0419611160562841,NaN,NaN,NaN,NaN,1.92399487038037,-126.353098118705,1.76615925382472,stable,stable,1,0.52567840936526,0.252377267925336,0.236295386050256,0.900310543820812,0.326835920811211
11,1.79947837105504,2.76273894309998,-1.10090186920716,-1.39387513367625,1.79947837105504,0.00892724664591058,-0.00376787434294339,0.00968981990240958,-0.0695355888549205,-0.107999346651175,0.134559207252557,0.00867962015707538,0.169931504246901,0.172205712611857,15.4656901166794,1.04949688132503,0.891526290561242,0.171050761653989,0.240251751665065,0.170524748131092,0.42995569056951,0.156550775934774,0.0426567447669398,NaN,NaN,NaN,NaN,1.90759543141243,-127.844704273722,1.76272678171344,stable,stable,1,0.514302041470381,0.218510095692219,0.216195723604623,0.89922372282247,0.324211223052848
12,2.63635688503583,3,-0.789470982823009,-2.47829641767362,2.63635688503583,0.00496226736183174,0.000237412263206144,0.00496794343295304,-0.0422168315829916,-0.319363813119055,0.324325528161082,0.020927215087321,0.199974920600244,0.202543670221027,15.4434775234164,1.45969718316592,1.18817091474208,0.0326254979493174,0.0542753421745807,0.111443887090294,0.472891641019469,0.00951640755318402,0.00325167562626606,NaN,NaN,NaN,NaN,3,-106.299635778902,1.5,stable,stable,1,0.743537236720427,0.0827304904963124,0.0550502362663296,0.962882573113207,0.350469383515425
13,1.90992148982154,3,-0.973889083177019,-1.61106793640115,1.90992148982154,-0.00657686365943519,-0.00406160107454526,0.00772992489507799,-0.0565614554479321,-0.143776386856556,0.159809641020995,0.0103063306206437,0.191492746829752,0.1942343764473,15.470973779681,0.811815694722517,0.719148842591674,0.171425803357512,0.240277129447931,0.147455838111752,0.408866539459119,0.159444845699221,0.0345636924596722,NaN,NaN,NaN,NaN,2.02726066309477,-121.319262228342,1.73188625979387,stable,stable,1,0.548159272575204,0.246684817687584,0.231443881918752,0.902258091242347,0.334464071950333
14,2.66083026644009,3,-0.732202445510563,-2.52180911083858,2.66083026644009,-0.0258661068510909,-0.00603787208852147,0.0265614642478421,-0.0335305040067496,-0.327515866189261,0.330874727018031,0.0213475382522708,0.199783816617264,0.201848552152095,15.4441961670099,1.42750289590805,0.986270149338821,0.0580716372013525,0.24035661350193,0.103575661459033,0.431644009934842,0.00188670732213623,0.00775516948361116,NaN,NaN,NaN,NaN,2.96211416560549,-104.652706865072,1.69503483229951,unstable,unstable,0,0.749924448147777,0.0811827918297503,0.0523682733158703,0.951998821758098,0.353966372684874
15,1.70019790199068,2.67743873596191,-0.893668408094311,-1.41820922094258,1.70019790199068,0.00344864056757495,-0.00380543833428134,0.00513560928034265,-0.0469560118918163,-0.111710429300301,0.125602083806702,0.00810137528870035,0.173965702069478,0.176080914577167,15.4388450523835,0.89475940207895,0.928482700276991,0.171397901691514,0.240241776176461,0.147818012721422,0.419664256564914,0.159420413412575,0.0356391401150406,NaN,NaN,NaN,NaN,1.78867162897179,-121.8764556945,1.9813767064916,stable,stable,1,0.488602290112948,0.220820716011591,0.21630563399377,0.899975575492875,0.334303105457146
16,1.767927993536,2.54161763191223,-1.00823411729805,-1.43774978693532,1.767927993536,0.00245300930946931,0.00249803544263395,0.00350106208813818,-0.0551162779814162,-0.109016816465313,0.124572475681707,0.00803769134982943,0.125162438384704,0.126113447518965,15.4345973613744,1.27102299557282,1.37933646420948,0.0331986169065081,0.0533582439951122,0.103037782928158,0.468367647900295,0.00921493649838471,0.00564194624906918,NaN,NaN,NaN,NaN,1.79698325918466,-123.928221238646,1.50414314445021,stable,stable,1,0.496670154446725,0.174722030017478,0.110980362160946,0.962576438648456,0.354205429809707
17,1.83455948476438,2.6687695980072,-0.993093557180941,-1.52641753899326,1.83455948476438,-0.000799849878926937,0.00182341868494531,0.00199113423189577,-0.0541945647480753,-0.12462688043655,0.138591733259991,0.00893890655845547,0.139191945683053,0.141658072099937,15.4514477486203,0.910209077820547,0.811116262838731,0.17148449078343,0.240230745624664,0.137796184181877,0.380835110860983,0.159404118514549,0.0335668527441496,NaN,NaN,NaN,NaN,1.90606506718967,-122.683382350962,1.90643249347141,stable,stable,1,0.517547477023823,0.188062316755482,0.195889793219244,0.900733055503105,0.338757251474722
18,1.82846355873303,2.50488233566284,-1.03219312558896,-1.49476378710023,1.82846355873303,-0.012540702448139,0.00535525679400095,0.0136362749027164,-0.0583127286206701,-0.119273322142988,0.135310163020886,0.00872678065103633,0.131438375567344,0.133881601727312,15.4644343333255,0.929397614466066,0.78278062194634,0.17015076024064,0.240224556450365,0.151859895328475,0.450447518256677,0.159477744270895,0.0364472173436905,NaN,NaN,NaN,NaN,1.87952489310621,-124.36494621675,2.46778262573448,stable,stable,1,0.51436660267427,0.154694208541373,0.176949056158078,0.901471790879297,0.332506713187345
19,2.62121812661489,3,-0.766306561048155,-2.47483226115865,2.62121812661489,0.00739536914250337,0.00168741235507585,0.00758543638889376,-0.0392243925188752,-0.319030874164426,0.323325681252133,0.0208629819608725,0.196179624229053,0.198621355200917,15.4097711851015,1.57535188248215,1.16528495744049,0.0275413856323385,0.0709819902570536,0.102601086456563,0.461934046919515,0.00100288442000495,0.00464967011628363,NaN,NaN,NaN,NaN,3,-106.031594526481,1.63960454473328,stable,stable,1,0.73871577147082,0.0866165848496139,0.0541064664518535,0.96469573201301,0.354399517130417
20,1.87189711641382,2.64139270782471,-0.978607215712203,-1.57608276343989,1.87189711641382,-0.000144683104600119,0.000214801728957585,0.000258984523707299,-0.053681489619222,-0.133247046218946,0.146811094383816,0.00947029920101742,0.142356770616995,0.145018307049388,15.435748079391,1.04440011116258,0.977635563578463,0.171575322409154,0.240273922958647,0.172587629471373,0.418861631289131,0.15944844415428,0.0363216397925142,NaN,NaN,NaN,NaN,1.95533603544456,-121.682915799118,1.7651166363327,stable,stable,1,0.528176225786897,0.173183988563462,0.187984237333217,0.898324915636744,0.323294386901612
21,1.87755304442512,2.94822287559509,-1.01503562787237,-1.5470863737054,1.87755304442512,-0.00498606507317188,-0.0108411581952656,0.0119327932995037,-0.060265425761492,-0.133060778434194,0.151884969956896,0.00979577008668429,0.191650590411221,0.19425380087717,15.4738466395727,0.878084909584172,0.817444290245604,0.17211952025914,0.240316886600272,0.137170433928592,0.423834238120789,0.159426700921754,0.0354592577847173,NaN,NaN,NaN,NaN,2.01006102178809,-122.843348050567,1.99290105763489,stable,stable,1,0.539531572022132,0.24308839078482,0.229603621549751,0.90061822472891,0.339035362698404
22,2.61543893138568,3,-0.747170409760895,-2.47262973341405,2.61543893138568,0.00675524549813014,0.00138566694376635,0.00689589839100419,-0.0381900797554923,-0.31839027615189,0.322534292959178,0.0208199827159051,0.199885268731831,0.202351604355846,15.443840524119,1.80607288418004,1.54498921603307,0.0197719143819288,0.0482537272460158,0.114309493459813,0.398035338640274,0.000282312553058048,0.00486085789238783,NaN,NaN,NaN,NaN,3,-105.373889448931,1.97995265367401,stable,stable,1,0.737920702574016,0.0877904884765737,0.0545673500198888,0.963784269164504,0.349195780684528
23,1.63876869060375,2.50586700439453,-0.78095391508717,-1.42508884466444,1.63876869060375,0.000774854486167767,-0.00595800860300135,0.00600818325188009,-0.0344283592180721,-0.10876507075544,0.115879425872634,0.00747383016321896,0.129742116609254,0.131762069149193,15.4691080932127,0.958579435206378,0.75285175236818,0.172911685206427,0.240239315105058,0.153026280615762,0.395534144076405,0.159420630879812,0.0384602041480007,NaN,NaN,NaN,NaN,1.75191981509009,-118.497538474994,2.19240254566578,stable,stable,1,0.463357397990839,0.19619862086577,0.202558315024914,0.900097198065844,0.331988319726328
24,2.68195368558312,3,-0.606963756008947,-2.57862200721573,2.68195368558312,-0.0254553394400954,-0.00943607194347558,0.0271479973429519,-0.0269966087314077,-0.339895682937618,0.342126302097987,0.0220767129545545,0.203388361094925,0.205463156163537,15.4129751278127,1.50272343157587,1.1729817887946,0.0585346891250625,0.240271738410218,0.114413890030363,0.452785292041562,0.00189089494397125,0.0106335131627334,NaN,NaN,NaN,NaN,3,-102.185830974197,1.97519415006421,unstable,unstable,0,0.75628028072154,0.076537553590005,0.0506296619660549,0.949709257277415,0.349149382208727
25,1.66933093320078,2.713534116745,-0.88373362379989,-1.3860994787541,1.66933093320078,0.00408204262486765,-0.00846038845582575,0.00939368111097593,-0.0469678802003429,-0.106547295828772,0.121326019187418,0.00782760315021093,0.164632619676647,0.166751046111519,15.3660424016783,1.11875402641412,1.15366100813607,0.172733586184,0.241629211312207,0.143667830203307,0.48503886769744,0.159421378817407,0.0347703268192037,NaN,NaN,NaN,NaN,1.79680657025774,-122.144595008979,1.95781111376396,stable,stable,1,0.478505124742512,0.236667891167794,0.225498436048729,0.89577851735082,0.336147631020753
26,1.85221647222837,2.65874457359314,-1.02361972707359,-1.52983679222792,1.85221647222837,0.00423386584466205,0.00332996138948829,0.00538648891636088,-0.0567803228553321,-0.122921927200541,0.137679299378082,0.00889473118012625,0.124212842784343,0.12530477367482,15.4191790603644,2.23160142454317,2.39868435125237,0.00951016728466429,0.0517527528988609,0.157065671473297,0.459075732876097,0.000168529514440241,0.00891516558700238,NaN,NaN,NaN,NaN,1.89015622586425,-123.159855511628,2.43513506842978,stable,stable,1,0.518985347329195,0.182456345775073,0.112790587866735,0.958864099547846,0.330193034900757
27,1.6939268650832,2.5388388633728,-0.780950916637901,-1.48250548413023,1.6939268650832,-0.000855135840366619,0.00215955521707565,0.00232270016168213,-0.0354741607222516,-0.117811960283922,0.125335858451078,0.00808409958596309,0.13420276320152,0.136363662946476,15.448527577107,0.939641479553257,0.857953121488855,0.171132775458892,0.240209795840377,0.12779667660473,0.417168888837596,0.159393565659503,0.0372890132485886,NaN,NaN,NaN,NaN,1.77620387229689,-117.832865156267,1.54270080208524,stable,stable,1,0.478986563278148,0.190531027978136,0.198719842705743,0.900309654690937,0.343201477064564
28,1.66866665372142,2.7104663848877,-0.919029618404483,-1.36280664806447,1.66866665372142,-0.00575772036308087,0.00434146397507744,0.00721107850646014,-0.0496094556156763,-0.10441819797182,0.120549118837073,0.00777796656979006,0.182337530222361,0.184389809228813,15.3708511479939,1.12024781435104,1.22099888540777,0.171429138670356,0.240253149424678,0.138781956607413,0.493886707502156,0.156547040987857,0.0411303571887695,NaN,NaN,NaN,NaN,1.77693740749085,-123.63065316624,1.88297203609797,stable,stable,1,0.481855736171475,0.235726970571929,0.225969138527616,0.895889920881003,0.338319130396705
29,2.62698862711589,3,-0.514176904868872,-2.54563200940574,2.62698862711589,0.00567526527615198,0.00605641211459476,0.00829992552114214,-0.0221441005805209,-0.336982892748678,0.338455008133631,0.0218486402455541,0.191110363523371,0.193794747225873,15.4164026104635,1.93102131526771,1.51674709418972,0.0206095594477284,0.0569099414764034,0.112741308486164,0.399283441539157,0.000240402485188747,0.00516604246885498,NaN,NaN,NaN,NaN,3,-100.208461528465,1.99572959887136,stable,stable,1,0.739289250009411,0.0854492119111352,0.0532549335934193,0.962605611344685,0.349892751783927
30,1.83932943962238,2.63557124137878,-0.916171265810856,-1.57905469605616,1.83932943962238,0.00866280637609024,3.342207578856e-05,0.00866287084890337,-0.0465745764934214,-0.131968736746131,0.142238473514869,0.00917520520727927,0.124708846860494,0.127137966769381,15.4012766416248,1.00076583164809,0.962983734338645,0.171637424194895,0.24023004540756,0.174205739344362,0.450284111513292,0.156589456561236,0.0418236105957225,NaN,NaN,NaN,NaN,1.90894849737311,-119.745808657761,1.75210022524265,stable,stable,1,0.515915443919845,0.180742598384156,0.193249458728881,0.898751827026942,0.322575226958061
31,1.85940989300057,2.83566737174988,-0.89851863622395,-1.59872186287148,1.85940989300057,-0.00568359626029686,-0.00682504464111972,0.00888169470333998,-0.0482651508002855,-0.141221676295693,0.153452404451378,0.00989672253479638,0.192149372274642,0.194757770907775,15.4461722005166,0.792877961984833,0.895517104511847,0.170821060719919,0.240279091779392,0.145908942132402,0.465121433114971,0.156588548459321,0.042248255482804,NaN,NaN,NaN,NaN,1.95935225919259,-119.13516242978,1.82867820200769,stable,stable,1,0.53479419231504,0.221286243414207,0.217729658468636,0.901323508403281,0.335151581274488
32,2.63040209333102,3,-0.648928238681257,-2.51729731056215,2.63040209333102,0.00686434401342012,0.0046554002194994,0.00829409247225347,-0.0307196972027355,-0.329327796055081,0.332022076390232,0.0214286442605283,0.19386971711502,0.19656897914787,15.4435681774722,1.68005746428739,1.56259264066923,0.0144987124395506,0.0548458372359848,0.108288147636867,0.440243627773671,0.000167877810056618,0.00439050392333087,NaN,NaN,NaN,NaN,3,-103.01941117063,2.16652431431341,stable,stable,1,0.740754354051179,0.0846801126204339,0.0524792268134967,0.967272678669851,0.351871934383615
33,1.82873220443726,2.85639381408691,-0.774272345053446,-1.62986048849282,1.82873220443726,0.00165020216010436,-0.00440079775291489,0.00470002000328444,-0.0368916915655136,-0.145868150836616,0.15326776584371,0.00988486967148769,0.184987346745411,0.187671851114232,15.4408800770866,1.00010930187547,0.73286239720426,0.172538929037042,0.240263461245809,0.125383931741456,0.396957767795112,0.159424997499389,0.0360277608364114,NaN,NaN,NaN,NaN,1.93692079365451,-115.089103932968,1.58574043768977,stable,stable,1,0.525196291406115,0.232085532505109,0.223207877887751,0.900114329274424,0.344273808114908
34,2.68270428105282,3,-0.58141905998784,-2.58416657554714,2.68270428105282,-0.0274371111469949,-0.00975630490788616,0.0291201056582594,-0.0245971145596732,-0.341856896484,0.343685823889449,0.0221769306201612,0.200034451665199,0.202106288110766,15.4269360563028,1.53413942146153,1.12379434065709,0.0582246890235408,0.240266584555437,0.0995703155349933,0.391206293102708,0.0018502315100507,0.0065755879305172,NaN,NaN,NaN,NaN,3,-101.157933097739,1.88617537571529,unstable,unstable,0,0.755809065902906,0.0767302228004622,0.0492515816796798,0.95000389021444,0.355746526428892
35,1.75523338317871,2.89855861663818,-0.772947037977308,-1.55168030067187,1.75523338317871,-0.00291384647063538,-0.00447234265769276,0.00533782259936134,-0.0367493056607837,-0.131996792629179,0.139707129211474,0.00901180795481025,0.174153899203698,0.176673218117428,15.395562240509,1.08732040679483,0.890734886386352,0.171309661011323,0.240207440619284,0.165843928015209,0.499969446177836,0.156610307804251,0.0431264885535168,NaN,NaN,NaN,NaN,1.86137587595629,-115.841095627455,1.78663741785222,stable,stable,1,0.503396879137808,0.258226778338264,0.240223007723298,0.898803306476487,0.326291587548796
36,1.96423965851466,2.71885633468628,-0.886907859309175,-1.7386038077177,1.96423965851466,0.00364707802063692,0.00373732873581037,0.0052219540564933,-0.0438181663697637,-0.158445202599385,0.165977433243308,0.0107139136575439,0.134732960208284,0.136070671903482,15.439704271497,1.87826080526648,1.51808274345158,0.0196347099552291,0.0490136042014382,0.115652082588669,0.421055928013872,0.000363711524899115,0.00649006588994905,NaN,NaN,NaN,NaN,2.00134863438598,-116.022448666907,1.99129620278655,stable,stable,1,0.551011376651272,0.170746110382305,0.104969339755986,0.963497088568172,0.348599074405036
37,1.79699169971325,2.52965044975281,-0.803715857814359,-1.59418501995816,1.79699169971325,-0.000227481854035782,-0.00372550674598859,0.00373244537914784,-0.0362299911150821,-0.134598374619561,0.140868235100494,0.00908823882578973,0.116119182437489,0.118607715579603,15.366284895271,1.0509779735002,1.11460087887248,0.172546599297558,0.240194779424036,0.137863087014917,0.466819214903697,0.159405671069658,0.0362101744951283,NaN,NaN,NaN,NaN,1.84847057739295,-116.145839673518,2.16517501904754,stable,stable,1,0.50291932970612,0.165532500411745,0.183333801346941,0.896711437939722,0.338727516882259
38,1.87143877849859,2.83282828330994,-0.712440772535799,-1.70260876375393,1.87143877849859,-0.00501730879784931,-0.00900741454011622,0.0103105239571262,-0.0326970217021236,-0.158118878348699,0.163869390053338,0.0105683379556723,0.185418777662989,0.188132002826066,15.4642978794105,0.85706829672826,0.731358234748697,0.171456111512018,0.240297936725013,0.12355075941403,0.427188807302311,0.15660259233982,0.0384901197492642,NaN,NaN,NaN,NaN,1.9993932608471,-112.620106358339,2.35628881676246,stable,stable,1,0.536676741498172,0.218202901308025,0.214519300117397,0.901791450068101,0.345088551371542
39,2.62735776185989,3,-0.615545411185592,-2.52156419783412,2.62735776185989,0.0064987972851713,0.00345548870063997,0.00736035109991367,-0.0287773272931931,-0.330644345414334,0.333016946038645,0.021505626843874,0.194236017727974,0.196863077472423,15.414490111486,2.16931660592813,1.95492639036988,0.00803545908510594,0.0398732772680732,0.130622812553779,0.436859175741734,0.000387150092087458,0.006293204852266,NaN,NaN,NaN,NaN,2.9987372183553,-102.731971335258,2.47235836392207,stable,stable,1,0.740001351990456,0.0851939012831747,0.053576845605596,0.963577504057963,0.341945416642765
40,1.89144492414263,2.93187975883484,-0.264240396775061,-1.85005596105123,1.89144492414263,-0.00376363363222703,0.000214804368851774,0.00376975848490434,-0.00863669082579583,-0.18573292768742,0.186249641857358,0.0120141337794934,0.178781670611304,0.182246508767892,15.4615458003832,1.11178495984559,0.710078430521065,0.170530532808902,0.240305034559854,0.170359709600627,0.388073416124723,0.156610578475723,0.0436503030852082,NaN,NaN,NaN,NaN,1.96262077332345,-97.9255988407311,1.88892219667929,stable,stable,1,0.540834614858279,0.234788960194647,0.226350915147084,0.90042009267124,0.324284573510833
41,1.86503452018455,2.76214861869812,-0.234816126719881,-1.83800915556578,1.86503452018455,0.000778830170914161,0.0101521728712557,0.0101820032627665,-0.00537133881580885,-0.17851214604008,0.178691491577549,0.0115299088573413,0.133530284421868,0.136861297343479,15.3620950979918,1.25431762281595,0.956085923727424,0.171085436867458,0.240226486641504,0.137801958582856,0.462999137090919,0.156551768798786,0.0435886482282235,NaN,NaN,NaN,NaN,1.94919332297993,-97.076725643542,2.11905542367963,stable,stable,1,0.524714798184576,0.203717372763727,0.207659405106343,0.897089825129145,0.338754685074286
42,2.61563068668048,3,-0.635418601761265,-2.50549947220574,2.61563068668048,0.00603635029672658,0.00283667890931057,0.00666965307488467,-0.0299220453652519,-0.326910543685677,0.329494459734695,0.0212995782646376,0.200356402720734,0.202942995093451,15.3328541998092,2.66096473727698,2.43957978183999,0.0132728160646572,0.0759826968002269,0.154055534550272,0.43811546436854,2.79158482396061e-09,0.0119838630630686,NaN,NaN,NaN,NaN,2.97766096785849,-102.83550377438,2.36289037517002,stable,stable,1,0.738090115466817,0.0877058652272884,0.0569812887636478,0.953287885031752,0.931530873533212
43,1.81380816742226,2.61271905899048,-0.217079650184913,-1.79028555496142,1.81380816742226,0.00141281107224514,0.00231242254878946,0.00270985851475837,-0.00455694199739884,-0.169139446919713,0.1692883371765,0.0109199670325069,0.118084694962879,0.121171698008442,15.3831753444761,1.1048356133682,0.772115903854095,0.172663917649841,0.240245586692124,0.133950982299329,0.46247263763965,0.156586691662427,0.0433965377179227,NaN,NaN,NaN,NaN,1.87761184680711,-96.9149867627548,2.05971098327819,stable,stable,1,0.507916517580958,0.180251757997222,0.193525699151788,0.898920564968333,0.340466230089187
44,2.5036712571943,3,-0.588007501381448,-2.40031306049669,2.5036712571943,-0.0154012138270729,0.00353526472975581,0.0158017557270285,-0.0281725175268851,-0.307756311245166,0.310360375807914,0.0200281089705425,0.222729177827253,0.224466166394627,15.4352704361372,1.5847188211899,1.22982820067927,0.0573284230271423,0.240571888390122,0.108815528897492,0.389396226667266,0.00191048131097077,0.00733975779258074,NaN,NaN,NaN,NaN,2.70268226585959,-102.84402520654,2.077369252917,unstable,unstable,0,0.712538901864072,0.114570955681238,0.0722606790472842,0.949221490457457,0.351637542712226
45,1.66674436639856,2.48450326919556,-0.194982930293264,-1.64496807940358,1.66674436639856,0.00406238073536103,-0.014230605359435,0.0147990900441552,-0.00402076759568438,-0.14449832331805,0.144639640341411,0.00933209529669761,0.123794088916813,0.126439611525913,15.3676994457152,1.16917324327614,0.907082843276072,0.171837500139887,0.240194905507994,0.130467002650425,0.46271690917092,0.15661405325945,0.0416729366614702,NaN,NaN,NaN,NaN,1.74484723470437,-96.8322370152764,1.82546476911624,stable,stable,1,0.469753086678133,0.186708919637418,0.196785392825165,0.897767809250004,0.3420146654887
46,1.67923449873924,2.46045756340027,-0.219896897937204,-1.65213052057691,1.67923449873924,0.00285479311365672,0.00431450145715058,0.00517346755528014,-0.004711463973289,-0.143332097604565,0.143509992827292,0.00925820472217855,0.124142046444769,0.125304566502346,15.4609524424231,1.27945516725192,1.00302735731972,0.0285343150925615,0.0483126186259809,0.0948461685994258,0.406071147740942,0.0070568650610969,0.00598490087980897,NaN,NaN,NaN,NaN,1.71876069037497,-96.5690723186371,1.59771313375512,stable,stable,1,0.472856779630934,0.176723658600532,0.111346907224576,0.967799051189228,0.357846147289144
47,1.78885812671096,2.49434876441956,-0.130937610125027,-1.77438166050015,1.78885812671096,-0.00592620897428063,-0.00635249497435737,0.0086875856948913,-0.002564530970957,-0.166395772218825,0.166460804352137,0.0107366176699087,0.126390541247532,0.129633526500619,15.4750528641885,0.983212885109677,0.648880703820175,0.171840543255194,0.240225682808987,0.150290978072307,0.376350313406717,0.159488182477774,0.0356942479816118,NaN,NaN,NaN,NaN,1.8330973949862,-93.5355183886098,2.32549962500533,stable,stable,1,0.502955539089714,0.160328117528497,0.180060233712654,0.901256135887954,0.333204009745641
48,1.65660013931769,2.56951403617859,-0.188677453572023,-1.62345113551812,1.65660013931769,0.00285508584141257,-0.00133062731629472,0.00314993400196008,-0.00550308267272216,-0.14469596309725,0.14499734409389,0.00935392318310719,0.170335336554284,0.172972444504757,15.3807469156963,1.18200176549112,0.800892411998944,0.17205148672159,0.240224485543483,0.137754428554912,0.445925865514317,0.159423923085302,0.0362099389844136,NaN,NaN,NaN,NaN,1.76093856199151,-95.8152911333806,2.0536086599477,stable,stable,1,0.476354526052335,0.205983114694062,0.207612196283025,0.898394373816069,0.33877580953115
49,2.62555017312368,3,-0.679327727824713,-2.50342208223351,2.62555017312368,0.00683631972727118,0.00415167884710684,0.00799823134592839,-0.0329189629403715,-0.325980783301006,0.329042812327179,0.0212334712920306,0.194229316199929,0.19678617810642,15.4271416079101,1.52786340780631,1.24789653321069,0.0309534712064332,0.0522770303667332,0.109448226935787,0.361498800269824,0.00836273163059519,0.00456894406028204,NaN,NaN,NaN,NaN,3,-103.690253195533,1.5373452445846,stable,stable,1,0.739503948454265,0.0857175534605927,0.0568087358936924,0.962713722003078,0.351356343584095
50,1.67904582862501,2.36207818984985,-0.124386228703195,-1.6651612575322,1.67904582862501,-0.00243642593234704,-0.0085268566795388,0.00886811457736134,-0.00208803393989814,-0.146076580933045,0.146125827656439,0.00942755150993882,0.105860566633356,0.108708831382119,15.3856081722865,1.13669813811241,0.837540652072996,0.171853445268908,0.240209512183896,0.135403201265877,0.457700329045761,0.156648476009545,0.0396440144100497,NaN,NaN,NaN,NaN,1.72627812567413,-94.411640590645,2.20010045053058,stable,stable,1,0.469487320576426,0.15530810228144,0.177222411502013,0.898561401156946,0.339820799437388
51,1.54698093467289,2.40377259254456,-0.111013872807717,-1.52221113946982,1.54698093467289,0.00311034460729295,0.00592526529072566,0.0066920110834931,-0.00293770627527197,-0.127565251214856,0.127722698483975,0.00823798354323878,0.155213720144483,0.157539242690281,15.3970903717798,0.953758550363143,0.717772370493468,0.172153723152718,0.240200704581762,0.136769171893546,0.417571276026946,0.159441408409123,0.0362148431948703,NaN,NaN,NaN,NaN,1.64198518080473,-93.7945426045898,1.76751276552628,stable,stable,1,0.444036097784159,0.194004991719766,0.200434877102736,0.900789681188339,0.339213701380646
52,2.62305986801783,3,-0.642863460778084,-2.51054212029474,2.62305986801783,0.00741312341492725,0.00221108031850866,0.00773584351831389,-0.0303845465151411,-0.327726262947454,0.330372557409882,0.0213193027210827,0.192955512809896,0.195568043135232,15.4520875450262,1.55202617892455,1.43413799712896,0.0127403437106889,0.0504082111015419,0.104386752919453,0.364809782074806,0.000224904974055238,0.00631736793221621,NaN,NaN,NaN,NaN,3,-102.899260755177,2.24879083097877,stable,stable,1,0.738596240098468,0.0862297676743453,0.054135043073478,0.970167109618521,0.353605887591354
53,1.66398203549562,2.5165798664093,-0.103176036405492,-1.64571122916689,1.66398203549562,0.00824617995467715,0.000479514866303336,0.00826011006899576,-0.00235945383591494,-0.144054621120825,0.14413813832547,0.00929755586437458,0.130039291935446,0.132690158263211,15.3968511702836,1.09468919976843,0.699254696630333,0.172377995260465,0.240204771361687,0.115582193381182,0.478762652363191,0.159395095119443,0.0374556500659777,NaN,NaN,NaN,NaN,1.76767167051157,-93.7767495596924,1.68848300825678,stable,stable,1,0.470266574451473,0.193348865468228,0.200471820166096,0.899715728898063,0.34863013627503
54,2.67431984261307,3,-0.572490849405442,-2.57747149797251,2.67431984261307,-0.0230912142075382,-0.00772178623444419,0.0243481037501664,-0.0244359296340784,-0.339820444937792,0.341715893732687,0.0220482461467467,0.202450194187181,0.204559512164496,15.4458899744431,1.45087060105781,1.03257187316199,0.057368186140608,0.240302040774121,0.102610931646201,0.398725396378216,0.00184210572443139,0.00627939808588212,NaN,NaN,NaN,NaN,3,-101.106544404973,1.70239605940066,unstable,unstable,0,0.754063860463051,0.0777418544329234,0.0497472438008322,0.951803144632255,0.354395141490577
55,1.6306188471996,2.3145477771759,-0.129675032177625,-1.61606741477785,1.6306188471996,-0.0181727145315385,0.00256322700535927,0.0183525934441373,-0.00225368505640145,-0.137797742541111,0.137853065403629,0.00889448245503126,0.114597917360132,0.117086105446618,15.3679942211453,1.17584726111996,0.877718106510076,0.169848717855043,0.240216694665496,0.130260113038075,0.476757368517996,0.15657773238981,0.0401498553634437,NaN,NaN,NaN,NaN,1.6954412846166,-94.4207914550518,2.45859397351538,stable,stable,1,0.458248913675884,0.157248651376093,0.178539241514905,0.898940484612528,0.342106616427522
56,1.67837925533454,2.3879132270813,-0.0900804850551254,-1.66471715873599,1.67837925533454,0.00229630665931198,0.00461808282012679,0.00515749097984191,-0.00161424239883628,-0.146050645250026,0.146093127331829,0.00942544136144466,0.12209760712109,0.123300830820033,15.4603222267188,1.41167218906626,1.21852854466887,0.012139631848136,0.0445475005617725,0.0903064310776669,0.372358088347479,0.000474791881428242,0.0078205551780434,NaN,NaN,NaN,NaN,1.73280982852964,-92.1431804697514,2.29961484602055,stable,stable,1,0.47222796758655,0.160590683655993,0.0994092670541249,0.973264321168013,0.359863808409926
57,1.59007913315738,2.46157956123352,-0.168066752499436,-1.55804536552758,1.59007913315738,-0.00311155552371687,0.0062124730404742,0.00694813637285508,-0.00505016611387409,-0.131662264617187,0.131969999080801,0.0085110285079614,0.163106119323401,0.165570345083765,15.4751557152541,0.868639845116035,0.526739951518702,0.171708498283442,0.240197336138686,0.153536544800513,0.310934859727024,0.159445310567229,0.0347084378503034,NaN,NaN,NaN,NaN,1.65239533729994,-95.8334835366937,1.5,stable,stable,1,0.457135171192053,0.197361421318822,0.201902685393,0.903182052456149,0.331761535644217
58,1.62733048686275,2.41787385940552,-0.075157464316554,-1.60958105656623,1.62733048686275,0.00317937641313609,-0.00310847005854902,0.00444646156862981,-0.00159443674611313,-0.13841942022202,0.138490716197366,0.00893233820228445,0.138501459738775,0.141024774393451,15.4506242406247,0.942532720652369,0.659353979796489,0.171862759483701,0.240204561320651,0.11597985497331,0.39760139684388,0.159441189782605,0.0336660294979177,NaN,NaN,NaN,NaN,1.68060545220575,-92.4282145747537,2.02988507421572,stable,stable,1,0.462159751375423,0.178687443443039,0.190317409625012,0.901482367611766,0.34845339778964
59,2.53335673133532,3,-0.512022141761861,-2.44665447206689,2.53335673133532,0.00681359337663738,0.00626491794052167,0.00925603865072024,-0.0230843816000952,-0.313766380271632,0.31552896806912,0.0203549072508116,0.213727627022045,0.216217055199658,15.4623051127713,1.30280174350791,1.0526990561427,0.0128362203431295,0.0509282637969162,0.0857347830489437,0.406108116887964,0.0001470188406707,0.00355148671241095,NaN,NaN,NaN,NaN,2.78982386220964,-100.41262924442,2.22770753746566,stable,stable,1,0.718805206062684,0.106691675868851,0.0653717969418795,0.975074383545466,0.361895651978247
60,1.61586518375962,2.35170149803162,-0.0557026101612779,-1.59935927535387,1.61586518375962,1.70036211937986e-05,0.000902864677338578,0.00090302477746704,-0.0013043519771484,-0.137000262458,0.137058411468515,0.00883932596463231,0.134990616602291,0.137512213475664,15.4625766652983,0.88359224418171,0.557888632692613,0.170673996536092,0.240174154685231,0.115535711257924,0.340989629196056,0.159468735031755,0.034264559314904,NaN,NaN,NaN,NaN,1.72864210057146,-91.9462754292346,1.91595324216643,stable,stable,1,0.458399825031031,0.165728725253735,0.182772068250562,0.903337080556513,0.348650794996478
61,1.54919854932361,2.27830815315247,-0.165001639912429,-1.52483488459096,1.54919854932361,-0.00308141645481095,-0.00942504926824642,0.00991598109502293,-0.00368330652570865,-0.123877644050583,0.12402658784598,0.00800050277805913,0.125492286689741,0.127820767969148,15.4019395626661,0.830171490829973,0.84112382097915,0.171640018223187,0.240176575024721,0.144103950126722,0.444302728167446,0.159438596394779,0.0358362906597434,NaN,NaN,NaN,NaN,1.6541677253945,-95.777639022521,1.93591857785763,stable,stable,1,0.438683766746793,0.165867590728913,0.183413531256752,0.901048384867049,0.335953799943679
62,2.61231397112211,3,-0.531536548723474,-2.52590183478719,2.61231397112211,0.00560281236650829,0.00557970847045245,0.007907253191187,-0.0235360525387525,-0.332071152866026,0.333725106203515,0.0215249322601808,0.197549348180862,0.200227740019168,15.4625731790034,1.09675887528875,0.819286450349696,0.0273952108560198,0.0506588396920985,0.0827851334095696,0.420733593300508,0.000767115717670738,0.00457533192789499,NaN,NaN,NaN,NaN,2.96888331606625,-100.576107342626,1.70507745414424,stable,stable,1,0.736662606969729,0.0886790195825772,0.0552121091332002,0.971247752727688,0.363206607373525
63,1.50529645821627,2.39768552780151,-0.0681283401491806,-1.48387626125894,1.50529645821627,-0.00106246166320086,-0.0029760449102041,0.00316001077424164,-0.00176727125672735,-0.120209074647607,0.120326869819962,0.00775994853156894,0.151275302145709,0.153534469606348,15.4695261432724,0.829744842698368,0.533037756026737,0.171249727937675,0.240224081371673,0.135798004155544,0.377496633702785,0.156579244576325,0.0412618010239391,NaN,NaN,NaN,NaN,1.60300708299886,-92.1234906695166,2.37111431763367,stable,stable,1,0.432119282778943,0.20136687596529,0.205415192227862,0.903667558469751,0.339645331486425
64,2.59017546683828,3,-0.593714444944534,-2.48922307311978,2.59017546683828,-0.0138746276095469,0.0168810544022366,0.0218512079536779,-0.0283381897253361,-0.334169282288454,0.336547099409518,0.0217197180887769,0.201284021122489,0.203272590778933,15.4410343058084,1.63392669055295,1.22436345450048,0.0575394064278206,0.240357045024554,0.115209519777976,0.393600571109063,0.0019275077830945,0.00723832534572142,NaN,NaN,NaN,NaN,3,-102.201792877698,2.28482316613308,unstable,unstable,0,0.731367975979329,0.0962165747528937,0.0612187332850911,0.948772302789241,0.348795768987566
65,1.49690367292475,2.110027551651,-0.111786232274298,-1.48347893689978,1.49690367292475,-0.00568509981621017,-0.000478748382633158,0.00570522216343472,-0.00177503065399897,-0.11653257055901,0.116574963219619,0.00751855616933493,0.10136391726008,0.10348338106215,15.4372107120265,0.86689024800933,0.675589709235643,0.171002145617245,0.240165639777064,0.131645157692887,0.46063530005206,0.159503726755421,0.0358256867758382,NaN,NaN,NaN,NaN,1.55228808798252,-94.2268777224065,1.58834152522811,stable,stable,1,0.419870988992363,0.138998830110037,0.167317365754595,0.902379441813024,0.341491041025384
66,1.5783137412866,2.32203412055969,-0.133304258805818,-1.55663707188742,1.5783137412866,0.00287290873683335,0.00513406925521604,0.00588321950359903,-0.00293375487539071,-0.128023683198689,0.128135939920321,0.00826883649950298,0.129364922025039,0.130352102835496,15.4456468041053,1.49588856068326,1.5669472178647,0.0161577605971189,0.0491483221256535,0.112561741897948,0.396226862976675,0.00041262575247556,0.00442521398771491,NaN,NaN,NaN,NaN,1.60696450398557,-93.5145725727472,2.13524452728679,stable,stable,1,0.446954084910191,0.168415675578773,0.102841963293392,0.967855981441421,0.349972559156467
67,1.60889782099163,2.19889760017395,-0.0848353917898393,-1.59801190252028,1.60889782099163,-0.000553201428659487,-0.0133207528803183,0.0133322349633953,-0.00136646985951062,-0.134952168316592,0.134983241186514,0.0087066412311736,0.116185005308759,0.118694987071987,15.4586904341772,0.926353113602804,0.743156186596483,0.171068907720917,0.240201353415168,0.145777333445472,0.350003409278856,0.156671946856849,0.0404955272459761,NaN,NaN,NaN,NaN,1.70472744872138,-93.0615211949791,2.37247526907501,stable,stable,1,0.452778416345498,0.135194193392645,0.165474138687673,0.901347973066547,0.335210074024235
68,1.56734471232803,2.36334276199341,-0.123985348311509,-1.54097512069016,1.56734471232803,0.00395924879137159,-0.00262025442647052,0.00474777676933275,-0.00356747108509523,-0.130268309909649,0.130461724548255,0.0084146441195707,0.166364250970331,0.16879307927664,15.4465893390311,0.854721726567422,0.758274097723648,0.171622902287351,0.240229796096009,0.142111254326719,0.400535281600724,0.159447745347066,0.0339461224635179,NaN,NaN,NaN,NaN,1.6346567991892,-94.1375227104005,1.78857712890333,stable,stable,1,0.451717205809469,0.179969986915755,0.191191701280337,0.901515010236895,0.336839442521458
69,2.61831754803658,3,-0.383330099575626,-2.5579857919005,2.61831754803658,0.00724573784943505,0.00432594446750969,0.00843886914928258,-0.0158356038521147,-0.340418611399152,0.341257613564129,0.0220355241085925,0.198293297522797,0.200992111587927,15.3699191375846,1.93547686526778,1.68731387872159,0.0192468263623611,0.0663030153001054,0.107401400784184,0.420293962046252,0.000329943881601615,0.00671817223487766,NaN,NaN,NaN,NaN,2.97762147861884,-97.4745863886534,2.03391919756332,stable,stable,1,0.738416435127339,0.0874256777024723,0.0550450200684134,0.96191180240176,0.352266044095918
70,1.66546975815738,2.5409791469574,-0.0539011863284292,-1.6416829810328,1.66546975815738,0.00131437237440684,-0.0260173732427761,0.026050552493038,-0.00129105140341263,-0.14697471299353,0.147105349788659,0.00948869698642821,0.161490337936183,0.164196364212761,15.4408575841204,1.04406311295782,0.726836824072886,0.172351853003484,0.240220531508645,0.125325582203743,0.380109212543321,0.15859653863364,0.0365019080833269,NaN,NaN,NaN,NaN,1.74106956136438,-91.9626622500687,1.86837192134898,stable,stable,1,0.476964541684519,0.201765547103728,0.204820099887287,0.899909859707303,0.344299741242781
71,1.61746947279683,2.28160572052002,-0.15954892182036,-1.59798726733616,1.61746947279683,0.0027779155102869,-0.0103681960462027,0.0107338857751881,-0.00304402580734918,-0.135408624110855,0.135517536807561,0.00874248961741104,0.108320679440233,0.110745166099116,15.3904721589578,1.08715761045026,0.855447910015158,0.171492129037488,0.240199188521436,0.128017245768389,0.455225971669349,0.156619521780796,0.0405786011510107,NaN,NaN,NaN,NaN,1.67774962146967,-95.9395937551425,2.29069069653814,stable,stable,1,0.453474225965644,0.151398534796502,0.175203652188926,0.898990606391885,0.343103446325161
72,2.62851263721784,3,-0.613673608840541,-2.51982650798316,2.62851263721784,0.00588959513288993,0.00573758802053012,0.00822236262413009,-0.0295267072282993,-0.33028500889379,0.33285863200163,0.0214907533733947,0.200968776951051,0.203554933846342,15.4446138555786,1.9111460275593,1.89847442481259,0.011234926821339,0.0463197360315374,0.127583062499671,0.389548559181357,0.0003168915174925,0.00618876035438125,NaN,NaN,NaN,NaN,3,-102.28205700878,2.34426142447833,stable,stable,1,0.741647690027359,0.0850920897737433,0.0534465528493712,0.964449804463551,0.343296416666813
73,1.61755415201187,2.45119524002075,-0.132917764503673,-1.58914151855301,1.61755415201187,0.00230367198940466,-0.00459226532295694,0.00513768483182848,-0.00368793681071669,-0.13814175478521,0.138347867610965,0.00892427558235265,0.163491898918245,0.166062609023175,15.3966519094062,1.0975141812414,0.776148879632865,0.171249523309337,0.240210305595058,0.128516199920937,0.435174312758549,0.156579125220747,0.0415802050666223,NaN,NaN,NaN,NaN,1.730743683828,-94.7490683234343,2.02973868582814,stable,stable,1,0.464560295674467,0.188511153687833,0.197817489102713,0.899653600009891,0.342881688924028
74,2.67868052944174,3,-0.584416617616017,-2.58142672053504,2.67868052944174,-0.0246910342806823,-0.00776030621574679,0.0258818377711473,-0.0243302678692442,-0.341130694307672,0.342953689256465,0.0221254943430919,0.199096424665128,0.201187063248378,15.4370165165413,1.33760515697714,0.977594399616923,0.0567991519289139,0.240368586749295,0.0953075792322712,0.448466565440844,0.0018522053622875,0.00629752812733179,NaN,NaN,NaN,NaN,3,-101.440236798872,1.76820954667292,unstable,unstable,0,0.754552220500806,0.0770418844669856,0.0493383432915509,0.95340957037659,0.357641075896768
75,1.6464062054952,2.24113130569458,-0.157588920961468,-1.62844985116994,1.6464062054952,0.00112256299221319,0.0028021097673465,0.00301860345519998,-0.00299732518583493,-0.139972516335608,0.140059790638351,0.0090339785739813,0.111602449722698,0.11420166420139,15.4203393701893,0.892518698021539,0.77567906044113,0.171750825391701,0.240182165925154,0.113737650875554,0.497474724916397,0.159450148766313,0.0386992139287437,NaN,NaN,NaN,NaN,1.72844746755899,-95.0560971705178,1.79391252248256,stable,stable,1,0.461881987638998,0.134366558178314,0.16555910912065,0.901017319201943,0.349449932944198
76,1.77053034941355,2.49552702903748,-0.235559877732619,-1.74240690582037,1.77053034941355,0.00288202482940152,0.00492717256362066,0.00570816052585971,-0.0052642494435145,-0.158809016984884,0.158990465596528,0.0102580294995635,0.121816821279509,0.123122795034963,15.4442493097812,1.35295372864473,1.12809704503763,0.0307327528960255,0.0566698534945271,0.106599002970989,0.407167705046339,0.00805786069509004,0.00514875853443027,NaN,NaN,NaN,NaN,1.80133462105751,-96.2777836497926,1.54883320880448,stable,stable,1,0.496765985517274,0.16417074901179,0.103955996657816,0.96513965318734,0.352622665346227
77,1.7024469682399,2.39191508293152,-0.131271373221019,-1.68643345997621,1.7024469682399,0.00104911078905539,0.0125050992933433,0.0125490295156274,-0.00241178418619896,-0.149554080347872,0.149617025203684,0.0096503805127734,0.108352778996776,0.1111838381572,15.3941895222274,0.945943214286491,0.65215473488772,0.171259969593274,0.240200490468548,0.152461231003538,0.454403112023781,0.156683748914873,0.0424380423176906,NaN,NaN,NaN,NaN,1.75923009576763,-93.8331549635916,2.32262384619123,stable,stable,1,0.476222625828746,0.157430981216813,0.179527825858283,0.901813531316994,0.332239452887316
78,1.75424603709468,2.47636675834656,-0.16781910682602,-1.72907743626541,1.75424603709468,-0.00268980368611307,-0.000728122097711,0.00278661186012737,-0.00412406576945262,-0.159098373850483,0.159270498155721,0.0102724808253316,0.150257380463545,0.15312762605231,15.4634292332844,0.969446969870183,0.670321970728174,0.171821619355949,0.240236895840937,0.137379317331169,0.408774127103042,0.159409439923477,0.0380217305828,NaN,NaN,NaN,NaN,1.84421771642335,-95.6415120879709,1.7459539220157,stable,stable,1,0.49842446843571,0.162988041122696,0.182467548487898,0.901205291503039,0.338942525630591
79,2.6177053976059,3,-0.405935479506269,-2.55179793356508,2.6177053976059,0.00456545060909882,0.00530018608150862,0.00699537788562837,-0.0172733529512423,-0.338659543621672,0.339656987979648,0.021916828608809,0.199159938875506,0.201898535239623,15.4487237527794,1.51777457974771,1.14961831858392,0.0249747681664068,0.0481888581434947,0.103164080803438,0.390027892093507,0.000239789361510335,0.00699827342014541,NaN,NaN,NaN,NaN,3,-97.5958361626102,1.76728153793745,stable,stable,1,0.73843447974283,0.0872987714843719,0.055030662638418,0.966554528858477,0.354149297420694
80,1.77336888313293,2.49389433860779,-0.210123579771364,-1.75049245966499,1.77336888313293,-0.00271029216060506,0.00107188499248709,0.00291455331619724,-0.00427833755922968,-0.162071186135779,0.162201339316958,0.0104631121028901,0.117234464179822,0.120287345061324,15.4430040450503,1.0191975847572,0.784091356798396,0.171971349381904,0.240212926791313,0.164014964319657,0.371027838716473,0.159477640650028,0.0352776223256605,NaN,NaN,NaN,NaN,1.84269174465958,-96.4089816842801,2.00763243383271,stable,stable,1,0.496955837847714,0.162652562256478,0.181298715054139,0.89984562648254,0.327104460302375
81,1.81781970130073,2.63600397109985,-0.17633786207822,-1.79698791755213,1.81781970130073,0.00531941289288942,0.0103887325736936,0.0116714145677703,-0.00386777941201733,-0.169870518514655,0.169997743133122,0.010965983133319,0.117987798188502,0.121207989861043,15.4162023126195,1.07735549326403,0.609800633727322,0.171693567268196,0.240230775165317,0.13125577926697,0.45391363038096,0.156635522126841,0.0422752784171079,NaN,NaN,NaN,NaN,1.90149022471625,-95.3637271300002,1.52967883099656,stable,stable,1,0.508993518319069,0.186231220042228,0.196727348152578,0.900896989653827,0.341664098103569
82,2.5769532028834,3,-0.407696125160544,-2.50972940777088,2.5769532028834,0.00362999765726839,0.00692475445060372,0.00781851054823936,-0.0176848419692635,-0.328863970915212,0.329965068226878,0.0212944647624669,0.210254109379135,0.212886915869096,15.4423374540832,1.6253526466497,1.41612014930214,0.0219076263119889,0.0529131520084847,0.1042823354798,0.390426773740541,0.000298471809562159,0.00506096638156696,NaN,NaN,NaN,NaN,2.91783086718893,-97.7855854258006,1.90463459140301,stable,stable,1,0.729764903942727,0.096618922951745,0.0599443593201091,0.965148900590098,0.353652295342311
83,1.67935568315011,2.62254238128662,-0.281726077859745,-1.63923920411421,1.67935568315011,0.00619885043344412,-0.00725557728371077,0.0095430156877221,-0.00721775980963105,-0.143505386171672,0.143925999783496,0.00928302209317214,0.134392985291461,0.137119595118796,15.4644312228508,0.963601517541691,0.669355564941213,0.17198362008512,0.24020625228812,0.155270038557966,0.378210048591082,0.159402386086307,0.0381167240554628,NaN,NaN,NaN,NaN,1.75027764965131,-99.5200046041142,1.78831871485561,stable,stable,1,0.475252101197123,0.213966559956796,0.213086067830585,0.901177812880789,0.330991093974237
84,2.66174103102638,3,-0.45031077336084,-2.59028425100434,2.66174103102638,-0.0289685143544339,-0.0126297727558776,0.031601993351182,-0.0174288221286995,-0.34358762525477,0.344591073910609,0.0222358530956585,0.201107083881496,0.203203230393511,15.4052789276279,1.65455028740003,0.974149670864454,0.058590702666803,0.240256504704018,0.116358266558304,0.450079935145996,0.00188984185000626,0.00795221792580664,NaN,NaN,NaN,NaN,2.95681470906161,-98.270421652992,1.92750826264725,unstable,unstable,0,0.750438254352403,0.0819019668001152,0.0528728254005672,0.950050577565949,0.348285214862976
85,2.01994280020396,2.87787675857544,-0.397405278180622,-1.96276326345011,2.01994280020396,-0.00613256570648504,-0.00810391945488796,0.0101627689472736,-0.0122209622495591,-0.20520054222244,0.205957243189088,0.0132843733069578,0.16009211449657,0.163853224710137,15.461647361198,1.02423417989394,0.779497299612055,0.17148919806175,0.240306673386657,0.169166254021014,0.403900742699536,0.159501921159192,0.035280397236284,NaN,NaN,NaN,NaN,2.10680641889481,-101.731697741666,1.51399959104473,stable,stable,1,0.57142205832975,0.194898314940583,0.200657967060417,0.900083225058721,0.324814998212883
86,1.95821904857953,2.69048762321472,-0.545315591358215,-1.86704427824065,1.95821904857953,0.00267817918131963,0.00110888262349524,0.00289866596901809,-0.0185341151282932,-0.182668265748009,0.184156956150759,0.0118847126334473,0.13859461609731,0.140061744611561,15.4497463713961,1.65858893177529,1.46149581443212,0.0195074178515215,0.0463631623955063,0.103326973965733,0.40967297903359,0.000310246777034565,0.00565274929390583,NaN,NaN,NaN,NaN,2.01104491577433,-105.279667622794,1.95602244438798,stable,stable,1,0.550204095210188,0.165291851387237,0.101368543486586,0.965731339496895,0.354076900459674
87,1.97835932131167,3,-1.10372035801746,-1.61794314230119,1.97835932131167,0.0050974117319302,0.00292451146921109,0.0058767655813693,-0.0677644838784696,-0.141223053197205,0.161099192276743,0.010391425149746,0.163047315962178,0.165769619299881,15.4431342328852,0.988319281736363,1.02323249289149,0.170590053304418,0.240306951640379,0.164556726360056,0.395046052349918,0.156611273086075,0.0421294331345953,NaN,NaN,NaN,NaN,2.06469467336038,-124.238920485483,1.87115246443974,stable,stable,1,0.560716409543088,0.230946559728126,0.223492739964479,0.898899923690001,0.326863677173309
88,1.91332221914221,2.92799282073975,-1.05642124161414,-1.56642324973225,1.91332221914221,-0.0139941355441503,-0.00654848523277605,0.0154505174176122,-0.0649407466099975,-0.135410146971012,0.155513748386797,0.010031553483269,0.19086983740212,0.19361809766392,15.4589538889177,0.975330632436795,0.987984528225619,0.173191214275506,0.240322799216059,0.161950805823847,0.409918151795513,0.159445340330602,0.0358210069458522,NaN,NaN,NaN,NaN,2.00959748573364,-123.70580417537,2.25438080842554,stable,stable,1,0.548942877970706,0.231133480219342,0.222570504541677,0.897978345171328,0.32802186407829
89,2.61219250599543,3,-0.230812136721035,-2.56977204801929,2.61219250599543,0.00476816753576597,0.00731601917095545,0.00873267187972388,-0.00863540562603876,-0.344616144146907,0.345013378769281,0.0222714616422384,0.197477097350968,0.200220139663554,15.4397428127659,1.82427595013744,1.72362633044531,0.0162638409244742,0.0536612624715771,0.126500641681212,0.455508088011393,0.000181763142254718,0.00501380957718101,NaN,NaN,NaN,NaN,3,-94.0907171926139,2.13861884970449,stable,stable,1,0.73662869619816,0.0888576759956437,0.0552185926987774,0.963991704476041,0.343777492586128
90,1.91387185873809,2.6376314163208,-1.01036672700497,-1.61165545301061,1.91387185873809,-0.000974044803341246,0.00487922207256572,0.00497549709198273,-0.0555653846073314,-0.137485550365744,0.150546230096384,0.00971358331801751,0.127486138547415,0.130147111112015,15.4006339231823,1.11199239255277,1.19648039041254,0.172348271592663,0.240286534283145,0.157537983305193,0.422854397280683,0.156597098530479,0.0417948906765231,NaN,NaN,NaN,NaN,1.99637079272466,-122.311062912018,2.02807905368038,stable,stable,1,0.536395251219226,0.163758074922974,0.183051697475966,0.895687863766084,0.329983118531025
91,1.85662889833804,2.69258594512939,-1.09413972242511,-1.47942464805009,1.85662889833804,0.010403431671378,0.00776732488474105,0.0129831708918179,-0.0656294959648483,-0.117378626165856,0.138443456493617,0.00892988078430807,0.140712802653926,0.143326726663377,15.4304230875974,0.866200505733347,1.00965905533566,0.172414078788093,0.240289465342107,0.140991779425868,0.490858930917627,0.156678940023988,0.0414014398318686,NaN,NaN,NaN,NaN,1.94546366280019,-126.251978914843,1.98113558040263,stable,stable,1,0.523766384889485,0.190470583524889,0.19897250359981,0.899054064054697,0.337336986921836
92,2.61533635934194,3,-0.47576256628541,-2.53924646212338,2.61533635934194,0.00650299491027854,0.00440146169334572,0.00785250328501035,-0.020648517708678,-0.335942848298205,0.337266115707803,0.02176256486395,0.198245514228063,0.200880743243606,15.4450863837505,1.42536731289989,1.22343671882863,0.0329875572402126,0.05029242309485,0.103479209136005,0.411708055508544,0.0106877961126877,0.00583488921965242,NaN,NaN,NaN,NaN,3,-99.2513675644137,1.51328466484475,stable,stable,1,0.737599177806572,0.0879889447503155,0.0596652763538837,0.962694189702027,0.354009240383998
93,1.67064640080487,2.39008522033691,-0.98845844115572,-1.33358672815944,1.67064640080487,0.00572736308799263,0.00887645909428497,0.0105638162609076,-0.0533921935807308,-0.0955593619532976,0.111751800047953,0.00720983664299934,0.123351484434447,0.125304784589101,15.3921393829514,1.04900084334444,1.17696153885945,0.172288022166644,0.240189610203936,0.128442722549291,0.446405414755015,0.159448679133435,0.0343127346304527,NaN,NaN,NaN,NaN,1.74681180591764,-126.657123786368,1.71730877684001,stable,stable,1,0.47056666379912,0.163810434042542,0.181629698087823,0.896366284485076,0.342914345533648
94,2.67405098408461,3,-0.264153039194394,-2.62408086325855,2.67405098408461,-0.0253870653725443,-0.00849129548023169,0.0267694823850302,-0.00855241476048646,-0.351839228256154,0.352249994559308,0.0227297820083885,0.197621980116409,0.199878454987907,15.4394966000874,1.58519249453398,0.923822900866115,0.0578334845653561,0.240361425708014,0.124676712743522,0.403252361261914,0.00188782452755229,0.00710877228972817,NaN,NaN,NaN,NaN,3,-94.2734617915732,1.64563177020861,unstable,unstable,0,0.753055953420143,0.0782462670182192,0.0503718014396438,0.951369565324893,0.344588127669546
95,1.78184675381464,2.72573447227478,-1.10823544481649,-1.36525375519567,1.78184675381464,-0.00476886231126771,-0.00444044549871475,0.00651610343463682,-0.0701143991284031,-0.103782472337498,0.131381663188387,0.00847564238148028,0.183186397645828,0.185559837056031,15.3923736765594,1.01189371213328,1.07463512235044,0.170985725667335,0.240261217489709,0.117204303207581,0.486242193744626,0.156652594492664,0.0409569353916246,NaN,NaN,NaN,NaN,1.86493072097439,-128.583435678336,2.37912035830913,stable,stable,1,0.512271101761777,0.213569355616548,0.212658419751501,0.898112982038246,0.347909198574408
96,1.73147325555484,2.50947499275208,-1.06806308210518,-1.34904023173936,1.73147325555484,0.00353141945183662,0.000915205802076816,0.00364808511481916,-0.061372927454451,-0.0960064620277758,0.116464966216029,0.0075173623651162,0.1219792681867,0.122900065248158,15.4346560151513,1.73102338386831,1.63655395795621,0.0202870915436814,0.0509153521437519,0.114855255947686,0.409706189910194,0.00021647996497029,0.0036861704687919,NaN,NaN,NaN,NaN,1.76269102467469,-127.19753908103,2.01951118334034,stable,stable,1,0.486306214530921,0.175719206473763,0.106868162827037,0.963396917970967,0.348953219578806
97,1.7158996630598,2.70743131637573,-1.03597037500695,-1.34358466825352,1.7158996630598,-0.00590026612627579,-0.00789473901489443,0.00985596491847317,-0.0612026713228907,-0.100088717725038,0.122011070268915,0.00786864454205403,0.17543689944334,0.177588415698408,15.4689529386772,0.698681765853345,0.854647439699966,0.172704132320424,0.240247984352191,0.131675937927661,0.403742721459265,0.159472955061969,0.0358805277687656,NaN,NaN,NaN,NaN,1.81622668042125,-127.513201967813,1.89911174115373,stable,stable,1,0.493090926622295,0.224901548897805,0.218865262898301,0.901443204367583,0.34147736092104
98,1.8228712744183,2.68253707885742,-1.14215442545516,-1.40131048177685,1.8228712744183,-0.00316426188995963,-0.0115378962674258,0.011963929270358,-0.0714179416310769,-0.106347566668599,0.132054722721504,0.00851686878860614,0.146343435315965,0.148663366720192,15.4581473743582,0.852853309162706,0.910032298248585,0.171262784023827,0.240254709600124,0.160412105232635,0.437400528012334,0.156650879519082,0.0415421217477647,NaN,NaN,NaN,NaN,1.91962505408224,-128.853168090004,2.23347923209791,stable,stable,1,0.515831679855585,0.195618193031701,0.202099755028709,0.900517363929855,0.328705731007718
99,2.62341065565745,3,-0.164052773350815,-2.58257741251943,2.62341065565745,0.00546987528391926,0.0065206525263014,0.0085110777807744,-0.00641964864525592,-0.346925862401294,0.347265250374571,0.022417610558764,0.20322563718113,0.20610521108895,15.4200885875512,1.78147700158408,1.62738312153692,0.0213630285774932,0.0556971864216893,0.113696892341811,0.439589074674757,0.000182726407464797,0.00263708036758786,NaN,NaN,NaN,NaN,3,-92.2002194325483,1.98198433508192,stable,stable,1,0.740797217059777,0.0862929667368823,0.0528159300942669,0.962534584743874,0.349468047848084
100,1.60785554647446,2.28430843353271,-0.993605513035975,-1.2424372141287,1.60785554647446,-0.00159666954743715,-0.00876659833918383,0.00891081366005899,-0.0545560727995128,-0.0839357678492516,0.103964492720674,0.00670688212896106,0.129022119052721,0.130787039145394,15.371049609988,1.0113719113796,1.09459573833005,0.170814614264289,0.240222843093657,0.125273745216982,0.424354051945795,0.15663738432634,0.0414291688350968,NaN,NaN,NaN,NaN,1.68546986904653,-128.540481584722,2.18987228436238,stable,stable,1,0.454918886888934,0.153835548759119,0.176983096815294,0.898045804191566,0.344322779903564
