scenario_id,mean_wind_speed,max_wind_speed,wind_velocity_x,wind_velocity_y,wind_velocity,wind_acceleration_x,wind_acceleration_y,wind_acceleration,wind_body_force_x,wind_body_force_y,wind_body_force,mean_wind_body_risk,mean_wind_gust_risk,mean_wind_risk_raw,min_thrust_margin_n,mean_abs_roll_deg,mean_abs_pitch_deg,mean_abs_vz,max_abs_vz,mean_tag_error,max_tag_error,stability_std_z,stability_std_vz,mean_imu_ang_vel,max_imu_ang_vel,mean_imu_lin_acc,max_imu_lin_acc,wind_speed_cmd,wind_dir_cmd,hover_height_cmd,gt_safe_to_land,label,success,onto_wind_condition,onto_gust,onto_temporal_pattern,onto_drone_state,onto_tag_observation
1,2.03229288232738,2.74475598335266,-1.25280440434715,-1.58265373650029,2.03229288232738,-0.0562527924935366,0.0177120113822339,0.0589753508724218,-0.0847641305894418,-0.131968254038075,0.160538453920997,0.0103560814308307,0.124520826062775,0.127302522566536,15.4165325188044,1.03506954469206,1.00758193356655,0.178776785169267,0.240284877865081,0.113468339108719,0.431011297610324,0.156712072421001,0.0397197551105402,NaN,NaN,NaN,NaN,2.0716688985117,-127.374480982322,2.31472368639318,stable,stable,1,0.567405273133941,0.171116345390633,0.186763164512193,0.894562202943334,0.349569627062791
2,2.31076057023243,3,-1.35289504235439,-1.83442879444008,2.31076057023243,0.00528539707961586,-0.00263833464019328,0.00590730327330972,-0.104388058915118,-0.184098185144206,0.22108307237833,0.0142654796573588,0.229294521790253,0.230974683928461,15.4202242157471,1.23247347465932,1.25349871694063,0.0305208774063585,0.158928117814126,0.276735504022675,0.619485599190439,0.00694359084863594,0.00684005899533526,NaN,NaN,NaN,NaN,2.42882567996652,-126.095851442396,2.21228503754817,stable,stable,1,0.66239775551434,0.15616187729781,0.0992704609359794,0.965206922648535,0.277006442656589
3,1.63036660229166,2.67246246337891,-1.025407983779,-1.25138629569522,1.63036660229166,-0.0389834911072641,-0.0166995239008151,0.0424097474340986,-0.0657725053492314,-0.0958799270424938,0.119411174906109,0.00770126173789645,0.147274893308271,0.148056110556127,15.4570687937959,0.555024308276311,0.899677243306096,0.160225695550496,0.24861672835534,0.271512718906878,0.496681940488387,0.150862288360695,0.00600022208456729,NaN,NaN,NaN,NaN,1.87319628751653,-127.297520073929,2.46577494169175,stable,stable,1,0.464375649389002,0.242246689107548,0.214579818342458,0.908457354319462,0.279327680485832
4,2.3968119644257,3,-0.686223262272936,-2.26386763540715,2.3968119644257,-0.0246800581228622,-0.00557015099669903,0.0253008270828028,-0.0320971335029133,-0.272810997756549,0.276387830380122,0.0178413344956414,0.235865221176,0.23743649806185,15.372237427814,1.66480515987777,1.52965480616577,0.062872450595376,0.240208088547759,0.128873294161143,0.431960801864864,0.00188357517760733,0.00942462666031949,NaN,NaN,NaN,NaN,2.46779887999601,-105.553838771394,1.97175078868051,unstable,unstable,0,0.686637156792556,0.140355792969399,0.0884777572724093,0.943464446397684,0.342722980372825
5,1.8201063008144,2.66487312316895,-1.06162887540706,-1.45707800309096,1.8201063008144,-0.0607483477996601,0.0190926470480451,0.063678025500872,-0.0625858603566037,-0.113522479930098,0.133569250023789,0.00861935673273165,0.132189042980905,0.134468108889088,15.3892834738874,1.11392945462848,1.16882817169132,0.179204660368878,0.241121206057869,0.205524516585844,0.470547229912104,0.156053799384942,0.0423839734253025,NaN,NaN,NaN,NaN,1.88084050141636,-125.058018224367,2.07457751088358,stable,stable,1,0.512255301994991,0.201746839704933,0.205817701966882,0.892461717037334,0.308655770406291
6,1.87921950290833,2.75716137886047,-1.04545504545203,-1.53076148487794,1.87921950290833,0.0093320620532569,0.00462824414484224,0.0104167185826489,-0.0636876409744249,-0.126757944099973,0.14731017294838,0.00951241381468885,0.191971036476575,0.193122383561818,15.4075371926152,2.00085494192309,2.06602844104182,0.0260426618091933,0.0561446345046322,0.133800691671468,0.433853585247114,0.00851505848139837,0.00837512804575342,NaN,NaN,NaN,NaN,1.9161886291726,-122.783489357006,2.00598876621662,stable,stable,1,0.539749677487918,0.199446653829385,0.126497963841354,0.955024585372108,0.340533025923792
7,1.9139471666233,2.86826658248901,-1.07428181229028,-1.56165276243328,1.9139471666233,-0.055341452560276,0.0140549307320761,0.0570983138924849,-0.0645732026927034,-0.130330507417411,0.149424024219592,0.00963945589170306,0.150164015934509,0.152600059814152,15.3873777868164,1.02431202165272,0.996869039511843,0.176823918471305,0.243223511904924,0.118675311209939,0.41940378667898,0.156099958357923,0.0399371313563169,NaN,NaN,NaN,NaN,1.96867067391655,-123.586570068552,1.91490952036592,stable,stable,1,0.540905923062376,0.225189892783409,0.219014288160712,0.895707332426626,0.347255417240027
8,1.91060913169144,2.64133596420288,-1.11029911157801,-1.53163154235043,1.91060913169144,-0.055651278148735,0.0273918669994494,0.0620272451210224,-0.0686137282546367,-0.125877008418442,0.147770161489593,0.00953248689307473,0.155372604760248,0.157690507102426,15.4396018975154,0.981552065862352,1.00673688996262,0.175811419296872,0.240266673872784,0.171809548384733,0.438584939981385,0.154986639145932,0.0404100733071889,NaN,NaN,NaN,NaN,1.96461919299708,-125.030810267647,1.51551043028508,stable,stable,1,0.541033869871536,0.175785198920595,0.189048642195587,0.896472019984368,0.323640200717896
9,2.61555361947757,3,-0.80844699639921,-2.4502073401489,2.61555361947757,0.00312804804943609,0.00330380338801615,0.00454970344376948,-0.0438514418302308,-0.312586611876195,0.317988394940519,0.0205277645128597,0.197796965886512,0.200313975791561,15.4271313283933,1.6598891798343,1.88659211223256,0.0231533860486788,0.0469912263715558,0.123491671020109,0.465093454532664,0.00142892949648623,0.00535747136921207,NaN,NaN,NaN,NaN,2.98365709536118,-106.900241715489,2.1453847631575,stable,stable,1,0.737543760352332,0.0873345479155705,0.0549839799325446,0.960558096823707,0.345114812879952
10,1.91392671821901,2.67185258865356,-1.14873018959028,-1.51667758840876,1.91392671821901,-0.0536641468092338,0.00278261223858063,0.0537362408773939,-0.07133565561313,-0.122096217140173,0.144148773640856,0.00929707599635582,0.133170077648353,0.135354944587232,15.4489781503667,0.864054810435199,0.902630718271929,0.176253427886584,0.240270585485642,0.156059224350233,0.369230400351969,0.157942369187506,0.0347900335721865,NaN,NaN,NaN,NaN,1.92399487038037,-126.353098118705,1.54056507555475,stable,stable,1,0.537451447109184,0.180384965008629,0.191078508831935,0.897992185474009,0.33064034473323
11,1.83108219101622,2.56320738792419,-1.12812344385771,-1.41623090498198,1.83108219101622,-0.0646081581786071,0.0109082329215769,0.0655225430573577,-0.0710086011480609,-0.108462288469865,0.134720288657737,0.00869101003156391,0.156326519860918,0.158414839492068,15.3739252759075,1.04895629447765,1.08204508464681,0.176939375026186,0.240237438462199,0.145242989690018,0.514806015406328,0.159131100358777,0.0363283799391362,NaN,NaN,NaN,NaN,1.90759543141243,-127.844704273722,1.70396537226336,stable,stable,1,0.519971552169406,0.176740635531476,0.189979634789543,0.894786730222358,0.33544756013777
12,2.62471499411159,3,-0.78013381013057,-2.47309119816721,2.62471499411159,0.00956642613019049,0.00447504699942637,0.0105613708651608,-0.0405891699857979,-0.318326216203825,0.322851736754788,0.0208460302430667,0.195425045439766,0.197931152988699,15.409252315345,2.02244811094615,1.78539702720994,0.030406454121837,0.0566218760053919,0.133884330097849,0.428414787792617,0.0200838678479581,0.00804130955865384,NaN,NaN,NaN,NaN,3,-106.299635778902,1.75554295287609,stable,stable,1,0.739510229027496,0.0863753776501723,0.063675502644868,0.954877989710712,0.340495853289845
13,1.97216944356222,2.7900071144104,-1.05184247529673,-1.65258710141367,1.97216944356222,-0.0538231728989553,0.0111644941305626,0.0549688991167023,-0.0609587305410957,-0.145112586015655,0.159948399105341,0.010316744955603,0.138110920201794,0.140673205448404,15.456364137038,0.939033411554326,0.932311893986085,0.17570132848171,0.240288153218575,0.160414795663414,0.439561652683804,0.156468899738289,0.034700839943603,NaN,NaN,NaN,NaN,2.02726066309477,-121.319262228342,1.75128551094752,stable,stable,1,0.554046492706274,0.194091107445568,0.198614884936578,0.89744590835847,0.328704535260705
14,2.66041718903234,3,-0.721706957527114,-2.52420439764157,2.66041718903234,-0.0246277272395732,-0.00890020312904925,0.0261866104092368,-0.0358025901317797,-0.326816905785058,0.330522595787637,0.0213347770847495,0.21289989755526,0.214936538785401,15.3809336761587,1.74021509602195,1.33681790016727,0.062784595826331,0.240483108223631,0.131567620441276,0.434495026049605,0.00182757285940921,0.00935396916098799,NaN,NaN,NaN,NaN,2.96211416560549,-104.652706865072,1.97680043660003,unstable,unstable,0,0.752431891499039,0.0812070110427492,0.0529379045610997,0.944431014259633,0.3415255020261
15,1.72444554680103,2.36015892028809,-0.916583170862072,-1.44745393381248,1.72444554680103,-0.0458051745222838,0.00202379477438672,0.0458498610500153,-0.0459309731115041,-0.111301457258619,0.122257565725778,0.00788836857906898,0.127345605508942,0.129258782807899,15.384595042916,1.07723281732748,1.19940876804677,0.176438566817613,0.240224056096841,0.169253956048432,0.515561342079976,0.155384040658817,0.0406163253211675,NaN,NaN,NaN,NaN,1.78867162897179,-121.8764556945,1.92638722526385,stable,stable,1,0.485703902375187,0.151441316893758,0.174693936606457,0.893892818420396,0.32477601953403
16,1.76113853008053,2.56629991531372,-0.999171379648257,-1.43576813653947,1.76113853008053,0.00376383852461086,0.00194291210375701,0.00423572755052427,-0.0542171282769575,-0.108275768930222,0.123435046698923,0.0079700159927404,0.120926965954803,0.121897385238284,15.4040338252524,1.88201560124038,1.96700238506579,0.0273746854156563,0.07839747722617,0.129680754776001,0.502976752914176,0.00907511310035279,0.00572682036945166,NaN,NaN,NaN,NaN,1.79698325918466,-123.928221238646,1.93263972648792,stable,stable,1,0.494016418402466,0.181937861728397,0.115278580771541,0.956070373114052,0.342364108988444
17,1.8578307821944,2.64597868919373,-1.0128120798666,-1.53334088091379,1.8578307821944,-0.0640056704744313,0.00405656021342421,0.064134090261316,-0.0573695743273873,-0.126001485029666,0.142438091018463,0.00918702123489395,0.148042706321656,0.150304792196534,15.4449409206069,0.841138001789368,0.975944086707263,0.176271106278588,0.240259393575274,0.150487840314979,0.456478797499925,0.158796549254457,0.0357665613328399,NaN,NaN,NaN,NaN,1.90606506718967,-122.683382350962,1.79625798736282,stable,stable,1,0.525482500357812,0.189091195622757,0.197036983789597,0.897587373308233,0.333116515415565
18,1.82097006004129,2.82168126106262,-1.05121093983575,-1.45442933570124,1.82097006004129,-0.0829627130066794,0.014494004398432,0.0842192846854591,-0.0650902036673364,-0.116518089756513,0.139435124467679,0.00899275227978582,0.182766974104975,0.184927649492285,15.4038592920875,0.865290665169725,0.932843226236549,0.176258478007855,0.240246209795356,0.114136137476773,0.509189738488245,0.158892608953251,0.0366761027995691,NaN,NaN,NaN,NaN,1.87952489310621,-124.36494621675,1.83434447039986,stable,stable,1,0.522577545909467,0.240600222422135,0.228315835420226,0.897742566135023,0.349272827788101
19,2.61325437448495,3,-0.776646255768697,-2.46051222881516,2.61325437448495,0.00619153257757995,0.00275141881778879,0.00677535099977235,-0.0407097292736197,-0.315417848511252,0.320076642291502,0.0206653082074715,0.197537243802161,0.199952839775461,15.3965245348958,1.92691007147183,1.82119003811896,0.0296643304492992,0.0560936955505893,0.133311197049787,0.481516101269201,0.0226277761693022,0.00551386028448052,NaN,NaN,NaN,NaN,3,-106.031594526481,1.56408340909885,stable,stable,1,0.736858401151079,0.0882599134241774,0.0650177775665327,0.955718476771423,0.340750579088983
20,1.86780098161182,2.75532627105713,-1.00714835913101,-1.54594137147997,1.86780098161182,-0.0768861748209861,-0.00965045279272864,0.0774894516544538,-0.0601611590781126,-0.132585340966703,0.15013490552884,0.00968378896928548,0.194551687932626,0.196763234482574,15.4453638897048,1.00151382274874,0.866988793696358,0.175991222387943,0.240293721393064,0.156929425373596,0.376958828447609,0.1587235917657,0.033916703789472,NaN,NaN,NaN,NaN,1.95533603544456,-121.682915799118,1.79239889403239,stable,stable,1,0.537432908659666,0.213899589595178,0.211216919152175,0.897323296819674,0.330253588722846
21,1.9650402701141,2.78583955764771,-1.10208723276587,-1.6107102653987,1.9650402701141,-0.0601638573065529,-0.00343430570497836,0.0602617970332656,-0.0665825388363502,-0.13663813972163,0.154904047193457,0.00999159949431549,0.125738042096431,0.128277203602952,15.4552875630121,0.926612197531865,0.947712785086259,0.17647996253935,0.240233711072977,0.159012105948309,0.444765090666936,0.155642676236466,0.0398085685718295,NaN,NaN,NaN,NaN,2.01006102178809,-122.843348050567,2.44396992880377,stable,stable,1,0.549666179417685,0.195727835817825,0.201087067379487,0.897033179581183,0.329327952911863
22,2.64055437188483,3,-0.742158612424799,-2.49912805403308,2.64055437188483,0.00442329235556756,0.00401929005617208,0.00597663850491781,-0.0380775060844322,-0.324295897098137,0.328337917682325,0.0212061136245358,0.193764661748703,0.196338324654382,15.396457186146,2.10515080598069,1.97417134211265,0.0252165500068252,0.0520611045726673,0.143619012927931,0.436883204894895,0.00471569991057267,0.00791916453710009,NaN,NaN,NaN,NaN,3,-105.373889448931,2.04596181224864,stable,stable,1,0.743415497433499,0.0819709833851473,0.0541581528533187,0.955339908118711,0.336169327587586
23,1.7116399149637,2.34708619117737,-0.845722100208915,-1.46772802515533,1.7116399149637,-0.0512703134465573,0.010243822045309,0.0522836583552088,-0.041263071165726,-0.115010599247397,0.124778461793843,0.0080476275244837,0.140635652515496,0.142613789252824,15.4520471261788,0.77944317136536,0.788343045172788,0.176147290995264,0.240227228071929,0.146021892267331,0.38625960374282,0.158425534856504,0.0340318170015032,NaN,NaN,NaN,NaN,1.75191981509009,-118.497538474994,2.21251486738166,stable,stable,1,0.484960068507551,0.152560749513198,0.174323004715397,0.899608034229568,0.335101381214519
24,2.62745358496904,3,-0.582459702387901,-2.52857759118302,2.62745358496904,-0.0126898134372352,0.00665826471942529,0.0143305217680927,-0.0271410058537436,-0.338201266938152,0.340367963594362,0.0219562884500103,0.191873897460607,0.193624825732921,15.4229721250443,1.09893968042656,1.07022934391122,0.0676887608936097,0.243969486698302,0.228273500653673,0.68242546744623,0.0208839530870024,0.088635818494271,NaN,NaN,NaN,NaN,3,-102.185830974197,2.08589096286081,unstable,unstable,0,0.739379254471663,0.0864502057061154,0.0933830870764153,0.949112148647684,0.29854511082059
25,1.73056316456279,2.37810516357422,-0.936469158556109,-1.44168373118996,1.73056316456279,-0.0318839013926013,0.0215359198861504,0.038475693799538,-0.0478846204117115,-0.110922014491344,0.122825997627061,0.00792038704565808,0.118066113995444,0.119936965554373,15.4814993408088,0.721303340549347,0.632242022533528,0.17580222704122,0.24020350539741,0.121233576418066,0.396808573284492,0.156032121617187,0.0401809761020476,NaN,NaN,NaN,NaN,1.79680657025774,-122.144595008979,1.7886154090808,stable,stable,1,0.485470903660953,0.152750826974153,0.175609369829238,0.901463887198024,0.34611841048086
26,1.8531067574702,2.52106595039368,-1.03009390820316,-1.52681665256413,1.8531067574702,0.00585442368057528,0.00451774067296474,0.00739488048719116,-0.0570993266268645,-0.122148008442684,0.137065131142928,0.00884871768974346,0.120759893689769,0.121804017579017,15.4180290079778,1.62596041395965,1.83615125643641,0.0298922455864265,0.0473757905404585,0.122015519905187,0.443006000641315,0.0219787280348493,0.00544034060433696,NaN,NaN,NaN,NaN,1.89015622586425,-123.159855511628,1.52619906541091,stable,stable,1,0.518522605507856,0.151646546497101,0.102734557143609,0.957851571225103,0.345770880042139
27,1.72514339476018,2.40836119651794,-0.84076511652409,-1.48642942133313,1.72514339476018,-0.053633001149617,0.000301747609351626,0.0536338499823998,-0.0406721021446417,-0.118034101968688,0.12734259162546,0.00821424909978937,0.142092479899829,0.144089630340022,15.4616972655989,1.00150479831642,0.93408463146399,0.176401394745217,0.240205423300106,0.183131142981732,0.397451724563046,0.158914758880945,0.0350307602601898,NaN,NaN,NaN,NaN,1.77620387229689,-117.832865156267,1.55486337782145,stable,stable,1,0.48885616467072,0.16355687789227,0.181501366736659,0.896591099964831,0.318608380897008
28,1.71055165295665,2.6867561340332,-0.968221346239526,-1.37848621931239,1.71055165295665,-0.0724653122625753,-0.00097280517955187,0.0724718416437026,-0.0560763254835855,-0.106500703904279,0.12569162221329,0.00810721194451412,0.187205891679554,0.189059822345386,15.4616448085667,0.856671293382971,0.938354636630865,0.176873216284831,0.240233811878156,0.161278766976824,0.395570298861549,0.157105849336912,0.0346197744085511,NaN,NaN,NaN,NaN,1.77693740749085,-123.63065316624,2.01897459760453,stable,stable,1,0.493959071924185,0.232932512543569,0.222173338329495,0.89745961669319,0.3283205480103
29,2.62082259631077,3,-0.518550800659076,-2.53608842221096,2.62082259631077,0.00762832879560223,0.00389125940506907,0.00856348643785653,-0.0231564530789043,-0.335356266113349,0.33698031899091,0.0217652424562754,0.198710143016933,0.201341662536963,15.3957985902547,2.14165137980809,2.07794040060393,0.0145791585695707,0.0738809637749881,0.145794185709817,0.493284061642114,0.000209368988336224,0.00654752610421849,NaN,NaN,NaN,NaN,3,-100.208461528465,2.48092498386523,stable,stable,1,0.739154358190265,0.0868848883436834,0.0546049044732672,0.959556485297692,0.33520258412897
30,1.85684032375748,2.46417927742004,-0.940202832004704,-1.5859827010674,1.85684032375748,-0.0471126455619978,0.00850476402470341,0.0478741306236084,-0.0484132167028141,-0.132560023401636,0.143190270412874,0.00924006608318249,0.118413856244207,0.120746309887761,15.3685484553413,1.24970118660849,1.15680990004557,0.176239253115302,0.240245519617335,0.173189435344244,0.454013833489722,0.156585132468766,0.0397590173846976,NaN,NaN,NaN,NaN,1.90894849737311,-119.745808657761,1.60433756178529,stable,stable,1,0.519306681646214,0.145428188521738,0.17130812982491,0.89297207204721,0.32302691762478
31,1.89516418608459,2.62612318992615,-0.945711607284831,-1.62592552056782,1.89516418608459,-0.0585303545936946,0.000657930544297502,0.0585340523239656,-0.0499402048254718,-0.140133098239078,0.151080463610087,0.009744706260419,0.134639236464642,0.137048206570151,15.416930844363,0.763938442087242,0.999581683517381,0.176047152987604,0.240251508286915,0.154777617536627,0.513230237567114,0.157981970157924,0.035558740395752,NaN,NaN,NaN,NaN,1.95935225919259,-119.13516242978,2.47755775480326,stable,stable,1,0.532786757603255,0.17519701879041,0.188262871286324,0.898120193947876,0.331209947761499
32,2.63242808353143,3,-0.642504939541534,-2.51966262110943,2.63242808353143,0.00709218767263851,0.00105914602329989,0.00717083790659066,-0.0305824117175196,-0.329787439178049,0.332436756372052,0.0214681785742263,0.197771805949089,0.200423170679858,15.4167256743751,2.10784193626119,1.76842982535021,0.0290603094790183,0.0495433751067181,0.135173984377366,0.424926328673749,0.0131836814589274,0.00657246367225354,NaN,NaN,NaN,NaN,3,-103.01941117063,1.81856261868854,stable,stable,1,0.742065456411021,0.0840183348216357,0.0586604016646373,0.955013424276401,0.33992267361006
33,1.89328391004253,2.65585064888,-0.82154287767278,-1.69149828636856,1.89328391004253,-0.0480056290928759,0.00160123406867516,0.0480323263557519,-0.03790586934771,-0.151558209022957,0.157731577789064,0.0101756012753188,0.144523515677125,0.14700353818059,15.4097631059848,1.11102168070237,0.963421625600835,0.176222416402898,0.240236048176211,0.141769907711458,0.422696751204846,0.159466644874706,0.0365174989236951,NaN,NaN,NaN,NaN,1.93692079365451,-115.089103932968,1.55465078860895,stable,stable,1,0.534276416980793,0.180383442736986,0.192383220548657,0.895589594391883,0.336991152128241
34,2.67540361245862,3,-0.591096167797688,-2.57122109989692,2.67540361245862,-0.0307534933883878,-0.00857847803391702,0.0319275373458087,-0.0254494379876334,-0.339479422311229,0.341472964728115,0.022042210804275,0.206123347217403,0.208228199827223,15.4051188174415,1.73270495480446,1.42624185051913,0.0634476115123951,0.240242255074715,0.131164372558706,0.445797654335026,0.00189370638319852,0.00796261417418606,NaN,NaN,NaN,NaN,3,-101.157933097739,1.58368147298995,unstable,unstable,0,0.755086603287743,0.0788875690435425,0.0510696847708874,0.94345589791626,0.341704723307242
35,1.80428132034788,2.50328755378723,-0.797084699852879,-1.60544324422193,1.80428132034788,-0.0556506805904882,-0.0131880970244969,0.0571919937868237,-0.0355929722620557,-0.136537492584204,0.142388881520349,0.00918637951070932,0.133932254579729,0.136154737068744,15.3448746389707,1.12734289671282,1.03966019892041,0.177059464486889,0.240278368725714,0.165583728280028,0.516671711689604,0.155940770834339,0.0393462941165146,NaN,NaN,NaN,NaN,1.86137587595629,-115.841095627455,1.92811518749575,stable,stable,1,0.508372632839851,0.167761601384771,0.184271713405665,0.894443814862295,0.326407231875543
36,1.96542283184951,3,-0.896777500882747,-1.71654887457641,1.96542283184951,0.00965019781730681,0.00739123787485557,0.0121555220058973,-0.0497658112857442,-0.160011726333262,0.171625201464724,0.0110809563955248,0.20934667642523,0.210627049400704,15.4248710775427,1.75927448604581,1.75197673559866,0.03008716520058,0.0510644436019211,0.121288000629163,0.390619543443181,0.0231632706985932,0.00680307791246755,NaN,NaN,NaN,NaN,2.00134863438598,-116.022448666907,1.63568431824951,stable,stable,1,0.56623816504001,0.235008375201608,0.153773658611742,0.957368014943932,0.346094221942594
37,1.80298529605608,2.48461437225342,-0.817366183352586,-1.58866827733558,1.80298529605608,-0.0500355546756153,0.00380389166077933,0.0501799394525684,-0.0386569119443914,-0.134304137362556,0.141756694441777,0.00914354548191334,0.147749973570224,0.150027724152062,15.4660148450875,0.894593324654368,0.925840126372508,0.174947309536599,0.240254455764435,0.166415497607384,0.408723534703394,0.15850434010063,0.035887370828032,NaN,NaN,NaN,NaN,1.84847057739295,-116.145839673518,2.16535583754632,stable,stable,1,0.5108016237787,0.162566197710706,0.181036045032857,0.898222939545061,0.32603755661894
38,1.96019264250188,2.6594717502594,-0.777435442630429,-1.78652393832588,1.96019264250188,-0.0469100837651939,-1.28859744479538e-05,0.0469100855350515,-0.0342643158989052,-0.167950593084943,0.172550443473942,0.011130631515092,0.125911145578766,0.12873737307679,15.409084365212,1.00657107887351,0.965978293336162,0.177229630009959,0.240283279126472,0.156739816726817,0.489968591355496,0.158887189252792,0.0347668090455903,NaN,NaN,NaN,NaN,1.9993932608471,-112.620106358339,2.19552073965003,stable,stable,1,0.54846551261586,0.165937981593534,0.182821793529495,0.895886582784802,0.330337859232526
39,2.62316900112956,3,-0.632230243632541,-2.51714146200443,2.62316900112956,0.00544340227341038,0.00807376320769618,0.00973736517976592,-0.0287773295511464,-0.329742766618975,0.332033258680436,0.0214502474147818,0.19147464447111,0.19409601409362,15.3872983319478,2.28527615953171,2.23034935177582,0.0171792252385804,0.0582508577812679,0.151708443265892,0.488126293287757,0.000241036831195985,0.00776591299234985,NaN,NaN,NaN,NaN,2.9987372183553,-102.731971335258,2.37834106198575,stable,stable,1,0.738330936453273,0.0865721583621397,0.0548743908586699,0.955930472649008,0.332574025215159
40,1.8979577220775,2.63916921615601,-0.293353671800138,-1.85711832426156,1.8979577220775,-0.0539137332683247,-0.0247377054885248,0.059318165074158,-0.00827415018156371,-0.182725819416207,0.183134281742339,0.0118139190225325,0.145838910289427,0.148936473098641,15.3992760735687,1.13621598414732,0.780596674589099,0.175880534314729,0.24026800830977,0.142210552306221,0.378132989894583,0.156568488315022,0.0413718230801376,NaN,NaN,NaN,NaN,1.96262077332345,-97.9255988407311,2.00395048656776,stable,stable,1,0.535909353840395,0.177647583097926,0.1912188439673,0.896999061952563,0.336795310086124
41,1.89338008052594,2.58146166801453,-0.261125145568243,-1.85844436642123,1.89338008052594,-0.0517247676043217,-0.0166379815708379,0.0543348324233417,-0.0069875103652506,-0.184092720538372,0.184378417457704,0.0118939481268137,0.144513250818848,0.147568677342927,15.4114594244206,1.10151087315949,0.799755925186713,0.176539027287508,0.240275560273035,0.15881000942159,0.467479451982624,0.159222908068096,0.0373484801945774,NaN,NaN,NaN,NaN,1.94919332297993,-97.076725643542,1.82372997732533,stable,stable,1,0.534415090275502,0.164779743129211,0.183214848321982,0.896791961512097,0.329417773590404
42,2.61614724093636,3,-0.629764399242459,-2.5064325038885,2.61614724093636,0.0073904893160438,0.0029205478602183,0.00794663023767831,-0.0297126300262365,-0.327214756224,0.3297745556879,0.0212997237163407,0.195495245985183,0.197977933157928,15.3863100193161,2.18177228821959,2.02837979183511,0.0151101639629844,0.0655783723723377,0.140946973493426,0.458905356487724,0.000224025734869724,0.00635394557854437,NaN,NaN,NaN,NaN,2.97766096785849,-102.83550377438,2.47145188885691,stable,stable,1,0.73723485088128,0.0878237529995609,0.0551043444579372,0.959365151675221,0.337356900669589
43,1.82538319439501,2.51912665367126,-0.258642083469581,-1.7938987506844,1.82538319439501,-0.0379953595910296,-0.0201893402481013,0.0430262339753928,-0.00613410128089603,-0.170354022301063,0.170600364740202,0.0110051446133264,0.124737977790269,0.127622444994586,15.3779853417152,1.04886039279088,0.770733055919743,0.177268133617567,0.240240949107326,0.151473928350471,0.433868555108102,0.158877479264582,0.0370643542060703,NaN,NaN,NaN,NaN,1.87761184680711,-96.9149867627548,1.94331572443541,stable,stable,1,0.512293340837587,0.163980421232645,0.182478412730094,0.897069127522776,0.332678254066457
44,2.47144542907617,3,-0.585622480624359,-2.37007840768124,2.47144542907617,-0.0116723190847282,0.0122566731074126,0.0169253971438688,-0.0278289684951431,-0.302220582919036,0.304700866265854,0.0196733591785593,0.218126850376368,0.219890876345111,15.3779547002216,1.8301248985517,1.5590094673397,0.062834459037224,0.240434578130528,0.14203689348089,0.419256365587252,0.00195346823281785,0.00813589833104021,NaN,NaN,NaN,NaN,2.70268226585959,-102.84402520654,2.3913161775563,unstable,unstable,0,0.703030289689335,0.122027767934237,0.0770433773480312,0.941953857606527,0.336872491786271
45,1.72832944889197,2.47610759735107,-0.248174242286521,-1.6987708968053,1.72832944889197,-0.0470799919967037,-0.00720319553828324,0.0476278455566954,-0.00533975723673708,-0.152464202828203,0.152663975401721,0.00984692493493275,0.121644542386533,0.12418934008276,15.4385096861225,0.929989373974496,0.70214021889599,0.175900889609326,0.240221836845863,0.134023508972525,0.421526757535435,0.1559769908649,0.0384245492731514,NaN,NaN,NaN,NaN,1.74484723470437,-96.8322370152764,1.93393091647674,stable,stable,1,0.48572572105441,0.176981855088693,0.189484783476338,0.899225679822783,0.340433996012211
46,1.67045019402552,2.44313311576843,-0.22783182647457,-1.63947418262375,1.67045019402552,0.00383315489416688,0.003176500944343,0.0049782762771955,-0.00544809465255425,-0.141766636774451,0.141999693347978,0.00916690398406501,0.138451796269244,0.139590642463533,15.4220080428897,1.88666841768083,1.79918115961281,0.0270752182216317,0.059161840322642,0.119703897770178,0.431709803754958,0.0108253753931152,0.00524214462965975,NaN,NaN,NaN,NaN,1.71876069037497,-96.5690723186371,1.91886200902788,stable,stable,1,0.473371513566178,0.174766341376308,0.111577317189066,0.957502144210448,0.346798267657699
47,1.76828626925881,2.41112160682678,-0.131881382267117,-1.7511249691213,1.76828626925881,-0.042326290193074,-0.0280396698581772,0.0507714282570806,-0.00273230954657832,-0.162395946551178,0.162469335507355,0.0104805874838744,0.117153624048756,0.119871734661465,15.4421475396028,1.08635985140528,0.694041086179478,0.176491113431468,0.240198861649953,0.136385794838428,0.378266495301687,0.155157467618681,0.0407678205917568,NaN,NaN,NaN,NaN,1.8330973949862,-93.5355183886098,2.2471743116,stable,stable,1,0.495517352067975,0.153946046133259,0.176151164210513,0.897765578774671,0.339384091182921
48,1.62357221716329,2.43088936805725,-0.208501309254659,-1.59942061901552,1.62357221716329,-0.0366096976022018,-0.0130685001340262,0.0388722993181224,-0.00437258519785299,-0.144311925363579,0.144454811319726,0.00931638893488636,0.126964014630162,0.128360251099093,15.4559603551404,0.716224382246584,0.728408420811654,0.170569392508896,0.242449936690503,0.249567054093267,0.476880732143352,0.142173481122016,0.00479337053952108,NaN,NaN,NaN,NaN,1.76093856199151,-95.8152911333806,2.2571048899807,stable,stable,1,0.458624641463362,0.188772947159464,0.178195025960239,0.903364617435809,0.289081309291882
49,2.61498389315844,3,-0.674993881185649,-2.49252786322279,2.61498389315844,0.0110279361394418,0.00567013843850695,0.0124002356996728,-0.0330794569481463,-0.323357042404864,0.326498953735016,0.021082517584109,0.194819372496335,0.197366843802111,15.3925527885753,2.01312832703502,1.86917747266108,0.0198945417998567,0.0733631738811353,0.126043681032856,0.434185678981305,0.000156337808479005,0.00550228485270386,NaN,NaN,NaN,NaN,3,-103.690253195533,2.26641553359658,stable,stable,1,0.736802406936007,0.0889020005842902,0.0554115146765379,0.959548897816745,0.34398058620762
50,1.6582181725726,2.55005979537964,-0.17474159085966,-1.62675546135802,1.6582181725726,-0.0662615824069672,-0.037852796073053,0.0763114111625741,-0.00484181958185984,-0.143820788495767,0.144059404068795,0.00929108963431187,0.164370136986921,0.166712000272654,15.4563384982886,0.881507514237566,0.656388099745562,0.175871054984894,0.240215015204637,0.130320220862984,0.396838103572206,0.156567900621722,0.0393530332488676,NaN,NaN,NaN,NaN,1.72627812567413,-94.411640590645,1.98191532502031,stable,stable,1,0.475533912740558,0.214654790511388,0.212688801825166,0.899981006969114,0.342079901838674
51,1.57592625070263,2.29895925521851,-0.127608088186583,-1.55487008288975,1.57592625070263,-0.0531083595793045,-0.0334033550326703,0.0627397958607081,-0.00291053532126233,-0.129294758717177,0.1294079906691,0.00834735462534589,0.132680683505528,0.134801381381917,15.4182693740545,0.909411434164441,0.750444178226865,0.176632636669649,0.240189423925265,0.12659819392732,0.436941222311664,0.158370600230393,0.0367965094373081,NaN,NaN,NaN,NaN,1.64198518080473,-93.7945426045898,2.14201343859621,stable,stable,1,0.44720727646375,0.174184721923869,0.188278315476346,0.898641958996387,0.343734136032302
52,2.62489142146796,3,-0.637545792996568,-2.51145797166136,2.62489142146796,0.00515261645296666,0.00592808232757556,0.00785440108435369,-0.0308099909618384,-0.327747297772252,0.330516720844533,0.0213487307991349,0.198664858663766,0.201285991849976,15.3516610445521,2.11951085129879,2.07357142101598,0.0231284794000088,0.061703903968259,0.150580381127257,0.418622352269668,0.000355540606461133,0.0088101665011185,NaN,NaN,NaN,NaN,3,-102.899260755177,2.13212305180153,stable,stable,1,0.740228244094785,0.0858394037018398,0.0548653571779176,0.955490113874665,0.333075386165664
53,1.70702239146104,2.79342484474182,-0.153693351027581,-1.67674241713805,1.70702239146104,-0.0569560896764481,-0.0284729846818244,0.0636765813146639,-0.00434725439975227,-0.154413655913495,0.154638373263934,0.00997579502796885,0.185935794319229,0.188546502112418,15.4435813320917,1.03219430322337,0.763581089644434,0.177721864023329,0.240226430678968,0.168613582726357,0.368914015394124,0.158952581382481,0.0386896669853148,NaN,NaN,NaN,NaN,1.76767167051157,-93.7767495596924,2.19114713215083,stable,stable,1,0.49291527147876,0.256114591895865,0.238383316675908,0.897029404187231,0.325060629899397
54,2.68204282144221,3,-0.585513583507747,-2.58376138590206,2.68204282144221,-0.0291485085507121,-0.00934597004485105,0.0306101732567816,-0.0242374292741261,-0.342222934417411,0.343990263499349,0.022205044090196,0.199240093974547,0.201371840188583,15.3945525487915,1.69136744818501,1.54819309734577,0.0629029349563644,0.240422258772837,0.130973366540156,0.397264963304467,0.00183121588089549,0.00797724029056864,NaN,NaN,NaN,NaN,3,-101.106544404973,1.61650236123305,unstable,unstable,0,0.755485787088972,0.0771522302725797,0.0500060265395061,0.943094842521219,0.341789614871042
55,1.63399541898062,2.6789391040802,-0.16145191935607,-1.60373387307713,1.63399541898062,-0.065788812798603,-0.0325287671657457,0.0733913386086732,-0.00449636960469221,-0.140120709291755,0.140341944525368,0.00905147369403544,0.165948417193091,0.168316963299228,15.4157692903738,0.881437217400207,0.723932512626567,0.176152345253001,0.240205789200268,0.140785701748642,0.48164999808688,0.155126813873753,0.0392805768463452,NaN,NaN,NaN,NaN,1.6954412846166,-94.4207914550518,2.0404529485454,stable,stable,1,0.46939550438801,0.24856740789233,0.232369541471899,0.899310208066146,0.337428577000604
56,1.69704320239383,2.46656274795532,-0.0896534148644702,-1.68275016784899,1.69704320239383,0.00178936896194444,0.00293233641930613,0.00343517658322817,-0.00164808619775963,-0.148424736463358,0.148473873364811,0.00958679317598124,0.116460715957682,0.117686937229716,15.3990312905144,1.83130762884896,1.89960865374507,0.0209487214622768,0.0509013362023903,0.131698079137844,0.407068007927397,6.77106190686568e-05,0.00653952210063739,NaN,NaN,NaN,NaN,1.73280982852964,-92.1431804697514,2.20250680770171,stable,stable,1,0.476082241417631,0.173771680124928,0.106671109720027,0.96021129704848,0.34146752038318
57,1.56814269278501,2.22918486595154,-0.176401224809288,-1.54727012633953,1.56814269278501,-0.0425907800751756,-0.0109855079665058,0.0439847238560632,-0.00332854901147542,-0.12685475538756,0.12695627991798,0.00818871721492237,0.111780213196584,0.113867436287807,15.4491228557508,0.869463488768584,0.716624619095962,0.176193504638334,0.240166217443924,0.136451504960141,0.381929208405109,0.158334349094993,0.035343914663943,NaN,NaN,NaN,NaN,1.65239533729994,-95.8334835366937,1.84815564228128,stable,stable,1,0.440944872000229,0.156798355002748,0.177302167426716,0.899441126833326,0.339354886684382
58,1.60106988090116,2.35823535919189,-0.107308841433737,-1.58050378711566,1.60106988090116,-0.0501989686853551,-0.0289148543631506,0.0579310388299353,-0.00236981377534926,-0.132823145557234,0.132915612049246,0.00857409379090363,0.12574178762427,0.127963702787484,15.4218098731775,0.991731578941422,0.767427152290235,0.17633816824762,0.240184198905952,0.125855304725293,0.383894469700819,0.158893835677761,0.0365105124011011,NaN,NaN,NaN,NaN,1.68060545220575,-92.4282145747537,1.93591857785763,stable,stable,1,0.452544708797805,0.180982923067571,0.192485786328029,0.898008954416512,0.344064309010981
59,2.53160531385288,3,-0.511049633251409,-2.44785937467362,2.53160531385288,0.00536514801116478,0.00865768144687168,0.0101852963244675,-0.0224348215642459,-0.314704208529641,0.316283197871384,0.0204215601575417,0.208440730853774,0.210965465493447,15.4174375669872,1.95430384027346,1.87201975473122,0.0171155946623314,0.0622546584291608,0.131069242134069,0.451294082901095,0.000284806614709238,0.00703687261137976,NaN,NaN,NaN,NaN,2.78982386220964,-100.41262924442,2.35343145617045,stable,stable,1,0.717287843459457,0.107256108709255,0.0670391087109759,0.961378231565226,0.341747003495969
60,1.67515468917437,2.38292121887207,-0.0850183539863561,-1.66308463330206,1.67515468917437,-0.0446700988791376,-0.0232177446750437,0.050343633179057,-0.00135818562406744,-0.146372955289674,0.146407464243064,0.00944242896426023,0.112353402936416,0.114782843849475,15.4608827705916,0.757182745064022,0.675732634236328,0.176725317268074,0.240167938391172,0.146956785986403,0.369652650028648,0.158287283453452,0.0364459114016572,NaN,NaN,NaN,NaN,1.72864210057146,-91.9462754292346,1.93455584499643,stable,stable,1,0.469664485883061,0.16847713526481,0.184689243607487,0.900378720528603,0.334685872894932
61,1.63332114563692,2.36309027671814,-0.205912008345589,-1.603879215052,1.63332114563692,-0.0540971456524491,-0.0136124180188576,0.0557835019702279,-0.00498983379148933,-0.13745413817344,0.137670841988351,0.00888053808625669,0.136087931539998,0.138242830852178,15.419036853706,1.00776506783109,0.738562812463007,0.176355049913341,0.240204452714402,0.151666508116283,0.375486507916094,0.156124896756945,0.0407247412225933,NaN,NaN,NaN,NaN,1.6541677253945,-95.777639022521,1.93708173817444,stable,stable,1,0.463200871673615,0.174425029854482,0.188852857723992,0.898101327412447,0.33259266305943
62,2.60541351742569,3,-0.544809962035997,-2.51446965043114,2.60541351742569,0.00733057800515334,0.0047709883058516,0.00874641088128214,-0.0247707489837784,-0.329627506229768,0.331533870019174,0.0214039431245293,0.202261572002232,0.204901793973315,15.4052710987917,1.94494722032771,1.79420211046267,0.0298125022384264,0.0746287794111537,0.123210379529577,0.458263511496233,0.0246306627355468,0.00634567978750045,NaN,NaN,NaN,NaN,2.96888331606625,-100.576107342626,1.69450040221525,stable,stable,1,0.735757296774847,0.0903854672407881,0.0674857614829988,0.955714718424577,0.345239831320188
63,1.54805493636711,2.12400984764099,-0.0813413266623813,-1.53601220742805,1.54805493636711,-0.0330243195141531,-0.00326471738202203,0.0331852988378491,-0.00128115973615608,-0.124558793825694,0.124593652772149,0.00803585579031476,0.108616905765267,0.1107160052842,15.4359445275865,0.839693608734028,0.681274618495693,0.176606005928163,0.240149629075792,0.129034878777797,0.444684894584327,0.158795442610584,0.0348166565512835,NaN,NaN,NaN,NaN,1.60300708299886,-92.1234906695166,2.05594725828829,stable,stable,1,0.434957850754737,0.135673826490228,0.164640650547793,0.8997465323934,0.342651164987646
64,2.66296755276566,3,-0.621059543304177,-2.55451039498864,2.66296755276566,-0.0285760714326415,-0.00758283396559595,0.0295650338994094,-0.027026231906074,-0.335231085734944,0.337440404814095,0.02178492068166,0.202971416957421,0.204979229855895,15.3804344874583,1.82545941216325,1.48884069074041,0.0638731716979095,0.240405343049338,0.131420732849058,0.445258328555188,0.00189753672716553,0.00930884095631256,NaN,NaN,NaN,NaN,3,-102.201792877698,1.67821281962132,unstable,unstable,0,0.751120526708687,0.0812525568426188,0.052979916837112,0.942022484771088,0.341590785400419
65,1.50066394016549,2.21969485282898,-0.136711211865432,-1.47941083506312,1.50066394016549,-0.0492172511858955,-0.0227475176745835,0.0542198061104153,-0.00299907371750946,-0.116418338568601,0.116537599108632,0.00751685259486869,0.120297670172881,0.122278844870549,15.4534812808216,0.927091160012296,0.681357852565358,0.176147964667801,0.24015303674403,0.150574134828421,0.412209013693743,0.158938098343584,0.0367358442722034,NaN,NaN,NaN,NaN,1.55228808798252,-94.2268777224065,1.92391058145977,stable,stable,1,0.424632819684908,0.171722253136194,0.187030995527343,0.899288203995846,0.33307816229848
66,1.58096924095249,2.39123201370239,-0.12983002983544,-1.5538009156669,1.58096924095249,0.0013341521228012,0.00359097545877553,0.0038308049587917,-0.00334412336677447,-0.12980628155085,0.12997152229674,0.00838984170365229,0.161438134480567,0.16249198914691,15.3854767140341,1.65106463490502,1.56601742734015,0.0295211993599858,0.0686020450908918,0.118424522303055,0.443914427426116,0.0216052693903015,0.00507383281113781,NaN,NaN,NaN,NaN,1.60696450398557,-93.5145725727472,1.53028046109472,stable,stable,1,0.454090195416714,0.183011438111172,0.121254234931089,0.959962326973795,0.34736687897642
67,1.64554860865748,2.46249747276306,-0.118423452718741,-1.63100091411526,1.64554860865748,-0.0401717725068449,-0.0339132787406595,0.0525726333873753,-0.00217694064134255,-0.141295366860825,0.141346139619806,0.00911736798992394,0.114536491109148,0.11691638784086,15.4290088462798,0.96263489043344,0.747397872274111,0.176220728371214,0.240198777288028,0.145573317578679,0.363563892660762,0.158209432674127,0.035787009598206,NaN,NaN,NaN,NaN,1.70472744872138,-93.0615211949791,1.59363953980699,stable,stable,1,0.462196239876832,0.193451810544776,0.1993998477733,0.898453664107405,0.335300747742809
68,1.6125947509036,2.22774004936218,-0.149621588176495,-1.59006499150086,1.6125947509036,-0.0479747258973759,-0.0212155736243561,0.0524564094190484,-0.00341628016682172,-0.134178810083069,0.134305210558137,0.00866311380670689,0.12114517943675,0.123348604002222,15.4094301240725,0.990496510764772,0.742020612219713,0.176185274994799,0.240174512397334,0.153652251328897,0.385272781872445,0.154171294520605,0.0409409262366628,NaN,NaN,NaN,NaN,1.6346567991892,-94.1375227104005,2.08782611434247,stable,stable,1,0.45469498770807,0.148024700546674,0.1722230052111,0.898294727964865,0.33171011052049
69,2.61223527340586,3,-0.395206522262333,-2.54893925073987,2.61223527340586,0.00577256361096526,0.0082383086828816,0.0100594344074149,-0.0167207728037348,-0.339206391252566,0.340150404485841,0.0219564959707176,0.201020322373885,0.203692199583933,15.4071713235253,1.78188376798551,1.46670494565793,0.0298303959581671,0.0551635359499889,0.117187318687596,0.440752197631264,0.0236643812868958,0.00466766548876226,NaN,NaN,NaN,NaN,2.97762147861884,-97.4745863886534,1.52935809020028,stable,stable,1,0.737334512825016,0.0890912931250409,0.065669611574205,0.959560176413718,0.347916747249957
70,1.70017203930262,2.33503389358521,-0.0913558865595465,-1.68698165492129,1.70017203930262,-0.0390338416905833,-0.0280789564782381,0.0480839743992976,-0.00158904778942886,-0.149198485902048,0.149241942068137,0.00962813760656286,0.107467801726414,0.109923324471103,15.4242518932562,1.14645520491652,0.778877046852286,0.176782400645835,0.240195761839782,0.174161577228425,0.371228689837622,0.158418011097702,0.0341800103254278,NaN,NaN,NaN,NaN,1.74106956136438,-91.9626622500687,2.01287221817473,stable,stable,1,0.475363875374919,0.15165931252012,0.173832687108176,0.89648118912747,0.322594854565144
71,1.62031772249454,2.29674601554871,-0.185804898324459,-1.59928448728672,1.62031772249454,-0.0434557901899067,-0.0153497118323193,0.0460870844637024,-0.00353461089773805,-0.136268165775253,0.136371024854336,0.00879695484694556,0.117658848115736,0.119898615236576,15.4077574367633,1.01022035810676,0.784622422393814,0.175803204925937,0.240196876550804,0.160472417224251,0.403155362276126,0.158455412952392,0.0362696273817108,NaN,NaN,NaN,NaN,1.67774962146967,-95.9395937551425,2.37067464578753,stable,stable,1,0.456064449045859,0.160645664755533,0.180000982243692,0.897996061404527,0.328678925678111
72,2.4982838634731,3,-0.596373262293469,-2.39523847912302,2.4982838634731,-0.0226957495158037,0.0220553660636293,0.0316470570240709,-0.0281429375314011,-0.313120841790412,0.315489408722312,0.0203570265413055,0.186866821549366,0.188836428106274,15.431828970128,1.32149995698442,1.13254229907353,0.0282354104384834,0.0948573246215017,0.279234300131937,0.766052294522926,0.0244118140174614,0.00733719384622485,NaN,NaN,NaN,NaN,3,-102.28205700878,1.89307319684823,stable,stable,1,0.703976315880748,0.118688091172965,0.0847306203121873,0.966600534197446,0.275895866608028
73,1.67532821039896,2.25331258773804,-0.175465085248016,-1.65474638586805,1.67532821039896,-0.0411673432081168,-0.0135983341702137,0.0433551016492833,-0.0035182967475335,-0.144106210935055,0.144216412512485,0.00930205463343906,0.114475032608101,0.116874133464433,15.4482674959452,0.961468599219617,0.678180707782428,0.175878687128829,0.240195030496287,0.125259703002467,0.375835764800559,0.158196124922925,0.0359033562097084,NaN,NaN,NaN,NaN,1.730743683828,-94.7490683234343,1.71452579305998,stable,stable,1,0.470129016132609,0.137994920203662,0.16616210687127,0.899177697594855,0.344329020887792
74,2.67744258140415,3,-0.615037737964115,-2.56789547213449,2.67744258140415,-0.0336949162257206,-0.00862228650977694,0.0347806153498613,-0.0266924461305977,-0.339241368333543,0.341460012142545,0.0220388266877787,0.205703616739169,0.207762998620168,15.4001550151453,1.6603074823736,1.42062942189364,0.0638464791549897,0.2403826726259,0.125874843776138,0.408098139301704,0.00184735513404555,0.0087031382629638,NaN,NaN,NaN,NaN,3,-101.440236798872,1.54137964483781,unstable,unstable,0,0.755537288098475,0.0789518653315398,0.051356943475335,0.943869399031834,0.344055624988383
75,1.65095642853428,2.44569087028503,-0.185124265417537,-1.61837381069702,1.65095642853428,-0.0618192685161207,-0.0234315908608876,0.0661109779850537,-0.00524491684088406,-0.142454613838638,0.142717119902274,0.00920571405625966,0.159697534551914,0.1620347145283,15.3759795827763,1.11756706269173,0.644641963767943,0.177100773418861,0.240222778733338,0.123235677173779,0.434143387279218,0.158249642266438,0.035438766365033,NaN,NaN,NaN,NaN,1.72844746755899,-95.0560971705178,1.75152831849476,stable,stable,1,0.4726619905148,0.190935595357847,0.197781355688087,0.897603685225529,0.345228587922765
76,1.75979881960413,2.61767792701721,-0.228324757177079,-1.7285335772639,1.75979881960413,0.00462842883479082,0.00890916095338757,0.0100396963286789,-0.00578045903400577,-0.15832592886343,0.158574416211208,0.0102410331976288,0.148797838908993,0.150057156881963,15.3759837199037,2.10348586281262,2.1507320605941,0.0185092900573398,0.0670946869807703,0.145233854521282,0.452233315261778,0.000108401719408265,0.00819165428875994,NaN,NaN,NaN,NaN,1.80133462105751,-96.2777836497926,2.33155245661542,stable,stable,1,0.49929111660416,0.194863410161535,0.119945008016611,0.957319357001706,0.335451620212764
77,1.70955125117462,2.49128746986389,-0.153688896324322,-1.68443660088658,1.70955125117462,-0.0556527146930004,-0.0325036890516696,0.0644493169449307,-0.00371395276428247,-0.150824162245799,0.150970093483393,0.00973749277679881,0.134920327071623,0.137573832392461,15.397606298044,0.940164184008185,0.723351887509423,0.177093026680426,0.240226959273784,0.104353782776317,0.435215589044403,0.156105891421249,0.040933521952102,NaN,NaN,NaN,NaN,1.75923009576763,-93.8331549635916,1.63563618205466,stable,stable,1,0.483395100125057,0.187706357311657,0.196889127647707,0.89838300324072,0.353620540988304
78,1.79079229159643,2.51315355300903,-0.210470456016276,-1.76473454176491,1.79079229159643,-0.0497573268943256,-0.0142004536286562,0.0517440282827729,-0.00483018072379139,-0.163433763384849,0.16360277466203,0.0105525291720637,0.12086638230195,0.123541129978717,15.4506731970319,1.03786820230882,0.648127450713136,0.175378111413063,0.240208623560518,0.125727342937662,0.390346776223503,0.154817638077738,0.0403561842706328,NaN,NaN,NaN,NaN,1.84421771642335,-95.6415120879709,2.46599473860839,stable,stable,1,0.502252837088125,0.17201768900301,0.186693428645879,0.899063835591153,0.344121180916595
79,2.61728973796704,3,-0.403835749946945,-2.55345280307458,2.61728973796704,0.00483122992384551,0.007708519354948,0.00909736518024138,-0.0170645207041297,-0.339367434138182,0.340358783018563,0.0219754793998107,0.196913837639565,0.19969741923454,15.3798725427782,1.90276151390001,1.69139447109397,0.0295137790426944,0.0724484730548624,0.113959615859807,0.459279028534113,0.0233247821968566,0.00553519228306418,NaN,NaN,NaN,NaN,3,-97.5958361626102,1.5,stable,stable,1,0.737883413971451,0.087777659240461,0.0650459626033877,0.9570033134537,0.349351281840086
80,1.76277348479709,2.54232120513916,-0.212051228359794,-1.73867320374429,1.76277348479709,-0.0440013922286742,-0.00834637219795558,0.0447859849386885,-0.00439138066502106,-0.160103094144929,0.160238793393735,0.010335496408385,0.12374811436417,0.126249481495494,15.4286124383073,1.0663725952341,0.579906063666633,0.175951517931004,0.240237249788516,0.118679351065799,0.374353181426806,0.157207332783798,0.0364742258244921,NaN,NaN,NaN,NaN,1.84269174465958,-96.4089816842801,2.46449857306965,stable,stable,1,0.495322825578323,0.183609000982392,0.193298681116393,0.899089194428849,0.347253621748534
81,1.8634149980225,2.5812828540802,-0.198002622457477,-1.83311851367144,1.8634149980225,-0.0634755029767999,-0.0160609529187904,0.0654759015731539,-0.0053322795110075,-0.177475767854511,0.177704218527213,0.0114622025918917,0.149917661138113,0.152827522027175,15.424641517031,0.97457889586894,0.762503819272837,0.176461528484056,0.240222907545862,0.144185994144971,0.424627306935522,0.155617531402965,0.0414912648225255,NaN,NaN,NaN,NaN,1.90149022471625,-95.3637271300002,1.85895824442524,stable,stable,1,0.527476170544769,0.173524182901394,0.188365589693779,0.898120728710429,0.335917335935568
82,2.60113460244144,3,-0.407641225195554,-2.53514635005613,2.60113460244144,0.00608850371988133,0.00722680355275367,0.00944968608669631,-0.0172773280793747,-0.33458827812642,0.335608434742103,0.0216721693395613,0.19811400953389,0.200870896271945,15.3848685373039,1.94586528009974,2.03584997371262,0.0179799516552641,0.0537095510351724,0.130294556329933,0.391797149014057,0.00014866450507819,0.00552086011647769,NaN,NaN,NaN,NaN,2.91783086718893,-97.7855854258006,2.31579716246387,stable,stable,1,0.733810073238772,0.0914771568999044,0.0569599527502117,0.959725118606699,0.342091308297808
83,1.71681042136373,2.43276762962341,-0.308631911100698,-1.6761580443356,1.71681042136373,-0.0358599927350386,0.00118291734743517,0.0358794979397411,-0.00744258931749213,-0.147868761817893,0.148249254828571,0.00956169406052618,0.119041000983805,0.121580687076828,15.4343052866022,0.923982637907876,0.676654129248174,0.177024057802063,0.24020198440466,0.168661892797941,0.361050772123905,0.159070794827616,0.0359336477856754,NaN,NaN,NaN,NaN,1.75027764965131,-99.5200046041142,2.38354757782659,stable,stable,1,0.482132249779026,0.167668279814048,0.184365879935898,0.898911539357028,0.325039158756471
84,2.56586134736587,3,-0.41146047608126,-2.50271034152285,2.56586134736587,-0.0103916236210154,0.018190187332989,0.0209491946549284,-0.0180680643348275,-0.338581161463472,0.339634678504018,0.021926560313666,0.19886030912113,0.200780649378805,15.4329488385234,1.72790284906738,1.57909360347557,0.0633258061716459,0.240450936510216,0.13995890836885,0.39821513839711,0.00194093631632098,0.00951435069421797,NaN,NaN,NaN,NaN,2.95681470906161,-98.270421652992,2.43446688720619,unstable,unstable,0,0.724385822506661,0.101521882529415,0.0652355317692649,0.942353553358482,0.337796040724956
85,2.05811152587066,2.86456155776978,-0.45374261309667,-1.98797173147152,2.05811152587066,-0.0643866807538246,-0.0083856997253163,0.0649304598657525,-0.0155269129470706,-0.211386027791658,0.212451387533704,0.0137038763401698,0.173885918935481,0.177412477461593,15.4349470935255,1.03407368041413,0.799542166804046,0.17681940785698,0.240303300329089,0.162556629613422,0.41154491389161,0.159062881659542,0.0355306647024791,NaN,NaN,NaN,NaN,2.10680641889481,-101.731697741666,2.14513319637883,stable,stable,1,0.584312235724494,0.193355174819356,0.199627960672513,0.897183314414796,0.327752609060701
86,1.95778867313296,2.73293304443359,-0.534848866958106,-1.86945176307934,1.95778867313296,0.00311382161340702,0.00340885986203974,0.00461694819108318,-0.0179585143577367,-0.183283941131806,0.184664311977894,0.011921336733034,0.140802633784182,0.142264049597852,15.4188467972983,1.75526007448357,1.76888170733289,0.020875699622393,0.050116728783335,0.123264350997638,0.411498977649784,0.000283881554554356,0.00712339071561026,NaN,NaN,NaN,NaN,2.01104491577433,-105.279667622794,2.20361030769238,stable,stable,1,0.550529789421692,0.175253924044342,0.107868847902993,0.961872464760246,0.34521584400105
87,2.01960236114144,2.96131563186646,-1.16292914857316,-1.61419881301182,2.01960236114144,-0.0904630583491875,0.00814961456213503,0.090829406820698,-0.0792704975963627,-0.143225186881258,0.171159264163892,0.0110388313611201,0.198169174377985,0.200732591209943,15.4462052190179,0.910040806118397,0.895856380344625,0.176519181834512,0.24032953546934,0.131355378830073,0.396198417578146,0.155940754818615,0.0408072364863521,NaN,NaN,NaN,NaN,2.06469467336038,-124.238920485483,2.30947594005812,stable,stable,1,0.578707147879705,0.228537543830257,0.221268523525707,0.897551216903392,0.341619831631079
88,1.96165439426499,2.79625582695007,-1.10801467527022,-1.60430463047138,1.96165439426499,-0.0514362735886837,0.00401882782529077,0.0515930345858746,-0.0670920188434239,-0.136548908461476,0.154822064446383,0.00998555662189987,0.13751069114871,0.14003346833853,15.4464596174208,0.928348957819348,0.886719928696666,0.176112539093284,0.240265832821528,0.16418685921442,0.472949890283599,0.155658755301622,0.0422359167487048,NaN,NaN,NaN,NaN,2.00959748573364,-123.70580417537,1.57677726244055,stable,stable,1,0.55111453213837,0.197244045361554,0.202886611421223,0.897682474916446,0.327028062571369
89,2.6283636543663,3,-0.250052635126174,-2.58218282575855,2.6283636543663,0.00700484363336562,0.0052628858799755,0.00876160956180703,-0.00984397125875493,-0.346631500117407,0.347095043084324,0.0224080902947926,0.197071044098544,0.199860570665485,15.3896930133531,1.77084931619948,1.57951238308911,0.02555448508909,0.0525862537788887,0.117408971460161,0.467746506861425,0.00890883658320967,0.00603769835202621,NaN,NaN,NaN,NaN,3,-94.0907171926139,1.98523621562011,stable,stable,1,0.740869088630778,0.0852244728539127,0.0572896933116826,0.960898486961045,0.347818234906595
90,1.94826167096963,2.597003698349,-1.05630475202131,-1.62124679438737,1.94826167096963,-0.0504056808254368,0.00988365407264159,0.0513655456245084,-0.0607072493784647,-0.13833512952602,0.153691807676819,0.00991440457497862,0.114257601974106,0.116631480508217,15.3996769903489,1.0337709125959,1.00971902067399,0.176436397144175,0.240250715603314,0.139044520842201,0.417689204096308,0.158353372005741,0.0351684069475003,NaN,NaN,NaN,NaN,1.99637079272466,-122.311062912018,1.81403644532578,stable,stable,1,0.542862741693544,0.155383972858185,0.17639817177918,0.895725809095077,0.338202435181244
91,1.85271062626935,2.78342747688293,-1.11221731335928,-1.44874163199026,1.85271062626935,-0.084798459269146,0.00734997334197891,0.0851163956153502,-0.0725707263926725,-0.116884139944734,0.144103723135721,0.00929375964906001,0.188558090143379,0.190760201643221,15.4579333817055,0.665162240596325,0.926975898462513,0.175814591971984,0.240262889406724,0.140652875792989,0.430618916292833,0.156286152519828,0.0414682404764455,NaN,NaN,NaN,NaN,1.94546366280019,-126.251978914843,1.81360400424147,stable,stable,1,0.532208207333803,0.225015963917538,0.219549450754811,0.899583047207117,0.337487610758672
92,2.63033756404417,3,-0.47564220631407,-2.5542754610346,2.63033756404417,0.00635624902696438,0.00512802942119481,0.0081669203153591,-0.0205089694382152,-0.338878746732905,0.340171612003915,0.0219627304361977,0.19477490562986,0.197500810379687,15.3979491856858,1.87248274586376,1.76371024146003,0.0294297781661625,0.0484223742079086,0.12683982456124,0.493771999509955,0.0216298355683454,0.00554568097647488,NaN,NaN,NaN,NaN,3,-99.2513675644137,1.66535099052517,stable,stable,1,0.740923512487717,0.0846713168145434,0.0624326616054966,0.956715023159375,0.343626744639449
93,1.68330530032215,2.52524733543396,-1.01776060840607,-1.32913234529361,1.68330530032215,-0.0427588086086911,0.0104666352185461,0.0440212013288232,-0.0561112367689831,-0.094321664684362,0.111817855884446,0.00721280678569248,0.124930118649981,0.126705897240679,15.4313803800946,0.963397685093702,0.960538357304761,0.175741242094666,0.240173964400433,0.169680282757948,0.406377404530673,0.155762028090247,0.041617356395797,NaN,NaN,NaN,NaN,1.74681180591764,-126.657123786368,2.43651415549539,stable,stable,1,0.474222592867377,0.197507511477107,0.2028656590703,0.897012738619536,0.324586540996467
94,2.68149520636757,3,-0.265098104908066,-2.6356850938575,2.68149520636757,-0.0257600123499359,-0.0143954863843005,0.0295094605933323,-0.0093781401901702,-0.354596136564053,0.355017515912865,0.0229171691612198,0.198231234871705,0.200380018260737,15.4100143901053,1.72846614678004,1.44741447015051,0.0631466597750825,0.240241337952693,0.125770745569075,0.476108074505762,0.00182361417625364,0.00911999137244963,NaN,NaN,NaN,NaN,3,-94.2734617915732,1.94478179345497,unstable,unstable,0,0.755141392016832,0.0770736463427418,0.0503710434941637,0.943473322408004,0.344101890858189
95,1.67296307198124,2.74395513534546,-1.08646806155188,-1.2398486653274,1.67296307198124,-0.056929204325557,-0.0102589378496038,0.0578461762862771,-0.0744744036987031,-0.0926617580803609,0.125272872236561,0.00808048120536178,0.187582004746896,0.188398108163242,15.4545064917761,0.786390385145839,0.961733502457376,0.165142196242428,0.248824533096956,0.244655310523661,0.521788946561099,0.124904091290423,0.0049279103587324,NaN,NaN,NaN,NaN,1.86493072097439,-128.583435678336,1.73505484625138,stable,stable,1,0.483803107494313,0.2515783465761,0.208251904811245,0.903693642761904,0.291264306433929
96,1.73133066944454,2.50979518890381,-1.06385761616477,-1.35264100179648,1.73133066944454,0.00677905269583036,0.00458172256982594,0.00818215968798564,-0.0606387172996181,-0.0962604941174436,0.116170296154622,0.00750205599357054,0.117624296983111,0.118545967158485,15.3913169749923,1.91484150423956,2.09752282250644,0.0208960328303671,0.0642357549267333,0.135643848433924,0.510819883947128,0.000233222041979743,0.00680709297314834,NaN,NaN,NaN,NaN,1.76269102467469,-127.19753908103,2.21425751664016,stable,stable,1,0.485397371950241,0.176654579487799,0.10857170846925,0.958026263874669,0.339713845140478
97,1.76976185757042,2.59955644607544,-1.08606848888977,-1.37452834897239,1.76976185757042,-0.0566425726400498,0.020510843808092,0.0602418106384865,-0.064792523132459,-0.101912965696146,0.124984813247138,0.00806166168860386,0.134165808305476,0.136116704999923,15.4197850163693,0.839917768881702,0.910202124629707,0.175817703373941,0.240288928170499,0.14675813260906,0.391761157273712,0.155994482298538,0.0409993499893363,NaN,NaN,NaN,NaN,1.81622668042125,-127.513201967813,1.6212353596978,stable,stable,1,0.499159836352096,0.197748114364019,0.202888604181561,0.898340206292583,0.334774163284862
98,1.87005323931675,2.53096055984497,-1.18383849418638,-1.43149866206306,1.87005323931675,-0.0475251537424467,0.0159238662775322,0.0501219488394847,-0.075361594826582,-0.108638378920084,0.135485520587001,0.00873953542402584,0.1227023586434,0.124842444275059,15.406443252644,0.918542380851969,1.06856617213131,0.176000610593147,0.240249291536178,0.170815918850987,0.465796516566468,0.155998451947542,0.0431106139203095,NaN,NaN,NaN,NaN,1.91962505408224,-128.853168090004,1.88766769588336,stable,stable,1,0.523649352672811,0.157893171072756,0.179745134833784,0.896386698929986,0.324081813844006
99,2.63182270447147,3,-0.162995074177287,-2.59615610700922,2.63182270447147,0.00520138663546062,0.00774913409169591,0.00933292569897736,-0.00622597250960627,-0.35017829470429,0.350457618356508,0.022631121187079,0.190977774507704,0.193846087781583,15.4048137748683,2.12373644493596,1.80738983436088,0.0292716878103482,0.049898545175963,0.134309995970251,0.425470589034835,0.0209814363430062,0.00662713005356421,NaN,NaN,NaN,NaN,3,-92.2002194325483,1.77029004465893,stable,stable,1,0.740588605415376,0.0845509278720644,0.0624655050163758,0.954476735328922,0.340306668457666
100,1.59735900163651,2.29011487960815,-1.0077819904642,-1.22471188185509,1.59735900163651,-0.0442953326700705,0.00740125403969093,0.044909409456285,-0.0553013531131848,-0.0800498986701531,0.0997972960800479,0.00643790742322817,0.123407545751404,0.125084150276303,15.4109767633139,0.927369000227021,1.04231311475442,0.176958672135037,0.240181056233237,0.166537439814114,0.408220130739747,0.158486703275744,0.0359551395276681,NaN,NaN,NaN,NaN,1.68546986904653,-128.540481584722,1.58441627367373,stable,stable,1,0.450979230491662,0.164103464277273,0.181975209547463,0.896044590171913,0.325983360082616
101,1.67036712369663,2.33760714530945,-1.08388131066131,-1.24779955710103,1.67036712369663,-0.0612887967427869,0.0102191516785765,0.0621349150414516,-0.0645158012964963,-0.0837349381846547,0.109865672306124,0.00708486239300914,0.132079211942477,0.133898263380054,15.435829838515,0.590237545971557,0.779041072670199,0.175495539211077,0.240197393761695,0.0991319997251903,0.48472013728032,0.155598263600165,0.0395068866945031,NaN,NaN,NaN,NaN,1.69807149429304,-129.55767099295,1.74416034863504,stable,stable,1,0.472210885661778,0.161520405953817,0.180433168010769,0.901493612676562,0.355941333455471
102,2.6224123785727,3,-0.128816336002002,-2.58925086029926,2.6224123785727,0.00749047560861434,0.00334452726032593,0.00820323640024531,-0.00421909011813688,-0.348585890012795,0.348804460886726,0.0225238316024671,0.195553756406342,0.198442845844732,15.366189999016,1.97629485905185,1.90850811207571,0.0257177277252902,0.0763686495116501,0.133239829345202,0.518306955837409,0.00955711094660143,0.00581328789552183,NaN,NaN,NaN,NaN,3,-91.8482151525671,1.97283123119809,stable,stable,1,0.738998536788333,0.0864611414945208,0.0582382126329675,0.956617684221353,0.340782298068799
103,1.70490377577575,2.62923765182495,-1.08333253993039,-1.28628409896258,1.70490377577575,-0.0679329877392223,0.0122269957632391,0.0690245626467245,-0.0679137276192288,-0.0916106829576879,0.11979544544642,0.00772825230899776,0.16838133084925,0.170325832799316,15.4150933567825,0.932116925335449,1.08782415238188,0.176133031975338,0.240265315327946,0.166905125899459,0.420180957389414,0.156723133533147,0.0435828672091434,NaN,NaN,NaN,NaN,1.75398132014352,-128.600052606655,1.7516581717348,stable,stable,1,0.488706173433398,0.220629625262969,0.217880816521293,0.896062518401695,0.325819944044685
104,2.62924350417599,3,-0.365243898282255,-2.56991335311934,2.62924350417599,-0.0255300855674599,0.00510243824876966,0.0260349792618379,-0.0145490442539247,-0.3505201813144,0.351294435583775,0.0226771817570016,0.203183438490172,0.205332720549936,15.3907929023235,1.70797932081888,1.44803401486869,0.0626749065444233,0.240641045252268,0.123874084256055,0.49873506587023,0.00194973926441382,0.0087365978093897,NaN,NaN,NaN,NaN,3,-96.2939600424606,2.11338557297208,unstable,unstable,0,0.742198145223585,0.0881932910917388,0.0569594700971871,0.943865299090243,0.344944851441753
105,1.70813859069107,2.46325373649597,-1.09475352360911,-1.29593305525512,1.70813859069107,-0.0476268669821076,0.010259964036968,0.0487194552573328,-0.0653004033580233,-0.0897188644510424,0.11386134880342,0.00734402667666345,0.123264593787572,0.125002121589819,15.440516426656,0.874080790162351,0.891941083785462,0.176224015286015,0.240216798645601,0.145573794850388,0.394654394725905,0.156416038437306,0.0398385829628464,NaN,NaN,NaN,NaN,1.78074250763471,-129.221424924807,2.49506564713911,stable,stable,1,0.48050404850225,0.178832807936613,0.191304681508472,0.898012106204545,0.33530053562205
106,1.86362269052295,2.53129124641418,-1.08389419436219,-1.50116503835226,1.86362269052295,0.00399209928105106,0.000944432998859178,0.00410229330486041,-0.063410067698695,-0.118361289428601,0.136925848136201,0.00884133345845139,0.126796947696864,0.127850858428392,15.4226631469962,2.04803428708712,1.87377218583129,0.0223078962889742,0.0490425871173281,0.135283681258164,0.449839212809146,0.000495108897244863,0.00939391287025972,NaN,NaN,NaN,NaN,1.88415857146299,-124.959215831678,2.15750598323088,stable,stable,1,0.522536222491798,0.150977512181419,0.0942225240240849,0.958031858139725,0.339873919440816
107,1.66886380596741,2.51664018630981,-1.00989184025598,-1.29949538473157,1.66886380596741,-0.0652987296987619,0.0102680448871018,0.066101110777925,-0.0595972590982283,-0.0935414075928049,0.116003235997022,0.00748348312761963,0.182166407384753,0.184056678495167,15.4135958806835,0.950945637253552,1.02866274876373,0.176558325069669,0.240237029423097,0.154017223078654,0.444092590000075,0.158922464913914,0.0358354961458017,NaN,NaN,NaN,NaN,1.72726488943798,-126.550224489005,2.34188589354428,stable,stable,1,0.481841683957009,0.202868222552994,0.205384229667767,0.89616677157503,0.331547900853932
108,1.67684555617539,2.61530613899231,-1.02456530891963,-1.31388809231165,1.67684555617539,-0.0479793829317406,0.00361242771416263,0.0481151828480434,-0.057041438670713,-0.0920118679414239,0.110657580689913,0.00713870404454973,0.122071290865999,0.123863643859427,15.3892223659623,0.939240797461549,1.11284340973096,0.176834699137905,0.240212981423981,0.140700053207586,0.502709537853044,0.158993249654828,0.0345495199669772,NaN,NaN,NaN,NaN,1.72684939224008,-126.925173742408,1.7982859777694,stable,stable,1,0.471931543751988,0.219974747989282,0.215211977113,0.895459131660249,0.337466643018851
109,2.62822250219492,3,-0.306052025584327,-2.57607036918213,2.62822250219492,0.00739960063209143,0.00720270359157152,0.010326326962792,-0.012768366854578,-0.344736137185592,0.345379184561817,0.0223086192355122,0.19604074689236,0.19878512159824,15.3848713719652,2.09042668693061,2.20610442886262,0.0272850007367465,0.068350220314428,0.146557222554008,0.508026326355699,0.0114061844663032,0.00901324037992322,NaN,NaN,NaN,NaN,3,-95.4171668207032,1.90757216316593,stable,stable,1,0.740616358238293,0.085543096949322,0.0596728154442858,0.95259904086468,0.334863456642663
110,1.64450514276285,2.35481333732605,-0.966563405928206,-1.30896733346477,1.64450514276285,-0.0451764590102042,0.0177900433003743,0.0485530440789232,-0.0519940069775008,-0.0917279948040344,0.108997490760246,0.00703001991420402,0.121857430223287,0.123566734592432,15.4344891900356,0.871588198560431,0.873528741826841,0.176526475873157,0.240200186183919,0.122462695732683,0.425486869460852,0.159564618518036,0.0364138381162112,NaN,NaN,NaN,NaN,1.65985778043302,-125.136897277648,2.2221175706297,stable,stable,1,0.463248051655248,0.168720735191188,0.185391445023573,0.898025128960379,0.345572135229919
111,1.5679051656051,2.18282556533813,-0.953080461734556,-1.23168244799543,1.5679051656051,-0.0339638290406139,0.0141897796917305,0.0368088512561842,-0.0491632024549392,-0.0807334104684266,0.0966220030848027,0.00623110303090163,0.110718450433368,0.112223688540172,15.4607916930982,0.702727772715206,0.80813546306697,0.17600716123326,0.240175059155202,0.128077891411959,0.428566951564543,0.155614579427641,0.0406116544847149,NaN,NaN,NaN,NaN,1.59306398738573,-126.486183134521,1.59066751002751,stable,stable,1,0.440552781869394,0.145105379336901,0.170993137261392,0.900125351102224,0.343076492705796
112,2.62876143503349,3,-0.238033807754639,-2.58721764088812,2.62876143503349,0.00716191083864352,0.0048669683394007,0.00865911933613392,-0.00904462162545514,-0.347735668800716,0.348129598713151,0.0224823627881473,0.197121065257143,0.199977100755409,15.400040686526,1.97754891065882,2.02305505598209,0.0285415639822911,0.0542750597727975,0.138202676688591,0.412649219952217,0.0220568723163136,0.00466656390010297,NaN,NaN,NaN,NaN,3,-94.1056534981467,1.63812485734111,stable,stable,1,0.740998469493344,0.0851161823290903,0.0625696960875704,0.954295901128104,0.338576588138404
113,1.73290174635681,2.46405696868896,-0.998395628996241,-1.39591423391976,1.73290174635681,-0.059784741893621,0.000536226923796539,0.0597871466337095,-0.0554736399670859,-0.104641765680711,0.121873473041344,0.00786227030874672,0.135157812051248,0.137116539520096,15.408478641037,1.05022854665509,0.999227882966711,0.177339652946598,0.240247327614281,0.155535602776791,0.381361558029079,0.158321173549564,0.0359509253214862,NaN,NaN,NaN,NaN,1.77528590773906,-124.910768203071,2.04932529248666,stable,stable,1,0.489530440265835,0.175470901907582,0.188720570919845,0.895227301579673,0.330873065432537
114,2.69183882550128,3,-0.461582174447698,-2.6115620623006,2.69183882550128,-0.0353090949402154,-0.00651229195768987,0.0359046254964362,-0.0188985205408042,-0.349186773591815,0.350390988183175,0.0226135295734946,0.202764768440297,0.204926744494451,15.388129826317,1.53008995919704,1.22769937134292,0.0631909382783762,0.240490438579058,0.125881001233516,0.450024280157402,0.0018613738095345,0.00983343852357362,NaN,NaN,NaN,NaN,2.9979851142919,-97.9705526263991,1.82948753163079,unstable,unstable,0,0.758809035699233,0.0759187789365576,0.0499543404373706,0.946736186120855,0.34405288834066
115,1.86022889694652,2.7177050113678,-1.05692520428927,-1.51663590671428,1.86022889694652,-0.0433332710534638,0.00771166644125399,0.0440141134125649,-0.0607869659720071,-0.121633533696569,0.138456701728522,0.00893133436012079,0.130308148745959,0.132591733735799,15.4428610748529,0.943816119168017,1.02715934785993,0.177225763972276,0.240234104032118,0.19024805196962,0.447484817273943,0.15904215402879,0.035294610531667,NaN,NaN,NaN,NaN,1.89315516909655,-124.179562229341,1.75132052692244,stable,stable,1,0.522579385932899,0.201001379870424,0.204120633542525,0.8959008822015,0.315445310235725
116,1.66220980065323,2.46723508834839,-1.01060232764999,-1.30622157893856,1.66220980065323,0.00467844251256956,0.00185989872914866,0.0050345851493551,-0.0550044544387243,-0.0900086769421177,0.107756001551213,0.00695684564117277,0.116983877698678,0.117883719328997,15.4365189024834,1.85099570249145,1.76051991193651,0.0243196580774942,0.0466590345700408,0.134790950367982,0.437151300248009,0.00595042386664349,0.00644688925725297,NaN,NaN,NaN,NaN,1.69700248239393,-126.66944677606,2.05371753334145,stable,stable,1,0.466832690706662,0.182053697008791,0.114221174401168,0.95946397684789,0.340092910947564
117,1.61365957598428,2.32580471038818,-0.955819878498378,-1.28676796679178,1.61365957598428,-0.0404009242815307,0.00384281962495129,0.0405832717443024,-0.049406055734462,-0.0880163441542891,0.103055567607617,0.00664784517950994,0.114110511021553,0.115724018322903,15.3880856422365,0.864912162123642,1.08847320880973,0.176922121261145,0.24020747852992,0.188550417341094,0.458752773549938,0.158456255596872,0.037201765645705,NaN,NaN,NaN,NaN,1.6721231422542,-125.43586516234,2.17150356631411,stable,stable,1,0.453454023927057,0.167672921727333,0.184556670304155,0.896190911454951,0.316199814515069
118,1.64831876372271,2.47629523277283,-1.02163247469911,-1.27925751530396,1.64831876372271,-0.0491576954117231,0.000191755152954088,0.0491580694111397,-0.0608293666362459,-0.0930970651122253,0.113834028444119,0.00734215113317262,0.134962159603581,0.136012698271911,15.4477956604392,0.540131520047419,1.14534211346275,0.168730928933145,0.243912432587981,0.238968283279306,0.481396608698743,0.14408666953838,0.00494914346674565,NaN,NaN,NaN,NaN,1.78141492798702,-127.597402747289,2.19774330284334,stable,stable,1,0.466754209980438,0.195307018261652,0.183022419285189,0.90239152841299,0.293791874098086
119,2.57515886077115,3,-0.366223953188109,-2.51632588088786,2.57515886077115,0.00707536140324057,0.00654899959364332,0.00964106501710297,-0.0152896068166551,-0.330663602088543,0.331497260161579,0.0213973932206323,0.207804473037993,0.210439501421583,15.4125621135659,1.65159294809496,1.62360173205748,0.0285214714804135,0.0724240080369454,0.11597460285314,0.476324686056996,0.016023993560689,0.00525676198746448,NaN,NaN,NaN,NaN,2.88139783872518,-96.8469577847742,1.83191583456768,stable,stable,1,0.728796929823291,0.0973567849129593,0.0674473956772608,0.960005591772881,0.348455732065271
120,1.69181547148916,2.52805137634277,-1.01318803232907,-1.32520045885896,1.69181547148916,-0.0698260309733409,0.0228419150007495,0.0734671877942216,-0.058892015664758,-0.0961642169629715,0.118001545351987,0.0076094023627558,0.156348070506142,0.1581250029056,15.4770645563962,0.731777815680091,0.616437687114509,0.17556598146429,0.240192770440958,0.131241189522813,0.368718666333626,0.159154079655247,0.0352798883378135,NaN,NaN,NaN,NaN,1.76744363452008,-125.864521808831,2.22429034701234,stable,stable,1,0.482775792978229,0.201622063021004,0.204537434630705,0.901623887460183,0.341670582434305
121,1.73005149332253,2.34760522842407,-0.997309351886477,-1.40029421062624,1.73005149332253,-0.0406315790484849,0.0115923412815055,0.0422529004017496,-0.0539834707766175,-0.104202317568802,0.119610472251184,0.00771736692381727,0.118241755052174,0.120160086887285,15.3862137399175,1.06007206223648,1.12729645597106,0.176663849583152,0.240700704738463,0.159497556315603,0.507467983513708,0.159031238166373,0.0377940237029672,NaN,NaN,NaN,NaN,1.76448514358837,-124.664357217421,2.3594186591158,stable,stable,1,0.485379082263464,0.146695955471502,0.1724414049256,0.89448160827965,0.329112197193065
122,2.62596554780086,3,-0.377671296789699,-2.56823159989117,2.62596554780086,0.00980452696183751,0.00319828321179005,0.0103129900828138,-0.0152274835216225,-0.342596699988442,0.343397929845868,0.022170603552708,0.192243377630339,0.195076900865533,15.4074001576327,2.09034275920191,1.52564669732651,0.0279466759048799,0.0482002197859714,0.127409560132082,0.475595572404383,0.0211858958880073,0.00673671483635821,NaN,NaN,NaN,NaN,3,-97.1526305433791,1.64879239148574,stable,stable,1,0.73927285958667,0.086048466593322,0.0634947481699449,0.957615316317694,0.343373528830186
123,1.61237791986079,2.39898085594177,-0.928647127915876,-1.29311210153076,1.61237791986079,-0.0661864520344728,-0.000680632105025009,0.0661899516012359,-0.0500762650822352,-0.0926565695951177,0.109380479543404,0.00705674101230208,0.170065025727687,0.171786167304272,15.3314393633887,1.04453789710134,1.15048374461937,0.17755590261387,0.240207699582835,0.151599017164274,0.463556667463006,0.158077899372985,0.0350676507875065,NaN,NaN,NaN,NaN,1.66518818535526,-124.488998271363,1.64759963236059,stable,stable,1,0.464324678757065,0.189120485078448,0.196481008226479,0.893975450079545,0.332622659038101
124,2.68351484669579,3,-0.548513908620439,-2.59129560034038,2.68351484669579,-0.0217245679233969,-0.0131934878065969,0.0254170213038646,-0.0251732058066303,-0.341604504558139,0.343582728079435,0.0221810615646613,0.203967104706843,0.206033503234802,15.382477820644,1.65765004732436,1.71253131255602,0.0628604459315318,0.240278108449476,0.127998611550051,0.471445259024526,0.00188370821850593,0.0106934775389362,NaN,NaN,NaN,NaN,3,-100.530616564359,1.94858002913207,unstable,unstable,0,0.756810659765839,0.0758689467324882,0.0502471089790481,0.942089780635174,0.343111728199977
125,1.5388936843421,2.38118720054626,-0.794052795263652,-1.2916774502034,1.5388936843421,-0.0653441853096537,0.0052716455594611,0.0655564855730305,-0.0379267722241098,-0.0919680893176515,0.102878882393685,0.00663511856664623,0.153855094619756,0.155542339409169,15.435018518096,0.772992435587591,0.857783885384773,0.176239967731592,0.24019258060794,0.147410277867154,0.447793680144937,0.159141789520965,0.0367476359112912,NaN,NaN,NaN,NaN,1.59718321662841,-120.692341177793,1.69703230856269,stable,stable,1,0.441480117039727,0.201534730167659,0.20501329902715,0.899066773612278,0.334484320947931
126,1.56118436222491,2.24340677261353,-0.860604032385923,-1.28974140024859,1.56118436222491,0.00365265878852602,0.000557234914691927,0.00369491907564267,-0.0402834292168022,-0.0879831287839067,0.0985600749587499,0.00636360099330679,0.115223759226281,0.116038429562423,15.3766183787276,1.79615421952089,1.91327895314582,0.0171989207753937,0.0488431882218158,0.127336929428534,0.440561658665568,0.000159110447904182,0.00582240269526246,NaN,NaN,NaN,NaN,1.57811714801433,-123.111297136965,2.33634783330552,stable,stable,1,0.439523515839127,0.154177444167973,0.0946944195991396,0.962254993255636,0.343405809142874
127,1.48303603602422,2.1370964050293,-0.745196751718787,-1.27056344727058,1.48303603602422,-0.0413523924850757,0.00233388192812685,0.0414182009398547,-0.030597584460644,-0.0860935178258345,0.0926530319677242,0.00597685325392338,0.103962990313944,0.105467697876763,15.4046344725189,0.788843620370963,0.955733246253326,0.176383514322196,0.240159315301294,0.132696657286339,0.417757022925199,0.157976099124283,0.0367849659777574,NaN,NaN,NaN,NaN,1.53181850141805,-119.504479623187,1.78393725930085,stable,stable,1,0.416569815848479,0.154756919865115,0.176442102794501,0.898100853172568,0.341023707872738
128,1.63405468959936,2.36806201934814,-0.879957949776157,-1.3647192325633,1.63405468959936,-0.0599034889689152,-0.0106463653662707,0.0608421982357728,-0.0426108989032876,-0.0982959150280405,0.108809581869712,0.0070188261428346,0.109165503717701,0.110891018334765,15.4431760541922,0.93171945160634,0.945922589386422,0.175646011272465,0.240186872195446,0.130461848815669,0.481216911381262,0.154933000857261,0.0414504125766876,NaN,NaN,NaN,NaN,1.67347133841587,-121.814224359451,1.95341540877887,stable,stable,1,0.45792612089345,0.176306052203367,0.18971562011475,0.89742409261311,0.342016956081925
129,2.61884602336182,3,-0.518439492645208,-2.53507300897129,2.61884602336182,0.0045961336583823,0.00575569819222039,0.00736563006711875,-0.0228920756715943,-0.334520591982087,0.336113364279348,0.0217045709097751,0.194594869347886,0.197237786523845,15.3693515118213,1.99220987485365,1.94390753606268,0.0276231637411456,0.0712085162538861,0.130995927039785,0.473056668526034,0.0218764179103992,0.00707628338265168,NaN,NaN,NaN,NaN,2.98812679975473,-100.15154225882,1.71257944380624,stable,stable,1,0.737806496867921,0.087110010255896,0.0645620525154873,0.95526178132937,0.341779587982318
130,1.65722299588693,2.34601283073425,-0.933125883917296,-1.35026008231338,1.65722299588693,-0.0556563997751752,0.00413570948128994,0.0558098461639857,-0.0491054821608136,-0.0975324300215243,0.112171566467154,0.00723458651185287,0.137128000040503,0.138948221725949,15.4555933705192,0.888684809009733,0.757789478522783,0.175400640643565,0.240178768822335,0.132372262849758,0.406436420291991,0.1588662007644,0.0365598354974549,NaN,NaN,NaN,NaN,1.67291748571223,-123.514973806059,2.0947054052125,stable,stable,1,0.469715776581705,0.165209517970711,0.183027396757598,0.899363095990462,0.341167883177885
131,1.52004082930968,2.18014693260193,-0.756648928078872,-1.30636695451146,1.52004082930968,-0.0490245307754717,-0.00894165812961499,0.0498333007923625,-0.0321077622749967,-0.0907826616088217,0.0976084688569488,0.0062951639759107,0.104125473263028,0.105619981903035,15.4627807959124,0.777224064819151,0.733026288111678,0.175103822501229,0.24013823459314,0.114320752033784,0.409998653459532,0.156423678971037,0.0398390840601641,NaN,NaN,NaN,NaN,1.54515709711904,-119.107877075441,1.98673583849871,stable,stable,1,0.426468217529855,0.157659978386022,0.178604561788094,0.900581835976358,0.349190776873874
132,2.62830967647974,3,-0.464429782266453,-2.55162699777501,2.62830967647974,0.00441413765051808,0.00456813973044144,0.00635236269387689,-0.0206069414914957,-0.338746066718428,0.340081741783458,0.0219574331612024,0.202078329653908,0.204810351228748,15.3856379701875,1.80650604159649,1.86735308975038,0.0216864010268337,0.0461252663535251,0.13025170526604,0.384604401068866,0.00437636811831351,0.0061987701274558,NaN,NaN,NaN,NaN,3,-98.8062245222683,2.13934306251196,stable,stable,1,0.741844650640346,0.0847949226192704,0.0550761042967562,0.960290763454572,0.342110353215094
133,1.62929265724646,2.38032221794128,-0.854937043758428,-1.37445919147206,1.62929265724646,-0.0448349049008347,0.00162867253813566,0.0448644767238332,-0.0404202879151272,-0.100464225056114,0.110031994804346,0.00709801959232302,0.117910141924903,0.119619060308421,15.4159266937825,0.908795863220549,1.0210756577369,0.177004121709698,0.240934262151183,0.185280880388549,0.384713268819519,0.159472194614341,0.0371148657204382,NaN,NaN,NaN,NaN,1.68330103474598,-120.509023497779,2.38421846151381,stable,stable,1,0.458401853994074,0.177206805222371,0.190696928880562,0.896334662909057,0.317652942049534
134,2.64809283221082,3,-0.622496509588195,-2.54177821430535,2.64809283221082,-0.0218630330507042,0.00289637541593709,0.0220540518890799,-0.0285365713493537,-0.340000802771429,0.342371120319092,0.0220971740496507,0.199645406468022,0.201640680401432,15.3868424090784,1.64072162096182,1.30194098093525,0.062670265325756,0.240293466841979,0.123173003886485,0.450993699053717,0.00187757406543414,0.00962035128438191,NaN,NaN,NaN,NaN,3,-102.269542710179,2.02304665098644,unstable,unstable,0,0.746486224669839,0.0832223555988958,0.0542662002797097,0.945543946893645,0.345256442717118
135,1.64286274805262,2.53716516494751,-0.858245343913604,-1.3738390191716,1.64286274805262,-0.0642282142238566,0.00624004858111462,0.0645306261296161,-0.0438503935040208,-0.103701698345282,0.116353482221533,0.00750613421375422,0.165775239668196,0.167602288941979,15.4474761657572,0.991287947104171,1.01676004183446,0.176995575678422,0.240236042276641,0.18154793482644,0.427525586505703,0.158368022788453,0.035754318665509,NaN,NaN,NaN,NaN,1.71044333906111,-120.370167332204,2.00115856315424,stable,stable,1,0.471617190602429,0.213048658591779,0.211216553484868,0.8957246922477,0.319312028966027
136,1.62657937357657,2.50044631958008,-0.757918488666026,-1.41380197807618,1.62657937357657,0.0066535295090004,0.00720622931530456,0.00980811887529377,-0.0351572719005735,-0.108898105736861,0.117134972455098,0.00756319442789938,0.173990597068209,0.174900001798952,15.4101700490316,1.7478024554639,1.9975653367242,0.0215225149375303,0.049124559207074,0.127705286959214,0.417205642051769,0.00290981951885117,0.00629362841874077,NaN,NaN,NaN,NaN,1.66149639163359,-116.91481150861,2.15944041394257,stable,stable,1,0.468734499980209,0.198418217977927,0.122632776058515,0.959810852735471,0.343242094684794
137,1.49025561105485,2.05164265632629,-0.71417131911152,-1.29784520682325,1.49025561105485,-0.0350613648143972,0.0178713293261521,0.039353318977337,-0.027959875203452,-0.088747149842609,0.0940549984539573,0.00606522650703888,0.0938239592706472,0.0952894162039375,15.4595963802357,0.623320918571796,0.680964371358266,0.175915229026276,0.24016594603168,0.093090233499334,0.388704491675601,0.154670746876866,0.0410809476277328,NaN,NaN,NaN,NaN,1.50463962214456,-118.009747287404,2.03463399223217,stable,stable,1,0.416459379522081,0.13352686033192,0.163797196776733,0.901794429637412,0.358626562889185
138,1.58213301873047,2.25506973266602,-0.714181490748694,-1.40014262342076,1.58213301873047,-0.0393876443091847,0.0053473615620396,0.0397489723125269,-0.0286118055371171,-0.104201044257558,0.109130072415391,0.00703866923687131,0.115996638061155,0.117775915793185,15.4452526791729,0.882628375958541,0.836961875676725,0.176229224096712,0.240197968596088,0.172651616078463,0.43384921514189,0.158498370186428,0.0366317319515816,NaN,NaN,NaN,NaN,1.62198882751374,-116.427624599585,2.4532207521578,stable,stable,1,0.445457321486762,0.158698072226128,0.178983193219108,0.898374321688795,0.323265948409572
139,2.62176182876064,3,-0.513630397476739,-2.53708334008076,2.62176182876064,0.00647432255608034,0.00457933786029006,0.0079301442483007,-0.0230943534488095,-0.335665863034768,0.337293709939279,0.0217776418407922,0.198377852917169,0.201029361313016,15.3943364286569,1.96402198874594,1.76437521295593,0.0282827692205013,0.0622361685073702,0.121127323386776,0.457110924886699,0.0212033030385337,0.00574010056103944,NaN,NaN,NaN,NaN,3,-100.33835635475,1.73142419198347,stable,stable,1,0.739342359932107,0.0865574483077116,0.0634454685188987,0.956564065947806,0.346165634050322
140,1.5773294224035,2.31322836875916,-0.758190179306631,-1.3662931542553,1.5773294224035,-0.0532144679414179,0.00466989321320249,0.0534189807176336,-0.0329005443813944,-0.100184210544003,0.107188055173343,0.00691279775095941,0.132630101021111,0.134361280522388,15.4585837058801,0.74617921048063,0.817322461417041,0.175066057597655,0.240183158384009,0.143088578910616,0.405702247700492,0.155805016617919,0.0407778057330096,NaN,NaN,NaN,NaN,1.62484937329115,-117.662804067615,1.8938190145295,stable,stable,1,0.447493435412078,0.175370742728255,0.189297412683183,0.900182315207691,0.336405076039726
141,1.46057497666626,2.29788589477539,-0.738838511486238,-1.23482008007865,1.46057497666626,-0.0637063671478043,-0.00572224136683955,0.0639628428185553,-0.0344390737981157,-0.0880826963477052,0.0975224029496966,0.00628901560939489,0.16628694788616,0.167084366593243,15.465416497349,0.622441708087683,0.769404188960512,0.177647271304777,0.241060684814423,0.206774656733543,0.415735483328499,0.123409996817618,0.00483672201799544,NaN,NaN,NaN,NaN,1.58700801541868,-119.377240163094,1.82078911443559,stable,stable,1,0.422903533762986,0.200121477757955,0.176680582135814,0.900240432299376,0.30810015256287
142,2.62839833789047,3,-0.613937283205079,-2.52344305826456,2.62839833789047,0.00636093407813321,0.00355521313326715,0.00728704485846709,-0.0286532650702687,-0.331086845050462,0.333449300121958,0.0215335435271187,0.194460196638263,0.197163374029248,15.4030619066924,2.06295453346431,2.00437752256556,0.0191937183717391,0.066121586328781,0.133943999758841,0.459711616654595,0.000385778541776251,0.00632104447844875,NaN,NaN,NaN,NaN,3,-102.460692774955,2.26764466801845,stable,stable,1,0.740338898243309,0.0849463321986961,0.0534378180774228,0.958445531802467,0.340469333440515
143,1.47596095792399,2.19878125190735,-0.657308357416506,-1.30952401804049,1.47596095792399,-0.0410146010861058,0.00195013507201038,0.0410609367775685,-0.0245061024919254,-0.0918054351262774,0.0960135952919073,0.00619264064909894,0.121826542050133,0.123333135082354,15.4191758762685,0.878609787039662,0.77084378306487,0.176438282425643,0.240139670913496,0.121328530238516,0.43263301838322,0.158304835086439,0.0358899590734579,NaN,NaN,NaN,NaN,1.50542716708844,-115.316950545559,2.30047585864599,stable,stable,1,0.418256215796202,0.170162404555476,0.185506041424678,0.898820866450643,0.346076208782882
144,2.67163742714298,3,-0.583959542549684,-2.57337346597928,2.67163742714298,-0.0290105877971635,-0.00953093856957353,0.0305360933053643,-0.0250333137053764,-0.339055110700431,0.340991762919469,0.022010161743812,0.199712625429639,0.201776434685527,15.3964179779602,1.71460667768487,1.32009928063851,0.0634634648292051,0.24027526910581,0.112380411626992,0.405950376042037,0.00188002457505036,0.00782369636010788,NaN,NaN,NaN,NaN,3,-100.955060334027,1.6834948312267,unstable,unstable,0,0.752791934175232,0.0794798626654803,0.051368464571673,0.944424149341428,0.350053150388003
145,1.64976081856199,2.45683622360229,-0.759077024735478,-1.44021879150194,1.64976081856199,-0.060867718026729,0.00633674604810592,0.0611966784087141,-0.0349805031294152,-0.11304590955519,0.120913257068483,0.00780073681187818,0.161638807398518,0.163499021251722,15.3433608278835,1.06324229470269,1.08373021572902,0.177176748848387,0.240208574003184,0.15449288179302,0.480878105337598,0.157259465783276,0.0360720803346108,NaN,NaN,NaN,NaN,1.68254359450145,-116.590495520199,2.19675352001089,stable,stable,1,0.472636022533542,0.192811357175666,0.198697030330754,0.894542555850986,0.33133649698088
146,1.74058416535623,2.45384621620178,-0.815391199847115,-1.52511371835137,1.74058416535623,0.00315957717506985,0.00144102522363306,0.00347267643473576,-0.0366951913150365,-0.122263028368873,0.129052794318119,0.00833317746516096,0.120212992685105,0.12120947290454,15.3969351595089,1.95183210369595,1.94503289024537,0.027498206133889,0.0511975629241436,0.133357449037621,0.421731329116679,0.0206153718272491,0.00536080600707658,NaN,NaN,NaN,NaN,1.779143412243,-117.297381887505,1.57012028721859,stable,stable,1,0.488397672009236,0.161120618786617,0.107784142753321,0.955632671980659,0.340730022649946
147,1.41372906081628,2.04099774360657,-0.687939722458157,-1.2239089526168,1.41372906081628,-0.0452911355458261,0.00321086192939545,0.0454048080423212,-0.026339638150449,-0.0794640265353956,0.0847821458095111,0.00546900658188734,0.0977103969767274,0.0990378374682612,15.4223092400512,0.834160610366782,0.93388283862341,0.176641921862829,0.240121534902436,0.157956741152007,0.381623737410648,0.155536179986307,0.0403558776786229,NaN,NaN,NaN,NaN,1.48754464037965,-118.732441752547,2.0574560459868,stable,stable,1,0.396801983711328,0.149459668435572,0.173477856776777,0.897787269112234,0.329797003932441
148,1.68936782028224,2.66388916969299,-0.759389408320663,-1.4840999219278,1.68936782028224,-0.0658381099355082,-0.00151985568674658,0.0658556503360843,-0.0354560617017543,-0.120762208272998,0.128474896828544,0.00828657853497969,0.174217114191474,0.176190953242434,15.4154077883021,0.856386210799678,0.938428350346984,0.176490909687765,0.240227656347251,0.152237205149129,0.468570343209678,0.15839278129997,0.0361301138460293,NaN,NaN,NaN,NaN,1.75445964810256,-115.915142708198,1.88032317369997,stable,stable,1,0.485736276057084,0.231340839512368,0.222339518613034,0.897652430747108,0.33233901993372
149,2.57576496066856,3,-0.606254883465218,-2.47121134720973,2.57576496066856,0.00460918895530685,0.00764288176747662,0.00892514787201585,-0.0281764309382534,-0.318936288399757,0.32130291434726,0.0207426419087548,0.203984234191106,0.206518356919366,15.39740579749,1.87665990184636,1.6911227979589,0.0271551484257889,0.0583147499255946,0.119936454607674,0.501605836908001,0.0215856252601948,0.00678472869087247,NaN,NaN,NaN,NaN,2.89228411426449,-102.374592577792,1.79911552019313,stable,stable,1,0.728174327562155,0.0970891609594441,0.0703142818718279,0.958389847431493,0.346694909063256
150,1.53318672052166,2.22877335548401,-0.651200333387493,-1.37351377653849,1.53318672052166,-0.0476533120324732,0.00450139396427542,0.0478654436445111,-0.0246344547893057,-0.100895055779937,0.104971240141845,0.00676930463791525,0.118100665755318,0.119723282933008,15.4733544036029,0.571171792337931,0.740447312600436,0.175689032692847,0.240210419544666,0.127946182406023,0.398944575057927,0.156339628346219,0.0402630040697043,NaN,NaN,NaN,NaN,1.57055207434036,-114.528428258895,2.29188722455527,stable,stable,1,0.43279444872571,0.165282324201356,0.183294766174783,0.901849904971918,0.343135030041768
151,1.48967169475235,2.29075837135315,-0.659365139200501,-1.32491793469484,1.48967169475235,-0.0438596918255255,-0.00269091462630627,0.043942161855741,-0.0246207404892358,-0.0939160482289073,0.0980135966484305,0.00632235631246234,0.114862189736927,0.116355982101954,15.4273442161408,0.929747783600334,0.894564330823442,0.175338155025072,0.240153333244868,0.171458492154894,0.458828318823853,0.154019739100627,0.041129893423658,NaN,NaN,NaN,NaN,1.53043490962982,-115.371127707452,1.57719919885577,stable,stable,1,0.420516981687685,0.188300565242065,0.196389881404626,0.89799704158842,0.323796225708936
152,2.61958320563454,3,-0.652681720905659,-2.50383351503827,2.61958320563454,0.00933257154994721,0.00365327413259643,0.0100221406706742,-0.0313350898663066,-0.326225614268619,0.329032338923661,0.0212473700195512,0.198554767194987,0.20112840400628,15.3567198129702,2.04727545143823,1.9105374137582,0.0155082823039472,0.0739690983256123,0.133294685690465,0.519590827207942,0.000452733459825699,0.0082664895705196,NaN,NaN,NaN,NaN,3,-103.235441300153,2.42950780832191,stable,stable,1,0.738781202303799,0.0874311711885199,0.0556659137916072,0.96114875776434,0.340757917470905
153,1.47762605870092,2.19754076004028,-0.706104701178928,-1.28283373269593,1.47762605870092,-0.0465120119557468,0.00252060851670592,0.0465802610927207,-0.0282625513546859,-0.0877384184886031,0.0937058889664636,0.00604525001325849,0.108967878191483,0.110401652948942,15.4088148906354,1.01952485948254,0.975814551433847,0.17683266864432,0.240157259370621,0.167224433521969,0.456712121997425,0.158724506930344,0.0346136502698165,NaN,NaN,NaN,NaN,1.53053947457772,-117.277382087191,1.91613558181304,stable,stable,1,0.416113946243368,0.170520522335022,0.185443320619685,0.895905998877783,0.325678029545792
154,2.67766129452249,3,-0.663658111424599,-2.55794681757691,2.67766129452249,-0.0299118038223365,-0.00789680067481697,0.03093663635245,-0.0306331906771921,-0.336012644219128,0.338772924096607,0.0218681727534026,0.204818196942628,0.206823424550893,15.3814424167754,1.72717218292622,1.35897050043168,0.0628845718450838,0.240326934130002,0.127454660926776,0.457877086756641,0.00187664573159348,0.00999508734639589,NaN,NaN,NaN,NaN,3,-102.931426400997,1.87878123579808,unstable,unstable,0,0.755407696782843,0.078197925397055,0.0513873972247013,0.944309450136789,0.343353484032544
155,1.63802870946961,2.25025987625122,-0.779578749816251,-1.42242258510641,1.63802870946961,-0.0659061604255625,-0.00244544527676067,0.0659515138919617,-0.0351006037208623,-0.108189656565932,0.115734721074821,0.00746678423766845,0.122801120192337,0.124575725443751,15.3560501244106,1.14037912754863,1.0016948263537,0.177687777725698,0.240217080644818,0.163558107084755,0.489292662904543,0.15994370092746,0.0360314513910944,NaN,NaN,NaN,NaN,1.68981233095603,-117.495671617653,1.95620084534298,stable,stable,1,0.461722800947314,0.149843123406054,0.174094309305124,0.894325530070776,0.327307507962331
156,1.62157305626566,2.43835997581482,-0.705592242076675,-1.44678530183233,1.62157305626566,0.0066566164578278,0.00694190402180558,0.00961772187758537,-0.0281717077264736,-0.110026507437532,0.114769592426439,0.00741138813109769,0.116414183967843,0.117298412334882,15.3977893425637,2.16784795655183,1.81443935628832,0.0195149690491229,0.0586764848037811,0.142380574118746,0.397858242749502,0.000849802384262592,0.00685542736196878,NaN,NaN,NaN,NaN,1.64682358488304,-115.230680905002,2.25422898939513,stable,stable,1,0.45587916413782,0.185540305909451,0.114194756171311,0.958953115160266,0.336719744836113
157,1.62268940514366,2.53406286239624,-0.723305762865479,-1.42840800929195,1.62268940514366,-0.070956202634202,-0.00369400825054991,0.0710522933424464,-0.0326187007354773,-0.11276685707968,0.11981344075187,0.00772868908980138,0.170362681972046,0.17223870336647,15.4328530078674,0.830146935237793,0.915053395097593,0.175781485486469,0.240210136510294,0.148656611177228,0.429029522169985,0.155746804296863,0.0409325383162227,NaN,NaN,NaN,NaN,1.69535374865113,-115.407012304463,2.20151147107996,stable,stable,1,0.46716491537827,0.218085281661279,0.214956530294202,0.898396968946987,0.333930395032343
158,1.60394298305383,2.30920910835266,-0.74273432658011,-1.40952779003747,1.60394298305383,-0.0360741315113869,-0.000480469169113521,0.0360773310393564,-0.0307086841087474,-0.104858516937746,0.110462365328,0.00712558594725956,0.108870363135657,0.110732684875288,15.3922057143156,0.917161278681525,0.924103914756873,0.176356151984522,0.240189010185304,0.173798180320179,0.475245001286013,0.157246459361159,0.0353613445246396,NaN,NaN,NaN,NaN,1.65925020896733,-117.23842078182,1.91132946237433,stable,stable,1,0.449864665789411,0.165299055549453,0.181925419337531,0.897354840345008,0.322756364302143
159,2.58582097790313,3,-0.744368590484077,-2.44519316486462,2.58582097790313,0.00535866582363054,0.00536439871356918,0.00758235273299051,-0.0372961490804147,-0.312082562808776,0.31597272611291,0.0204110021983115,0.196023445266612,0.198489743794217,15.3909630202024,2.25030598639345,2.1093224792662,0.0278110374745968,0.05694914706434,0.145675205996495,0.435193789453758,0.0219289675642658,0.00547445499334103,NaN,NaN,NaN,NaN,2.88835322200788,-105.56852442763,1.71329075498149,stable,stable,1,0.729250209533011,0.094580377972844,0.0684851454967162,0.951840257603947,0.335255464001558
160,1.52101681965428,2.07479977607727,-0.673652677143022,-1.35257522688957,1.52101681965428,-0.0434168224732704,-0.0029129322194635,0.0435144303397237,-0.0255097107646561,-0.0974227625038741,0.101645819711727,0.00655610397883622,0.107847125451531,0.109403232016666,15.4250537424168,0.901300023934491,0.854558958953519,0.17644799445528,0.240170273973551,0.148530222869531,0.382332431515321,0.159374346218124,0.0365970299616985,NaN,NaN,NaN,NaN,1.56544004446909,-115.546181583882,2.23813639261597,stable,stable,1,0.427485131644476,0.132578810757455,0.163688340113246,0.897979967906812,0.333986567613542
161,1.64231403615024,2.517329454422,-0.771966706942705,-1.42891279267063,1.64231403615024,-0.0587207679328873,-0.00611391657238973,0.0590381957929115,-0.0351851869320626,-0.109411618437809,0.117112332915945,0.00755460492103125,0.139962621234411,0.141878138267811,15.4051026778063,0.884129754146514,1.01499079544878,0.176743201060739,0.240189420320925,0.148128076078906,0.476015022229039,0.158072811104029,0.035978134567414,NaN,NaN,NaN,NaN,1.70136515468512,-117.053321105748,2.02343494013469,stable,stable,1,0.466326037293625,0.207702138339847,0.207958823741324,0.896706738008525,0.334165299520486
162,2.56747702850546,3,-0.721441954367979,-2.42909845665196,2.56747702850546,0.00851437888229704,0.00289708658186167,0.00899376219466074,-0.0368394245043944,-0.309061735214091,0.31310784893793,0.0202243405285898,0.210608134941044,0.213044406577135,15.371887958485,2.08548108255906,2.15838168026593,0.0236688478403598,0.0514288979642655,0.149149330624685,0.423237306614359,0.00596156061464553,0.00557591150275665,NaN,NaN,NaN,NaN,2.85921158454158,-105.062668776886,2.06585984431595,stable,stable,1,0.727269422250216,0.0989665249886262,0.0640571016713943,0.954820940086195,0.333711408611251
163,1.66700273199587,2.47540807723999,-0.778856819041589,-1.4509265349376,1.66700273199587,-0.060223269889517,0.0160017842826442,0.0623129146839873,-0.0362627210406155,-0.115205549236314,0.123432635645993,0.0079603187496898,0.161777084728926,0.163564332383798,15.4725299886181,0.860955247750024,0.694580895454765,0.180266203945996,0.240218571149683,0.12345397211917,0.403053676019967,0.128390382314498,0.00467776941182077,NaN,NaN,NaN,NaN,1.71874998102098,-116.787170824054,2.14551378706494,stable,stable,1,0.477246928342324,0.193315237038659,0.174752541421816,0.897644828330393,0.345131567947035
164,2.40239854184566,3,-0.715586653524158,-2.26272914049446,2.40239854184566,-0.00369547876535621,0.013757544510337,0.0142452305793589,-0.037442835534163,-0.277525872923048,0.281997115579594,0.0181991270487421,0.217644323468567,0.21899276773694,15.4279558168959,1.5027998239177,1.13126129843356,0.0657060096990274,0.240468980860052,0.215220407239415,0.578159597540598,0.00190230414326659,0.00791648953989913,NaN,NaN,NaN,NaN,2.64390369362176,-106.697557678757,2.49306936905365,unstable,unstable,0,0.68443816470623,0.137071953690943,0.0859673641917385,0.946450800617726,0.304346485671371
165,1.63206007056588,2.24181818962097,-0.691576436388589,-1.46734715389989,1.63206007056588,-0.0475126788622551,-0.0118727759793862,0.0489736404826563,-0.0267495712180581,-0.113933887559384,0.117919220651601,0.00760552617998188,0.11753395547492,0.119404719327872,15.4488645599709,0.765061928856164,0.874720630439299,0.176385458839269,0.240219633138025,0.145337547062281,0.422592515809274,0.154471873653369,0.038643376361959,NaN,NaN,NaN,NaN,1.65443912380199,-114.70021335318,2.15193830387115,stable,stable,1,0.459096962683143,0.146174077542549,0.170410749452587,0.89892326475733,0.335405534638986
166,1.65217927207915,2.56695961952209,-0.723952076233184,-1.45912870146776,1.65217927207915,0.00870298753448179,0.00806820879442516,0.0118675180714328,-0.0325061187883386,-0.116053633434776,0.123055700199164,0.00794474809442782,0.175949240020439,0.176862009841581,15.3928573898382,2.08683707894332,1.75386127761986,0.0185270476267901,0.0594761757991898,0.127539872296937,0.478412682355475,0.000264328995798166,0.00619425619563161,NaN,NaN,NaN,NaN,1.6985678915868,-115.061450151433,2.29113484450832,stable,stable,1,0.475953541189423,0.208001289821092,0.127170710244755,0.960559560527894,0.343315612312472
167,1.46958742205729,2.11551928520203,-0.694943754943029,-1.27919816728032,1.46958742205729,-0.0498432248739284,0.00270039699268184,0.0499163220775638,-0.0278548334757458,-0.0876310826248036,0.0934957310992737,0.00603080333808363,0.13113793452058,0.132656534111779,15.3933217554639,0.848676204934849,0.956088119065364,0.176096705484961,0.240164739734686,0.141124946977416,0.464010173196188,0.1559722207448,0.040109562414063,NaN,NaN,NaN,NaN,1.53242316823457,-117.234742424214,2.01758121296591,stable,stable,1,0.418421286037632,0.154485994921787,0.176597879374056,0.897771356140375,0.337277801343371
168,1.71447953380443,2.59172797203064,-0.862311328879296,-1.46593653670268,1.71447953380443,-0.04990600246938,-0.00120858717060285,0.0499206346656641,-0.0423852657188723,-0.115646914667966,0.125261601340497,0.00808023129694918,0.144533390154002,0.146580308195424,15.4036263756278,0.89952967659047,0.918671314517607,0.176334731828569,0.240204602723718,0.138322874755519,0.437108799478129,0.158064626872775,0.0356553671006859,NaN,NaN,NaN,NaN,1.76822611766951,-118.998443980142,2.27920912376235,stable,stable,1,0.486510603986933,0.206533014956269,0.207136342287163,0.89754676915558,0.338523166775325
169,2.48600853366597,3,-0.778894135842825,-2.3293903927286,2.48600853366597,0.00666588364546973,0.00582210909583438,0.00885047790227953,-0.040283701875259,-0.285932136309825,0.290814924802467,0.0187821115176661,0.209562966965214,0.21176342484995,15.3962335819264,2.08493365155204,1.91373268524024,0.0203237036405175,0.0552654827111851,0.145452191463472,0.417528639289549,0.000622219300263726,0.00675740849206576,NaN,NaN,NaN,NaN,2.66549340284327,-107.193726307889,2.2118895306243,stable,stable,1,0.705288293947581,0.117270667540575,0.0730961818872339,0.958420055533516,0.33535458157179
170,1.73642919047567,2.8243727684021,-0.777183468910307,-1.52515738833471,1.73642919047567,-0.0775297423353759,-0.000385674540089478,0.0775307016054973,-0.0374474593922235,-0.127458538010142,0.135810371454171,0.00876105183443855,0.171119740485416,0.173168721925654,15.3975110011143,0.9928709255262,0.917864752299673,0.175533628240835,0.240238260541106,0.133834126820497,0.412646577621692,0.155962589445762,0.0403617748166431,NaN,NaN,NaN,NaN,1.77840570795084,-115.675983280215,1.58242383820222,stable,stable,1,0.497681528511976,0.259001266994455,0.239394475641245,0.897220262696665,0.340518165857557
171,1.63654480230164,2.36692881584167,-0.791717025896595,-1.41586843672826,1.63654480230164,-0.0526966476963378,-0.00119448518310993,0.0527101837720626,-0.0355752656150093,-0.107757622357072,0.115347062411365,0.00743971574660234,0.135871492925523,0.137599599862212,15.4552973779542,0.789070247092632,0.945957152978776,0.175765785655371,0.240189705056136,0.157220522895252,0.44081619386917,0.157884413199569,0.0379593262919644,NaN,NaN,NaN,NaN,1.68221562017466,-118.331726157389,2.44434066521813,stable,stable,1,0.463931867252879,0.173999936738053,0.188374203732648,0.898484749028896,0.330124212046555
172,2.40703315599308,3,-0.837203473534107,-2.22207928296286,2.40703315599308,0.00792156705969008,0.00691830494117269,0.0105173270340054,-0.0458586204697744,-0.263045319827417,0.269781592954508,0.0174306900944332,0.224023497560335,0.226074705896523,15.3343754247483,2.28180952274234,2.07712717218434,0.023792076683893,0.0611457360617538,0.141792161611557,0.458990870552949,0.00701629752375435,0.00711028701407205,NaN,NaN,NaN,NaN,2.5789773418386,-109.450212225276,2.07381604251654,stable,stable,1,0.687090449444125,0.135345716524459,0.0869113432838853,0.953855173340772,0.336981261505975
173,1.57154160899085,2.31326174736023,-0.736657271274583,-1.37219413698761,1.57154160899085,-0.051481275726825,-0.00084635199990313,0.0514882322688313,-0.0311310466393833,-0.100504400877618,0.106802057659049,0.00688944584472264,0.12955161191564,0.131325401293495,15.3465933638822,0.9668568571999,0.961628107516123,0.176571642289314,0.240192642884924,0.135838276505911,0.469139606857719,0.158977809314621,0.0366904594552629,NaN,NaN,NaN,NaN,1.60572032516396,-117.151648626796,2.22610899024543,stable,stable,1,0.445342842656259,0.176326540382396,0.189794713625728,0.896561796989717,0.33962743266404
174,2.33052034712068,3,-0.758054390905383,-2.17302481264828,2.33052034712068,-0.0237148844198639,-0.0104965323104579,0.0259340111358037,-0.0372209962053231,-0.250808712107027,0.255668648576643,0.0165068647529852,0.232924071795731,0.234428174267221,15.3588023275999,1.75509577777648,1.59387234721231,0.0629891525601618,0.240257774623584,0.137351579233321,0.479306462444103,0.00189410870964863,0.00989880308299777,NaN,NaN,NaN,NaN,2.36078838964489,-107.709824257803,1.68144054778469,unstable,unstable,0,0.668357727418959,0.155387490606077,0.0976738852142773,0.942192102737864,0.33895485367408
175,1.63672229507625,2.36071681976318,-0.799122368192791,-1.41228233787966,1.63672229507625,-0.05008003515919,0.00804408689748205,0.0507219602890105,-0.0363348313082448,-0.106605664485084,0.114536835608507,0.00738659668845756,0.132165225216671,0.134000542830862,15.4688270853294,0.81993183922699,0.646149450157356,0.176404890636304,0.240201272557411,0.123573585811883,0.420502947265999,0.155669932086787,0.0395786679400202,NaN,NaN,NaN,NaN,1.70036876942666,-118.357386427334,1.67175134752018,stable,stable,1,0.463259387253174,0.172197794107544,0.186897555834823,0.900278344550971,0.34507840630583
176,1.74733069030736,2.69859385490417,-0.891838143766587,-1.47326354165807,1.74733069030736,0.00545812966971055,0.00571478606379625,0.00790252866153198,-0.0473494003211845,-0.117992259605967,0.131284585102689,0.00847746234586728,0.18115232944453,0.182109743436661,15.3881389338255,1.99975159186932,2.14022094183291,0.0260833101884335,0.0711196666978692,0.135016170221812,0.486243405027302,0.0119367023794004,0.00484117280728185,NaN,NaN,NaN,NaN,1.79740384781532,-119.424856454763,1.94189500620482,stable,stable,1,0.502376799435962,0.215483008955564,0.136355432906225,0.954429989283837,0.33999281323475
177,1.96031253321751,2.66908550262451,-1.0006916755416,-1.67146839934339,1.96031253321751,-0.0605262381655691,-0.0147699375366285,0.0623022998075601,-0.0550788752009382,-0.148008238869829,0.16002483351606,0.010322261564175,0.141715381832535,0.144334033036313,15.4328833604075,0.952027686323592,0.984538054590439,0.176063468759311,0.240285461676233,0.136454877548649,0.449514982030683,0.158968748028097,0.0358999569827595,NaN,NaN,NaN,NaN,2.00389774569212,-119.82849383685,2.47533764303096,stable,stable,1,0.551616815465265,0.170896006414629,0.186244910562066,0.896752391941734,0.339353387756156
178,1.81868593244745,2.86190962791443,-0.980730948885689,-1.49977711929752,1.81868593244745,-0.0772885974150089,0.00801192147092709,0.0777027552666932,-0.0570125070126359,-0.124842397543291,0.142404439617386,0.00918533875469438,0.187251718264471,0.189375166680837,15.4351041597509,0.932979861857306,0.956226634496341,0.175922761609942,0.240296855039076,0.150272829890441,0.424752200217165,0.154758444263657,0.0415322479712292,NaN,NaN,NaN,NaN,1.88108853169074,-121.75609313085,1.94311467825564,stable,stable,1,0.522857948655487,0.248970836612298,0.233266668377128,0.897194853866536,0.333212075604248
179,2.5112848241991,3,-0.663910569579165,-2.38766829390832,2.5112848241991,0.00843098157354552,0.00775295906836201,0.0114538126669315,-0.0325715992094316,-0.29976500276029,0.303094568246341,0.0195753860161086,0.213381175031479,0.215711376945609,15.3586523094275,2.22345500554549,1.75548426867231,0.0176079025581185,0.0591069487935379,0.130470016314886,0.46196901516094,0.000424477841179614,0.00688496726700894,NaN,NaN,NaN,NaN,2.73243854491602,-104.018907315581,2.31905846885504,stable,stable,1,0.712818228508883,0.112060780210806,0.0699287494055162,0.959932954423515,0.342013326082273
180,1.82071036300403,2.53451776504517,-0.914474931797863,-1.55356730970772,1.82071036300403,-0.0528613549196132,0.0148871513943289,0.0549176667437263,-0.0474318245675772,-0.128808026043504,0.140122908979843,0.00903826543436485,0.13805991817995,0.14011538522542,15.4222677398678,1.00560699177463,0.92845230561247,0.176951730668322,0.240230603932018,0.155537351136846,0.443965845278756,0.155911049615686,0.039459402898422,NaN,NaN,NaN,NaN,1.85620598441334,-119.444845846151,2.25329945386538,stable,stable,1,0.513545840512826,0.170674904362272,0.186047616227801,0.896327954472083,0.330872288383624
181,1.8397988950884,2.56613945960999,-0.897549135197921,-1.58663038069182,1.8397988950884,-0.0603260993669903,-0.00259586863197744,0.0603819244376202,-0.0460335199293383,-0.133438828956065,0.143640575105508,0.00926740719414387,0.138530977623294,0.140816344639111,15.3565936232747,1.14404673208841,1.08278912988441,0.177153396596206,0.240218370233257,0.159284485921589,0.533557960569796,0.159455144642114,0.0353172184052147,NaN,NaN,NaN,NaN,1.8944468966032,-118.434379956689,2.49353586693628,stable,stable,1,0.518776307618063,0.174496646497587,0.188409565947449,0.893926734214968,0.329206895145961
182,2.44392711502254,3,-0.460262871710787,-2.36698178244814,2.44392711502254,0.00932700820114484,0.00664444910332858,0.0114517154117166,-0.0200920959756745,-0.296164207031756,0.297576018779372,0.0192116027631431,0.223507975798334,0.225835063036802,15.4167646781842,1.85252162338336,1.84818407493246,0.022286871977442,0.0564186714205622,0.126652454236847,0.453294656932134,0.00492586652977664,0.0050328985622455,NaN,NaN,NaN,NaN,2.61222307005049,-99.3162222201901,2.13558822262267,stable,stable,1,0.696880909946704,0.127215880278744,0.0803489471122059,0.959779590667369,0.343710020339179
183,1.82252244369404,2.45044136047363,-0.964432850516136,-1.53275279285936,1.82252244369404,-0.04754731791884,0.00149327523174064,0.0475707611058828,-0.0507013160954638,-0.12389628928861,0.135942576785994,0.00876853586900144,0.113802691928248,0.115965051038006,15.4555718072934,0.822535182327982,1.01572966151792,0.176345148231383,0.240244242753637,0.172468159084559,0.388173308163751,0.158941414318283,0.0363249865212868,NaN,NaN,NaN,NaN,1.87171872539055,-121.350351106356,2.06207010416155,stable,stable,1,0.509198995192678,0.150003062478154,0.173851552080537,0.897383916396948,0.323347484851307
184,2.51366142460482,3,-0.275125999277737,-2.4673670933325,2.51366142460482,-0.0212851022628075,-0.00309476002707586,0.0215089078747239,-0.0105057597916246,-0.323700523586156,0.324206050734795,0.0209311403925757,0.221798160040268,0.223726747258038,15.3511841070844,1.71157753953236,1.56092587868902,0.0627200458355912,0.240281945124418,0.126811021803168,0.488086549184077,0.00192439273090038,0.00958879865443488,NaN,NaN,NaN,NaN,2.70378156394852,-95.0700514349474,2.0390823778989,unstable,unstable,0,0.71505506267956,0.113369479240948,0.0723638090770865,0.942927450224751,0.343639545865259
185,2.09565422438935,2.87733459472656,-1.20171477146165,-1.69867493684041,2.09565422438935,-0.0639182977587569,0.00394801280222278,0.0640401092555566,-0.0788019271866645,-0.154369582606098,0.176962220834521,0.0114153616970583,0.144579567756409,0.14723320972947,15.409655735762,0.997676151845459,1.13185246984858,0.175817528785695,0.240372648034297,0.150508333143451,0.459885480800124,0.154888919612373,0.0399114615351037,NaN,NaN,NaN,NaN,2.15708888634091,-124.745911655981,1.88675616530427,stable,stable,1,0.588287768449721,0.187618770022724,0.195924040581394,0.895359225008128,0.3331074074918
186,1.98172038117635,2.99464464187622,-1.04910348329337,-1.65742433137782,1.98172038117635,0.00283609886028481,-0.00613989733339113,0.0067632681456447,-0.0641899683447103,-0.153794558962903,0.170982532997512,0.0110275849224446,0.169268757475503,0.170087408762541,15.4674974396516,0.822658341253176,0.9405783903894,0.024866761798316,0.0925646580596905,0.368540067541611,0.728375564879168,0.0203427251606978,0.0118557634632587,NaN,NaN,NaN,NaN,2.10837557196529,-122.363616262261,1.5880551101079,unstable,unstable,0,0.562476250066201,0.229147891150839,0.150841132586948,0.973712616209365,0.236204414425951
187,2.04768277100615,2.83974933624268,-1.10450872797991,-1.7099684986897,2.04768277100615,-0.056904211192329,0.00606034570537168,0.0572260171730464,-0.0667802734544474,-0.154628615687005,0.170961326441871,0.0110269312571693,0.130377199972282,0.133086069722747,15.4098594195129,0.995974668878492,0.915960031412871,0.175886633265719,0.240287858012512,0.138753736719033,0.470621099559849,0.159094668850204,0.0369019097079221,NaN,NaN,NaN,NaN,2.09849345512064,-122.244984043751,2.10509171008308,stable,stable,1,0.572665952879522,0.188706413659944,0.197351466164595,0.897034339293423,0.338331672569319
188,2.03645665420068,2.82867193222046,-1.13585671320005,-1.67457131473129,2.03645665420068,-0.0517007519145147,0.00252069863747518,0.0517621644654391,-0.0700885258006589,-0.148491620897584,0.167060064338573,0.0107769556767287,0.138503609677333,0.141156325328597,15.4308423158268,1.03511955764093,1.09209989612395,0.175908565502197,0.240284559588863,0.202100459340759,0.473842095312706,0.15861047002138,0.0352288734910595,NaN,NaN,NaN,NaN,2.08252249604559,-123.526280590972,2.28115346060955,stable,stable,1,0.571286372852568,0.187738167706447,0.195946942306887,0.895331850112177,0.31017757362633
189,2.49114298421802,3,-0.762320008322666,-2.34069097947181,2.49114298421802,0.00762284911241532,0.0033723019773694,0.0083354813428632,-0.0388782001933903,-0.288964415301816,0.293474391776919,0.0189571580694791,0.213162741341219,0.215385291093688,15.3866209703659,2.10147158317165,2.04394410738957,0.0243269487626821,0.0457534415792111,0.138366231687066,0.453017090191572,0.00763471067469534,0.00914639085343574,NaN,NaN,NaN,NaN,2.71977714743149,-106.924123588306,2.04404825499887,stable,stable,1,0.707381854010211,0.11602100013047,0.0763317651329311,0.955265402335678,0.33850389702797
190,1.97731889334301,2.71784162521362,-1.07396581778728,-1.64467128941756,1.97731889334301,-0.0528168006983837,0.00928959517987337,0.0536275210560651,-0.0632836908034196,-0.143872045240953,0.159837520219198,0.0103082094375672,0.13559460074497,0.13816957772506,15.4650336483299,0.834233900117035,0.803025737331751,0.176369944642726,0.240290975021156,0.13010745908347,0.39641360490773,0.155744762685692,0.0421307540197858,NaN,NaN,NaN,NaN,2.06580628279313,-122.281189709167,1.58614692434424,stable,stable,1,0.554918953769815,0.1764493268645,0.190409764834687,0.898950844812968,0.342174462629569
191,2.01606232447912,2.88551688194275,-0.990463763803875,-1.73396307901523,2.01606232447912,-0.0714217767973344,-0.00190638708645477,0.0714472148695221,-0.0564128885299212,-0.159788865447354,0.172719815297295,0.0111429283040997,0.153255916552635,0.156036539702917,15.3683471224389,1.02978451093324,1.12295541049342,0.176421106963896,0.240284286698948,0.1704685635245,0.510336822401902,0.156353763585417,0.0405936153537767,NaN,NaN,NaN,NaN,2.07634549688122,-118.754548572983,2.3391021012937,stable,stable,1,0.568823927801683,0.208725931488728,0.209487435160856,0.894875061421128,0.324236193989111
192,2.47184150513997,3,-0.952711635773465,-2.24803979564379,2.47184150513997,0.00476786064473911,0.00516060655443838,0.00702597716601502,-0.0558728143822338,-0.267846672363467,0.276937016178254,0.0178794557659432,0.217752200465204,0.21984561827244,15.4140753470468,1.91461536142498,1.69883944381354,0.027948693672048,0.0458334015481217,0.129862041141456,0.40546068131209,0.0197063225076308,0.00730631934557508,NaN,NaN,NaN,NaN,2.68099720733185,-111.612146549017,1.56380737961672,stable,stable,1,0.703126858358479,0.120123757157277,0.0834894632517042,0.957634222551388,0.342283537270464
193,2.06358248435411,2.83802556991577,-1.06796425890022,-1.74343437319693,2.06358248435411,-0.0643682774721647,0.0107456538494164,0.0652590547080255,-0.0641927638225059,-0.162293757792196,0.178225016460817,0.0114935164294777,0.163810779350232,0.166561528368789,15.4609950020945,0.828991414950402,0.771430116846605,0.176058324948649,0.24030744727314,0.127966758336408,0.406763971793092,0.155911451121654,0.0419792266421996,NaN,NaN,NaN,NaN,2.11900443077325,-120.570247299149,2.30508449399859,stable,stable,1,0.583600968168187,0.186213854281179,0.196287464169434,0.899396096918699,0.343125885183819
194,2.48769033445862,3,-0.991540010357763,-2.24652667699138,2.48769033445862,-0.0291637975937344,-0.00685684251601889,0.0299590283450214,-0.0572820310715133,-0.265761933638204,0.275745194553957,0.0177981755403205,0.226817072160471,0.228368497486133,15.3670886697862,1.66321207663623,1.50635563264128,0.0633992993298466,0.240236955116209,0.129454484569874,0.502535626555395,0.00188763417320449,0.00733813520196452,NaN,NaN,NaN,NaN,2.61715863552686,-112.220792726245,1.58455468611428,unstable,unstable,0,0.709057788686191,0.120762163276732,0.0759646592881777,0.943396604047896,0.3424646735245
195,2.03971827750238,2.87849164009094,-1.0366802522389,-1.74079889300754,2.03971827750238,-0.0614860888274792,-0.00457278090897389,0.0616558954564942,-0.0594210670134475,-0.160079228440394,0.173214414931189,0.0111727862458079,0.136145876271944,0.138932238863663,15.4245608568663,0.997231141875387,0.95871128062155,0.176464799645689,0.24030490407246,0.153877651193921,0.479783168762808,0.155623830954025,0.039332946996481,NaN,NaN,NaN,NaN,2.08957514186263,-119.371133784789,1.94148045960578,stable,stable,1,0.571711321773367,0.200027587416117,0.20348558935725,0.896399481143251,0.331609932802702
196,1.91877764941857,2.92417669296265,-0.905282760205217,-1.66148711490897,1.91877764941857,0.00413389303751814,0.00493513629765189,0.00643775130942802,-0.0501539947211192,-0.150715793358715,0.162818599747386,0.0105162975553179,0.204172185228473,0.205391865265306,15.4015155106609,2.00054343216836,2.19958320939388,0.0278617656586354,0.051231307695005,0.143557299481131,0.487377516780444,0.0201219951328954,0.00748562652807467,NaN,NaN,NaN,NaN,1.98818975952798,-117.123132335998,1.67740164814535,stable,stable,1,0.552752412898012,0.227395039204147,0.14810217848065,0.953068122129836,0.336196755786164
197,1.92020159759778,2.52400755882263,-0.84699802096793,-1.70965606989136,1.92020159759778,-0.0525401253377201,0.00330640593477632,0.0526440603554557,-0.0399283157267617,-0.154279857181316,0.160846780972464,0.010374795487098,0.134684338132895,0.13711294760445,15.4079242473397,0.991820313057469,0.804910627820729,0.175746181680065,0.24025197257363,0.121669223188506,0.392410085448672,0.155015027573401,0.0412762062389935,NaN,NaN,NaN,NaN,1.96491164649544,-115.571452830696,2.32595345896295,stable,stable,1,0.539476348880297,0.14550775234076,0.171209748756309,0.898009737481639,0.345924789693997
198,1.81232643771816,2.61537718772888,-0.78570367144074,-1.61394644168521,1.81232643771816,-0.0668621227956421,-0.0160183215965827,0.0687541278143434,-0.0363004416438253,-0.13948421754979,0.1461097748466,0.00942368446567206,0.155991713467673,0.158205500719945,15.4218746973362,0.90698222502515,0.826216551050272,0.176115119905184,0.240230649221279,0.128879900395125,0.50734533508004,0.157687682146571,0.035800830839479,NaN,NaN,NaN,NaN,1.88489007794024,-115.359098105949,1.57611070976969,stable,stable,1,0.514928150202165,0.193291342185042,0.199076703540019,0.898324449663958,0.342720044268834
199,2.48108968407813,3,-1.14054584381606,-2.16803516342482,2.48108968407813,0.00796343769917247,0.0057739192545869,0.00983638569531974,-0.0763176757347641,-0.248835802770977,0.265584045401826,0.0171558216488171,0.211716923197576,0.213695703802082,15.3643122370425,2.20028041593517,2.16301772728003,0.0275800148864956,0.0521973419646021,0.148456320522245,0.505110427555949,0.0206529307011207,0.00447856755094457,NaN,NaN,NaN,NaN,2.68563096804021,-116.007396076949,1.55671812308239,stable,stable,1,0.704363056514584,0.118558158459897,0.0819425454060725,0.951926935717204,0.334019413101225
200,1.90817327596046,2.75703692436218,-0.840641196249117,-1.69248204178462,1.90817327596046,-0.0658008080072742,-0.00728916225233336,0.0662033097416663,-0.0413711155139495,-0.1542364679161,0.161904886330376,0.0104419607539956,0.159706797051711,0.162190370441461,15.4665350680705,0.833146743035832,0.809068765353253,0.176775996991758,0.240231963763393,0.127321498006878,0.387847338279121,0.158872446460979,0.0370360823961544,NaN,NaN,NaN,NaN,1.97177383483815,-114.893051128023,1.55850975512692,stable,stable,1,0.541284281011081,0.203131594343027,0.20595659913657,0.898708879652492,0.343412667552499
201,1.84613865973965,2.59999775886536,-0.78100114763122,-1.66105496844582,1.84613865973965,-0.0482084588505528,-0.000901991960382195,0.0482168963563815,-0.0341001719965579,-0.14568988469666,0.1507327891636,0.00972395156128106,0.123093463145357,0.125562806558543,15.3440479777858,0.962005405076713,0.882868824701364,0.17578109953029,0.24022938892505,0.13594373065802,0.436523925338689,0.15684568936809,0.0401203951478937,NaN,NaN,NaN,NaN,1.87135485490829,-114.338554000358,2.37346948535504,stable,stable,1,0.51741620390895,0.178458061635286,0.191373266855113,0.897614009858027,0.339580564151991
202,2.34422807709429,3,-0.960205592019931,-2.1071363574088,2.34422807709429,0.00928456653962147,0.00460287723628532,0.0103628979866142,-0.0569143254325813,-0.237791497348496,0.248142794192447,0.0160229254655158,0.227342604384388,0.229206427062461,15.4138192718875,1.99445839344805,2.01813756021203,0.0184055290872908,0.0472076245387442,0.142098300017325,0.427455240444576,0.000247505219841023,0.0106024463072136,NaN,NaN,NaN,NaN,2.45321237213052,-112.912057666969,2.29217703094094,stable,stable,1,0.670968772637637,0.149448547284664,0.0936345657115325,0.959269695820454,0.3368451999923
