scenario_id,mean_wind_speed,max_wind_speed,wind_velocity_x,wind_velocity_y,wind_velocity,wind_acceleration_x,wind_acceleration_y,wind_acceleration,wind_body_force_x,wind_body_force_y,wind_body_force,mean_wind_body_risk,mean_wind_gust_risk,mean_wind_risk_raw,min_thrust_margin_n,mean_estimation_uncertainty,gps_dropout_enabled,gps_dropout_start_sec,gps_dropout_duration_sec,moving_pad_enabled,moving_pad_amp_u,moving_pad_amp_v,moving_pad_freq_hz,mean_abs_roll_deg,mean_abs_pitch_deg,mean_abs_vz,max_abs_vz,mean_tag_error,max_tag_error,stability_std_z,stability_std_vz,mean_imu_ang_vel,max_imu_ang_vel,mean_imu_lin_acc,max_imu_lin_acc,wind_speed_cmd,wind_dir_cmd,hover_height_cmd,gt_safe_to_land,label,success,onto_wind_condition,onto_gust,onto_temporal_pattern,onto_drone_state,onto_tag_observation
1,2.09706102493333,2.83538246154785,-1.28474339869926,-1.63826778721077,2.09706102493333,0.00192634020845961,0.00455654292361522,0.00494700616671095,-0.0881026037939739,-0.143504107370345,0.172613844535536,0.0111387453281774,0.14524632699446,0.146161483073741,15.4144186002874,0.320644174689873,1,14.9605102736682,7.42651472357787,1,0.0717747328300573,0.112032227880748,0.270226572149888,0.933186540407978,1.55580731885717,0.0728492740228824,0.284831247113064,0.149149537608643,0.404071034920387,0.0448132432720039,0.144533091835556,NaN,NaN,NaN,NaN,2.1396688985117,-127.709262372896,2.31472368639318,unstable,unstable,0,0.588448569930302,0.167029274368832,0.172692049571281,0.944018982665761,0.333711316618381
2,2.24535090683235,3,-0.661116157394257,-2.11385013167418,2.24535090683235,0.0116951801178858,-0.00770318660960074,0.0140041537385207,-0.0320515503047433,-0.249163605689878,0.253082857390518,0.0163263998541564,0.226579922970014,0.227998264071759,15.4411986009793,0.240735206399862,1,5.7154305543397,9.52230065048163,0,0.17351263313697,0.0935814367554895,0.0879192518660575,0.83990559184278,1.00764534803594,0.044443928061991,0.323330857703849,0.255480164621988,0.269983460522879,0.00930285283974074,0.0356153220399616,NaN,NaN,NaN,NaN,2.4078142646114,-106.948920050051,1.67365262693684,stable,stable,1,0.644359894636312,0.172363474148117,0.120503711947327,0.963261564298529,0.286453260168005
3,1.86516118437109,2.91175293922424,-1.16346950027464,-1.4233009582801,1.86516118437109,-0.00413381039841827,0.000609348570473738,0.00417847987794717,-0.0785267851697839,-0.117086827260833,0.148522758981368,0.00957942427879846,0.204607538380357,0.204920768110626,15.4442432056885,0.180831887907143,0,15.1012631183459,6.03013004977946,0,0.0398700491578571,0.179818194749102,0.0975741596589314,0.603593513985478,1.05844595890628,0.0762415897073786,0.595902086928233,0.228054841361041,0.298780491413399,0.000482738732339146,0.00525252904502129,NaN,NaN,NaN,NaN,1.93938346389085,-129.159046213467,1.93571742376909,unstable,unstable,0,0.538360469454415,0.23624919948625,0.143874080801282,0.94882032357359,0.298642292728426
4,2.55140072899056,3,-0.785367959838026,-2.39238422143776,2.55140072899056,-0.0218441293820925,-0.0106070440948091,0.0242832323402553,-0.0387627150745838,-0.294020722192834,0.298907476389964,0.0192807731219843,0.21758682969114,0.219422991949262,15.3626572102803,0.2452777747784,0,13.1317600993285,3.09646906556257,1,0.0771808560274451,0.129040308278765,0.0589137083220245,0.968663993080348,0.779663646989593,0.0615667569628684,0.253957164763364,0.333672846448639,0.454758945133598,0.0245719169214519,0.017575893199577,NaN,NaN,NaN,NaN,2.6973243686687,-107.092406890338,1.71144469845774,unstable,unstable,0,0.724258126120668,0.105386761906171,0.0805441429995475,0.955479761489445,0.251700957133938
5,1.98470132953665,3,-1.11507643125026,-1.60805161982224,1.98470132953665,0.00224133727114277,0.00439590243287548,0.00493432375937922,-0.073784691456754,-0.136984224918567,0.162267074060986,0.0104670289163408,0.209869744450976,0.21083655842935,15.398978743537,0.270159101312725,1,8.42087789492872,9.60419991933598,0,0.0426397484808476,0.0530725470204346,0.0656884101993351,0.67271568834569,1.0337355157254,0.0541775495972884,0.360007440936241,0.139950809981511,0.367607380565805,0.026358721175521,0.0151636653811988,NaN,NaN,NaN,NaN,2.00200400724988,-124.398868862931,1.67653257482929,unstable,unstable,0,0.571420999562311,0.229346826876806,0.154837143453822,0.959503394312226,0.337799640008217
6,1.95582659116096,2.8916540145874,-1.1631533357553,-1.53864059084243,1.95582659116096,0.00618528233684989,0.00510180832406,0.00801786541181598,-0.0774521213711291,-0.129315180168839,0.157528132246722,0.0101804249235533,0.201476836303058,0.202635022103208,15.235887800887,0.337072698140929,1,10.1314080090032,5.2500696996881,1,0.12779812286584,0.121563184213553,0.197351212413768,2.67351027308446,1.32542495972658,0.0460128322874274,0.507541900169665,0.218125213145618,0.604813858915654,3.00005030805489e-13,0.0105716199980927,NaN,NaN,NaN,NaN,1.99661919299708,-125.85580820349,2.12074963969247,stable,stable,1,0.562080762063565,0.212031112263115,0.131062892811854,0.945573378455628,0.30305546082417
7,1.83609979147692,2.58944153785706,-1.07521836418345,-1.47209459894511,1.83609979147692,0.00799329985920924,0.00447164793711063,0.00915906534056288,-0.0647385815300578,-0.115668175952177,0.135660169273801,0.00875452744379473,0.133853437936225,0.134567844555635,15.3964058114316,0.306023117307607,1,5.82689183361853,6.13889077836119,0,0.172267128276209,0.0445402447860967,0.254093485589503,0.830484159953874,1.56261927529048,0.0783584425209033,0.430350291422344,0.105868838468354,0.424094472382915,0.0251174392932456,0.0160439736151457,NaN,NaN,NaN,NaN,1.87426200826755,-126.596930639358,2.4385346279092,unstable,unstable,0,0.516540179971638,0.171181054914635,0.119706111525024,0.942017823176914,0.352947182902954
8,1.98300784709914,3,-1.17750392478763,-1.57044102511914,1.98300784709914,-0.00280273235551764,-0.0122620947186176,0.0125783256256553,-0.0751855298359492,-0.124080496913823,0.15017249353796,0.00969191989272616,0.16121212648185,0.161981809023901,15.3777278128079,0.325435483648695,1,14.6197379273677,5.95244581863063,1,0.107809039185426,0.0742861574324034,0.274198307225988,1.18775744404796,1.36360693476301,0.0675691762156031,0.396121121240515,0.175146623840998,0.467049695457157,0.0265183512441294,0.0166343123031165,NaN,NaN,NaN,NaN,1.95332820371371,-127.202212038542,2.03952810071751,unstable,unstable,0,0.561198454364551,0.231129260767397,0.156512331184215,0.946168977487255,0.322157056070668
9,2.50670202519981,3,-0.773936343136435,-2.35176851536249,2.50670202519981,0.00747422914144516,0.0053766120261311,0.00920717427544226,-0.0403307658285132,-0.291896562308178,0.296645606475957,0.0191784345476822,0.212034289067144,0.21428064185839,15.2354757471216,0.176607974646155,0,6.09226335166732,4.27349728156296,0,0.17605660829913,0.157387607157429,0.231732212935074,3.11201650155173,1.21457534572145,0.0461781669968643,0.154667233145878,0.231703397506222,0.515981786700856,2.67597453461632e-10,0.0331672789692239,NaN,NaN,NaN,NaN,2.74487220964884,-106.758294244659,2.18062821024801,stable,stable,1,0.711310001758295,0.11268002628054,0.0796688446033374,0.942916266272993,0.297020712219457
10,2.01617009416223,2.86792302131653,-1.06509737815101,-1.69655622017957,2.01617009416223,0.00681569615484782,0.00769616800750804,0.0102803071975013,-0.0634080908821674,-0.153504528646918,0.168895618926707,0.0108993673039516,0.143200335700321,0.144091482172215,15.3917395264209,0.197950109374552,0,6.11447948562706,3.78717065386766,0,0.137810587598587,0.128227628343373,0.244351412119955,0.718431454258867,1.62029258858149,0.0805537638801507,0.250487271859992,0.111125910576362,0.423519840115767,0.0253048878043603,0.0156560580250185,NaN,NaN,NaN,NaN,2.05126066309477,-122.211439927127,2.48428408503548,unstable,unstable,0,0.566463654877703,0.193529131595927,0.133057207768592,0.941347429151893,0.350610706410506
11,1.89236819204702,2.8733024597168,-1.07615904828734,-1.53366350812696,1.89236819204702,0.00117694220978298,0.00581272160932252,0.00593067664543043,-0.0660028695180091,-0.123234937376136,0.143996714166723,0.00928846746128796,0.155279665436605,0.156070422314431,15.3972868004584,0.285506001739488,1,14.9468404413916,3.38679999495667,0,0.0602324720176675,0.150930779436763,0.266246078766518,0.616104827351206,0.983873130047814,0.0473335314118416,0.252005425172605,0.236007834683235,0.356214100921915,0.0246650501744066,0.0176807478199817,NaN,NaN,NaN,NaN,1.94106924244638,-124.863664714484,1.52817152360672,unstable,unstable,0,0.53584560234209,0.22179750094403,0.150470107932006,0.963761978914515,0.295107629029673
12,2.53867534690079,3,-0.600727737171614,-2.43366550581842,2.53867534690079,0.00684777135067296,0.00747234426011798,0.0101354773549555,-0.0282254952652823,-0.311064879641192,0.313568421389579,0.0202258582253695,0.209377812692438,0.211800863677049,15.4350010518659,0.314778005920224,1,13.3722263595242,7.23871646859275,0,0.0980413251497546,0.111894271837296,0.231803381688323,1.0735931271266,0.844558668913437,0.0314264044349095,0.120518958603229,0.0923473711163041,0.274134944276162,0.00298878575518391,0.00506230758851045,NaN,NaN,NaN,NaN,2.82179955786848,-102.658248237611,1.81405027498055,stable,stable,1,0.719340265242286,0.105656217795731,0.0665629190250598,0.969215605099373,0.358956723948309
13,1.79046669488543,2.6062605381012,-1.00849358823455,-1.46272234418838,1.79046669488543,0.00428729246593704,0.00456961240973061,0.00626595836753202,-0.0576107991261996,-0.111443210090913,0.128097581916894,0.00826263893896951,0.122235435113981,0.122991297685318,15.4018452957018,0.287807797238223,0,12.6203383279564,7.81345171942369,1,0.0589916633653914,0.0888175316684384,0.267940959652621,0.644087664865511,0.994333063022814,0.0504904432243654,0.252326773437296,0.247325777590246,0.354481781629406,0.0245855429810131,0.0164960328512607,NaN,NaN,NaN,NaN,1.81564992585132,-124.856492181276,1.60581332540083,unstable,unstable,0,0.502056044839844,0.184702373757596,0.127746889646577,0.961881472668695,0.290077432182113
14,2.61199034641257,3,-0.778992491059479,-2.46059204969304,2.61199034641257,-0.0111953573093106,0.0190740282232954,0.0221168392395072,-0.0418942373939084,-0.325313847315621,0.330081452515911,0.0213002364140046,0.199899136270649,0.201812883875051,15.3768771151189,0.18455893513521,1,9.109198581398,9.63313690675188,0,0.160216751712498,0.0723895509698236,0.112107821303102,1.11847432018814,1.34732992513278,0.0889844591171476,0.672504853492765,0.111157245227919,0.441152406120622,0.0252177208082639,0.016827256799082,NaN,NaN,NaN,NaN,3,-106.356863714422,2.44861960466132,unstable,unstable,0,0.736893335818362,0.0913569259177484,0.0721410339378265,0.93613359422819,0.350596779898702
15,1.85372069415687,2.66591882705688,-1.058310407018,-1.50589250046571,1.85372069415687,0.00627569696372013,0.00568931335056643,0.00847069411449731,-0.0628693946132242,-0.122225534047815,0.140520908772134,0.00907344709837731,0.13862361289751,0.139369373313679,15.3068044994794,0.231473743986119,0,4.91179751031423,6.46275191558182,0,0.139043239999281,0.123702217175497,0.182667021050236,1.8165853769853,1.35511590303361,0.0820911213962461,0.253244075504875,0.154722181100861,0.478256350507924,0.0260776814186324,0.0210034808923117,NaN,NaN,NaN,NaN,1.89152489310621,-125.328378154295,2.47046569309458,unstable,unstable,0,0.522199393104568,0.184297540490161,0.129806234339986,0.934033929244586,0.331234586177395
16,1.75490903731895,2.67519307136536,-0.943393790179168,-1.46572438349902,1.75490903731895,-0.000485741061600836,0.00772282263134665,0.00773808333983067,-0.0519551043607913,-0.122685594689108,0.135530278920001,0.00873880321307573,0.143040217997832,0.143641024041267,15.4826805705528,0.242370472640501,1,10.6559674719384,3.65783582720729,0,0.102680149512304,0.0860928332772616,0.238885432668458,0.734828920164829,0.416762970862147,0.0823198380241812,0.403240159005561,0.338586205330689,0.356520772438291,0.0571803383750817,0.0651231220360679,NaN,NaN,NaN,NaN,1.91158907974983,-123.148647987168,2.42771642106937,stable,stable,1,0.496703948093306,0.208482556272744,0.174184152771748,0.949791858986983,0.24951724207525
17,1.83533339250266,2.95052981376648,-0.969733422861483,-1.52763372050948,1.83533339250266,0.00276423626356247,-0.00251230132885546,0.0037353259680733,-0.0592855822643173,-0.133293796105276,0.151594163898002,0.00977580163831337,0.193316418458541,0.193609489956681,15.4853587147843,0.155756145230884,0,13.3694084422421,8.16510423364638,0,0.0333808067638011,0.109050924713547,0.209276215473643,0.710723539804001,0.655164702515225,0.105992807198667,0.639116127785004,0.0591480589658369,0.209755223268356,0.0243659475275731,0.0177472249019563,NaN,NaN,NaN,NaN,1.96200270211122,-122.666388364578,2.21010071912707,unstable,unstable,0,0.528144135992047,0.251604004545172,0.168245249067342,0.936271617353872,0.373711973792961
18,2.02548726754529,3,-1.10639029933219,-1.66091910524238,2.02548726754529,-0.00377265025978108,-0.00836824988139104,0.00917935161435858,-0.0715517491740471,-0.141669987284953,0.165395061661595,0.0106674714461838,0.21097290087957,0.211819847120592,15.3832628847743,0.152283022680616,0,5.65000657412261,5.20876394676839,1,0.0927602808117769,0.115974930395219,0.278030807573407,0.675530332961016,0.786789511522429,0.0529528923101577,0.251011977141062,0.32500201200259,0.422549645754246,0.0246155882023937,0.0180140155386176,NaN,NaN,NaN,NaN,2.01539435512142,-123.830694564799,1.66815119511959,unstable,unstable,0,0.582493907436196,0.220948245931609,0.150059760087203,0.96203389792398,0.255554661332182
19,2.62712227460931,3,-0.841375885890412,-2.45366717589375,2.62712227460931,0.00513051301878496,0.00398206601346116,0.00649453720995456,-0.0460923382660625,-0.313359110341262,0.319198185329487,0.0205995540162737,0.193845973640187,0.196359287838192,15.3806703966297,0.222573671011395,0,6.23838115223542,3.1112799608435,0,0.0407752945139242,0.107873612251342,0.144988003928091,1.00671411542763,1.42878661942272,0.0329592523291555,0.13053835304948,0.109863328516271,0.392779698420429,0.00305471955708382,0.00483097435542433,NaN,NaN,NaN,NaN,3,-107.357187901088,1.93152330004534,stable,stable,1,0.739837797463455,0.0850881533680627,0.0541672631047463,0.964384296633027,0.351171853992768
20,1.77229903809678,2.51514601707458,-0.852580085263384,-1.53232311670908,1.77229903809678,-0.00193642698527632,-0.0079040996080866,0.00813784615754446,-0.0418023550817017,-0.119995898821592,0.129862178864493,0.00838082902495966,0.146933664150951,0.14760565176545,15.3926840890315,0.265077739407904,0,13.7479095327788,5.72905459262911,0,0.128600978876347,0.0467040120284361,0.0873467647875417,1.06301744029641,1.20381682330643,0.0650551098301932,0.250136275701409,0.109782636516095,0.396390574612335,0.0246757468087249,0.0164348078686694,NaN,NaN,NaN,NaN,1.75292430226957,-119.550273636708,2.01663744333208,unstable,unstable,0,0.502134207178897,0.168632508732223,0.118122797591415,0.94966160444231,0.351207717103958
21,1.8120337141214,2.71746730804443,-0.956552914893442,-1.51764607832239,1.8120337141214,0.00405722838430838,0.00481135260282274,0.00629366475363336,-0.0524570924853138,-0.1239580671421,0.138220155995919,0.00891940539090748,0.149600991592054,0.15028806334771,15.4151017043887,0.170638769936866,0,6.31266047406762,3.30987884384826,0,0.17592510352655,0.126791803588523,0.264338582482171,0.889676423050035,1.49585825674339,0.075694298957541,0.250968227559823,0.104517599741194,0.398485181945486,0.024121545297766,0.0166206248873023,NaN,NaN,NaN,NaN,1.82710314960735,-122.310740141076,2.32602844638295,unstable,unstable,0,0.513266603101916,0.204876397170848,0.139690388696898,0.943409363751424,0.353547733448358
22,2.6360262876389,3,-0.662438531234849,-2.51877806911943,2.6360262876389,0.00794285637193287,0.00566419276415929,0.0097556161781155,-0.0318216719339091,-0.329626006329313,0.332495796716133,0.021465820194994,0.191977028228027,0.194612917087382,15.242630670783,0.249180913747967,0,4.67629437650027,7.17000120036522,0,0.100336710966109,0.137737870521098,0.120579675253574,1.78845768765063,1.02503881684305,0.0360265132186235,0.12410021114978,0.143279745002397,0.540561440878717,1.67536230554887e-06,0.0285398595816602,NaN,NaN,NaN,NaN,3,-103.513196987454,1.94112789995323,stable,stable,1,0.74186292678785,0.0836826149139018,0.0605884443107776,0.959880699426809,0.336320113332268
23,1.87104965759139,2.60324215888977,-1.03789913592103,-1.53930500543216,1.87104965759139,0.0054042570272045,-0.00111233338253492,0.00551754289244686,-0.059951219450193,-0.122674422174914,0.139490835745442,0.0089975715347939,0.128455933646664,0.129147049978309,15.4517621631416,0.274914849815622,0,15.3272914257748,4.68331993042476,1,0.135346257290435,0.0783162696968113,0.189808328862081,0.885786728069599,0.995358145768449,0.0707923738404902,0.251685502172159,0.122724073003715,0.31479050738991,0.0249066401918498,0.0176747519595486,NaN,NaN,NaN,NaN,1.88087930278733,-124.632218690049,2.17962948566683,unstable,unstable,0,0.524775985353365,0.165754862322418,0.11694971778724,0.949823389071027,0.345455967553904
24,2.65475574573839,3,-0.674270480706012,-2.53376859835661,2.65475574573839,-0.0210854974400253,-0.00230836841773693,0.0212114772480683,-0.0326694990460481,-0.333935008824557,0.337047180619289,0.0217596684575844,0.202715561918693,0.204683694599278,15.3707630531128,0.226659499398219,0,5.72182739929606,9.72897383078791,1,0.179462296598278,0.125193412841464,0.230240751575857,1.89630637777727,1.07694578829748,0.0787089139592784,0.251252615612619,0.225295998804567,0.567698984694848,0.025141639172752,0.0162514287725772,NaN,NaN,NaN,NaN,3,-103.635733958443,2.17337705648018,unstable,unstable,0,0.748871604450092,0.0815687280376758,0.0660249091399173,0.937284276001202,0.299868444975748
25,1.75763607653943,2.61115288734436,-1.00624212465323,-1.410577495362,1.75763607653943,-0.00724457429684358,-0.0102904160942023,0.0125847733445741,-0.0572778658974904,-0.10102819926846,0.121697251747173,0.007852025678195,0.18040320522538,0.181019867774698,15.3749582896392,0.173910810722094,1,10.7093493189174,4.43168580739839,0,0.0788072294844398,0.128272039962375,0.267646529493932,0.582052715030152,1.28157132455521,0.0588956523531928,0.250806147552429,0.153028828392203,0.421351063739779,0.0243750813363108,0.0164765092903532,NaN,NaN,NaN,NaN,1.76072715108059,-125.424728650442,1.83638791631051,unstable,unstable,0,0.504906927298787,0.194348490877615,0.133433921933139,0.955909413512376,0.331987187381243
26,1.854781922478,2.58225989341736,-1.07461749421769,-1.49016941234826,1.854781922478,0.00445484729390124,0.00250823673314561,0.00511242759572007,-0.0638114592469246,-0.118059633189903,0.138087803808239,0.00891076528650647,0.148428523323385,0.149527310582373,15.3987654930194,0.215597925178356,0,15.2251894210481,3.17163625380968,0,0.150442115537098,0.137115441265289,0.248486985459338,0.626382288714737,1.57209036156831,0.0245229172215822,0.0957280943136752,0.240300173976516,0.353493209367961,0.00319378328764838,0.00492869073119433,NaN,NaN,NaN,NaN,1.88801056126119,-124.747033688317,1.58698058323757,stable,stable,1,0.524513974777276,0.164619821853903,0.101983603526277,0.970464827708413,0.293199922677104
27,1.89202115137521,2.7304859161377,-0.977996266398844,-1.60348501355062,1.89202115137521,0.00123246741620372,-0.00763287262518135,0.00773173463358946,-0.0527291244124391,-0.131731130058128,0.144338563026837,0.0093111362004638,0.129707171368114,0.130484254817845,15.4103522688956,0.145029116611484,0,4.28340856634523,9.16008230892539,1,0.113792561466858,0.120976907436439,0.132868929976301,0.887073088491505,1.09781035933046,0.0699366658912723,0.253450859056206,0.139257205041194,0.400448127087853,0.0247041382207428,0.017349423404983,NaN,NaN,NaN,NaN,1.88786131788593,-121.743469379942,2.16831753817023,unstable,unstable,0,0.530635824663625,0.190072056754384,0.131331732277803,0.949436154250048,0.338107908870581
28,1.95682264891054,2.76154232025146,-1.00260709213137,-1.65564841354859,1.95682264891054,-0.00216785488496528,-0.0107648208702587,0.0109809363521981,-0.0570510520187484,-0.136589089217147,0.151653032392388,0.00978250595081922,0.15970245652351,0.160495610652062,15.3981708336337,0.138543576553113,0,8.64055559951125,8.64388780880673,1,0.0976414992736725,0.117604374237073,0.177217980121018,0.675937982956681,1.06199333324834,0.0527161217392261,0.252474913028169,0.205887465736381,0.457132076473208,0.024999236462013,0.0173508340605995,NaN,NaN,NaN,NaN,1.93366507970541,-121.303703794887,1.68697549884328,unstable,unstable,0,0.553918495173223,0.183075097716278,0.127265224594516,0.959986764503062,0.308494459672719
29,2.62424794208246,3,-0.563509415249645,-2.53046157155579,2.62424794208246,0.00659986098988322,0.00657812304689961,0.00931825455254009,-0.0255904399559974,-0.333087063951228,0.335053930188137,0.0216155187094622,0.197212490388159,0.199820048079524,15.409545074701,0.178895792258972,0,11.8619477117575,8.42273187354874,0,0.148928081908881,0.0995978734436341,0.153445905928971,1.05612500827034,0.996393223825802,0.0216110658774532,0.0808665270340613,0.255268983120127,0.364400222228993,0.00311362955804404,0.00496142774352706,NaN,NaN,NaN,NaN,3,-101.47367915972,1.5266731737541,stable,stable,1,0.739763460837894,0.0862525596994124,0.0549395267218789,0.973067538094804,0.286547118613277
30,1.91932527224223,2.86155724525452,-0.857514714069978,-1.68243981274103,1.91932527224223,-0.000587027586877517,-0.0108853826083374,0.0109011997467091,-0.046746907464239,-0.144013857480518,0.155572948204707,0.0100344877483605,0.206820467508859,0.207609579847751,15.4285444996071,0.267238759867081,1,12.3739438689109,8.17981842619319,0,0.0382202682002279,0.031583344472765,0.26196809620946,0.724495154669958,0.893381898342773,0.0547281770311429,0.251137352962194,0.120005857549913,0.347454225422173,0.0243636614233284,0.0171706217627832,NaN,NaN,NaN,NaN,1.90418233211605,-117.468545924201,1.73391119172675,unstable,unstable,0,0.553341988567478,0.214000747214662,0.145472604753915,0.959924020353614,0.34666406331115
31,1.93787238100584,2.79050779342651,-0.986379391310635,-1.6520844614492,1.93787238100584,0.00276422280393325,-0.000104985398691255,0.00276621576232277,-0.0537821319147301,-0.145303826728205,0.157420333650309,0.010157187997211,0.137658981324463,0.138392985029566,15.3956547388924,0.179882688960033,1,12.3586689171119,4.98585185251796,1,0.150869943877612,0.147640950737254,0.0856802590177041,1.39831367286295,0.924204736651375,0.0792973684285281,0.299020031115327,0.186990323030937,0.47457885083694,0.0472234247055073,0.0718121983892591,NaN,NaN,NaN,NaN,1.95361636761473,-120.978689808246,2.2370999442659,unstable,unstable,0,0.544444565274136,0.192350107351078,0.162511779855654,0.942102956853838,0.316893189764028
32,2.44609017502326,3,-0.647875856536733,-2.33212154551436,2.44609017502326,-0.0284021280433819,0.0225468819914126,0.0362635183749087,-0.030819237650779,-0.301603557036485,0.304302601274699,0.0196230498697178,0.188960146453939,0.19067796255825,15.472253199369,0.196310618627356,0,5.36155423169152,9.22672778701011,0,0.0842123752729561,0.0973930652356756,0.170612840616435,1.00322801202194,0.362479199135928,0.0692321182296029,0.41352706998887,0.030222441215701,0.0505594202885659,0.0480507642708819,0.0275475106917782,NaN,NaN,NaN,NaN,3,-103.063417072898,2.41233747192129,stable,stable,1,0.690426305851185,0.131278022321834,0.110139985239795,0.954653384226101,0.986567803904133
33,1.82090222085634,2.5565299987793,-0.84275095722289,-1.59415230685487,1.82090222085634,0.00112819295331064,-0.00665557859959432,0.0067505218935485,-0.0410659160123992,-0.129732906629527,0.138449529185182,0.00893279337174764,0.146040461766182,0.14679500387054,15.3901818715682,0.146342182171697,0,6.82549727022251,3.60944923946094,0,0.0359713635164824,0.0903528085483774,0.26016860450306,0.673718603618327,1.28355545195718,0.0642319370015376,0.251590161045443,0.0804705772080631,0.414243853802307,0.0249671036574335,0.0175171595115936,NaN,NaN,NaN,NaN,1.82477587595629,-118.302001637458,1.99444190794043,unstable,unstable,0,0.514932926335799,0.166753845713149,0.117518674128338,0.952505449633995,0.364235299018639
34,2.58954916119292,3,-0.595306612867353,-2.4839437869479,2.58954916119292,-0.0180472533116563,0.0141537792255009,0.0229354053476129,-0.0288647378113886,-0.334327961969147,0.336881123510799,0.0217694041416779,0.210818785684917,0.212851601122454,15.2330562888651,0.266269428853353,0,9.87429819656055,9.69130676165294,1,0.0333542846746429,0.0516722791116846,0.128093328790494,2.42369725940245,1.04704885949009,0.087076189169702,0.437078955607334,0.202361313204202,0.589592475303875,0.0246274598477525,0.0166659242809596,NaN,NaN,NaN,NaN,2.95266872258167,-101.961285859905,2.30485784949483,unstable,unstable,0,0.73311676320927,0.0965562630453213,0.0749396316394721,0.929191757338136,0.31006163857591
35,1.95869369892897,2.66937232017517,-0.909827956445177,-1.71039564588218,1.95869369892897,-0.000776112744809125,-0.00947207674071582,0.00950381969392648,-0.0477333075488915,-0.146704106088888,0.157393337398439,0.0101594150981424,0.155913690228924,0.156756963339849,15.2620697471108,0.126610944461876,0,14.4294926724911,9.18830377722858,0,0.0844946218328681,0.152035273997707,0.155530869413053,1.41456986738723,0.840871015156921,0.0637005300671897,0.248915467167448,0.125462959478682,0.479922573617689,0.0245308350583539,0.0175277804461497,NaN,NaN,NaN,NaN,1.95785632669367,-118.543232805973,1.9469435526877,unstable,unstable,0,0.553669712382361,0.161645056724283,0.114263365737892,0.950428413746415,0.344238684676141
36,1.76917846570879,2.54396224021912,-0.855744826962277,-1.53508839551698,1.76917846570879,0.00442571907854075,0.00166788783052685,0.00472957071808628,-0.040375558550038,-0.123357721549554,0.131361142960995,0.00847526778420596,0.118499605708395,0.119566077532299,15.4139363390656,0.266894788544079,0,7.73933442109002,7.01737381340929,0,0.0719236035012332,0.0598899476393709,0.161533317754449,0.853457387450104,1.3735766353802,0.0433295317196126,0.158959792843507,0.0938787228844804,0.325270227885466,0.00184048546496697,0.0072939340468076,NaN,NaN,NaN,NaN,1.80194750046987,-118.644695572194,2.24355236620088,stable,stable,1,0.495694139695471,0.175193437229806,0.108586395531253,0.960837109675098,0.358276123162453
37,1.94020095706489,2.86781191825867,-0.803462894794445,-1.74621827667955,1.94020095706489,0.00410268042576708,0.00289598541759198,0.00502182419195234,-0.0384999275269711,-0.162269759640321,0.168893419860072,0.0108969353909936,0.157840528069966,0.158712568209737,15.4257626357348,0.276329537448049,1,4.79620939475081,4.96564307262092,0,0.14828886747216,0.165052682077169,0.135719073868404,0.81696811455757,1.38031652355073,0.0762084210609294,0.251283263374056,0.095547719282428,0.362399020959776,0.0248096246467807,0.0149856370531421,NaN,NaN,NaN,NaN,1.94925992751377,-115.036005485037,2.33460597200801,unstable,unstable,0,0.549129435525918,0.209633134037124,0.142255702830067,0.944631410170113,0.357534346985588
38,1.95900313280739,2.74211883544922,-0.76302727138788,-1.79101724881503,1.95900313280739,-0.00107034409950622,-0.00544468301698355,0.00554889265050035,-0.0332077153178798,-0.162131340096414,0.166632504128844,0.0107509379401407,0.131148447012309,0.132088896040066,15.3980811844912,0.351385790480424,1,14.6500209173974,9.47914993790776,0,0.0336189872009497,0.173800240283192,0.249722687512672,0.728736549059529,1.11061735217255,0.0535516692571087,0.251442046153824,0.219032302541724,0.393368994437751,0.0243478307072749,0.0150772897294394,NaN,NaN,NaN,NaN,1.95556734378663,-113.09173062844,1.69404287964389,unstable,unstable,0,0.548818614623316,0.177218330080338,0.12263490695103,0.958772099004622,0.302652309981456
39,2.61983004979864,3,-0.531909238140489,-2.53143059800668,2.61983004979864,0.00858167680269556,0.00235541076115559,0.00889905256753159,-0.0240373678047874,-0.333328394806805,0.335048454726577,0.0216262576648604,0.19940941066047,0.202118146098792,15.3947832876295,0.138963492659261,0,6.21734838514394,8.95369502254965,1,0.125266967540075,0.0680470466588223,0.113791492174304,1.13555805416493,1.84124716388678,0.0423556604578897,0.153958901580395,0.151490647872475,0.464984693940107,0.00223657891821632,0.00730555799875333,NaN,NaN,NaN,NaN,2.97839668406099,-100.746107780264,2.19660455117696,stable,stable,1,0.739044975832729,0.0871697317660201,0.0559524406793761,0.955432985914935,0.332670823167789
40,2.16244821072659,2.99769973754883,-0.362439996318284,-2.10987949947302,2.16244821072659,0.00137894604414356,-0.0112647466879593,0.0113488329856663,-0.0126014275046337,-0.22528564407142,0.226060018114776,0.0145831587399072,0.175606193508805,0.176826727224985,15.4098426642439,0.255000273703101,1,10.4420522675784,6.35471242705429,0,0.116097244397071,0.0674517046998795,0.0737726893470853,0.886888801943694,0.905802859950278,0.0642270206884505,0.252806770710544,0.0731275410913564,0.386624158852948,0.0257276588065656,0.0176048548721808,NaN,NaN,NaN,NaN,2.14315727359721,-99.704949465741,2.00857810432931,unstable,unstable,0,0.612018201638755,0.190012212915709,0.131843608182631,0.953801055169465,0.367498870626064
41,2.0621731559882,2.79616737365723,-0.351307715880876,-2.01892333600202,2.0621731559882,-0.00334865985990298,-0.00255139701490817,0.00420988712259697,-0.00984010895187849,-0.208415744961708,0.208859037145112,0.0134749422020409,0.135695785731696,0.136964988950779,15.3880203507588,0.178349101925805,0,7.19343001183334,8.55246632406472,0,0.0573500033924174,0.0633807549348057,0.106983488036588,0.835651834089725,0.986071325188417,0.050789797694549,0.251926970355511,0.234176688253561,0.403445103741562,0.0247233806977777,0.0179575682435792,NaN,NaN,NaN,NaN,2.06610024186884,-99.4944295849637,1.60697491853177,unstable,unstable,0,0.577305839387009,0.165920511614674,0.117070500983664,0.960291562044112,0.295921471887306
42,2.62947947484594,3,-0.715847720063116,-2.49856258874192,2.62947947484594,0.00657230761196696,0.00311235645240567,0.00727200041482054,-0.0353793606566752,-0.324932535635704,0.328424332681266,0.0211979175407268,0.194506377301866,0.19706498771601,15.3752779469003,0.239691978614663,0,7.8017657355814,3.54692883186258,0,0.0715199245270934,0.0819277828542415,0.248100440399269,1.43414140430003,1.39511763242554,0.0390151649877272,0.147338247661291,0.123501639130193,0.410862575094402,0.0013579356881983,0.0225314565398121,NaN,NaN,NaN,NaN,3,-104.488379335247,2.08867565335453,stable,stable,1,0.740607524168785,0.0847003182357146,0.0596169748375294,0.958262525074721,0.345110382608803
43,1.88895491926016,2.57397294044495,-0.285223131398579,-1.84795746526168,1.88895491926016,0.00103145885692666,-0.00606081853772117,0.00614796134671625,-0.00869602413597759,-0.174113461722678,0.174589039081854,0.0112613911906141,0.152780494558245,0.153793335385382,15.3826997810754,0.241893363884461,0,12.7242992898355,5.17781407196757,0,0.0985041945163181,0.127562325991918,0.248130574425704,0.773466403867386,0.707267490487291,0.0562593935582282,0.251735424187823,0.107868522667762,0.347006792032588,0.0249289034429512,0.0175939650555843,NaN,NaN,NaN,NaN,1.89634686321448,-99.0299435298773,1.75788864675211,unstable,unstable,0,0.534479978879786,0.155256181013475,0.110631026724155,0.960235965479528,0.352058434369884
44,2.62018370165408,3,-0.665696770326971,-2.49774528877874,2.62018370165408,-0.0337031706999994,-0.00983891579153239,0.0351099413156184,-0.0292769377070146,-0.321363159224345,0.323991153734786,0.0208972028097197,0.208606009229774,0.210469098892955,15.4055294307845,0.160459026843786,0,8.55804445528487,7.78505332925853,1,0.129576618977563,0.172010892443332,0.0534395284913185,0.994205985615543,0.66055278658071,0.0725279537234207,0.251226234840106,0.359912367013726,0.560318910309507,0.0246450916102557,0.0150116243195772,NaN,NaN,NaN,NaN,2.84909439858493,-103.288186023973,2.03368680795466,unstable,unstable,0,0.740809473553013,0.0918954897023615,0.0715494403502657,0.950734347071033,0.2400389479939
45,1.81524174477448,2.69084405899048,-0.244129197693599,-1.76816697990757,1.81524174477448,0.00368086701421935,-0.0106735669986967,0.0112904302155425,-0.00936463908753599,-0.160613381532899,0.161275031041326,0.0104032570870421,0.191006919689504,0.191868236160628,15.3970430923163,0.280566710562842,0,15.1492907361992,7.21099671841187,0,0.175236394113584,0.132480608281354,0.260602261178769,0.737575765000477,0.802919985879591,0.0599361139372286,0.251300992918157,0.0860464796588286,0.377091706544029,0.0242131289416002,0.016952008767123,NaN,NaN,NaN,NaN,1.79227934712189,-98.4873526901086,1.86431661390351,unstable,unstable,0,0.522438112505319,0.199080432904783,0.13637401720799,0.957928047845899,0.361757120151632
46,1.84319482559344,2.80133581161499,-0.249248966631845,-1.80843033977187,1.84319482559344,0.00478745243152872,0.00542148470493109,0.0072327171374216,-0.00663956265789807,-0.172718032670926,0.173001075006986,0.0111632440808052,0.153271894135828,0.154741952707274,15.4038998251094,0.127589052968133,0,8.4237325909945,3.53181670957152,1,0.0483159957062082,0.0440202386568645,0.112322292828634,0.749536356919722,1.3766740158962,0.0225531010468682,0.0845567884562626,0.236288688022524,0.353760936260998,0.00319282891284991,0.00470748319639746,NaN,NaN,NaN,NaN,1.88430874295808,-96.6306497925403,1.55189405791692,stable,stable,1,0.522467010699707,0.216907719996708,0.13327547914182,0.972017510833012,0.294982805323323
47,1.7703893992278,2.47088170051575,-0.182084804716492,-1.74814149634733,1.7703893992278,-0.00201990701416882,-0.00481005966956558,0.00521696256174699,-0.00421786091875022,-0.157701389913746,0.157837785914874,0.0101791854946785,0.128801195155075,0.129377949863613,15.4071766158813,0.319951393491232,1,12.0040646423219,7.61811722567774,0,0.082645108350475,0.157360950776883,0.2010829002964,0.698750218110197,0.476745763216625,0.0620211517203825,0.296808681928259,0.231799566899872,0.273797839596855,0.0391152655844863,0.0633585770755346,NaN,NaN,NaN,NaN,1.7942306129035,-95.9383136609595,1.68665633598941,unstable,unstable,0,0.497979429766801,0.158567210926109,0.135564371610581,0.959753384286527,0.296977970266723
48,1.64293595740938,2.66803169250488,-0.214084470143268,-1.6038931025327,1.64293595740938,0.00533944309660448,0.00525546024869348,0.00749196336132756,-0.00746969872013523,-0.148430122768654,0.148922305776796,0.00961029444039911,0.171786650032414,0.172078400074564,15.2901916048843,0.28931214175139,1,9.54211447877991,3.85233687132607,0,0.0580402890944298,0.155791929423621,0.117355580026814,1.53948946623991,0.656411363783136,0.116116056168874,0.756768644358716,0.15573146049937,0.540001647185554,0.0244048584223942,0.0173414072260382,NaN,NaN,NaN,NaN,1.77505847970161,-98.1997036075808,2.26708876401213,unstable,unstable,0,0.47253193532408,0.232020067012732,0.156364610214939,0.924688465393954,0.330786017555835
49,2.62271348409429,3,-0.652567446485669,-2.50361554438743,2.62271348409429,0.00736351805615656,0.00537124403006396,0.00911436561664285,-0.0321942995726517,-0.326270329484594,0.329343550598225,0.0212487592928982,0.201995626706117,0.204558226197338,15.4017117362674,0.20962156962743,1,13.4946949528315,5.38024556931216,0,0.0760446751953634,0.138519581513724,0.0729611771191526,1.04581019755884,1.1385085118578,0.0243194431798827,0.0960423647482352,0.234327808641962,0.354610954312562,0.00310184851492532,0.00498166295554804,NaN,NaN,NaN,NaN,3,-103.17867703994,1.62264898123173,stable,stable,1,0.740301907664613,0.0865604331085016,0.0551263730070852,0.970677774264642,0.295854307270239
50,1.80652105511583,2.63743138313293,-0.204437816327772,-1.77707300221615,1.80652105511583,-0.00401360222401148,0.000808441372596608,0.00409421302151168,-0.00564294758640895,-0.164420993951136,0.164665830486457,0.010621433731197,0.151495457946509,0.152436579943632,15.3840603762529,0.172026030876978,0,5.65115320504022,6.77362708210524,1,0.121621003509307,0.123483337445469,0.278119875991397,0.764610205332197,0.69945703836535,0.0470321432065566,0.250447927221307,0.337043147774676,0.437182582422587,0.0248873064606467,0.0148571603186272,NaN,NaN,NaN,NaN,1.82096079078944,-96.2053882192846,1.53219616109292,unstable,unstable,0,0.512226264019615,0.187705429524458,0.129086886560524,0.964980542910527,0.250203045433477
51,1.83381167522766,2.6542022228241,-0.114085910210435,-1.8174255327675,1.83381167522766,0.00254559156115257,0.00148438615989089,0.00294676749471124,-0.00265394632668814,-0.172199913800437,0.172277938199553,0.0111173770440101,0.127963007769075,0.128929723380629,15.4075448818197,0.26840194086839,0,12.2373869502387,3.2769666912934,0,0.108568192139648,0.142334005944193,0.0984162404230751,0.941399889730075,1.37209586997609,0.0785695689108212,0.252650047238677,0.106731412269624,0.381752453776253,0.0245187263453216,0.0183441896016216,NaN,NaN,NaN,NaN,1.8507515569247,-93.8235592237573,2.41226300537519,unstable,unstable,0,0.514802391403503,0.185128113916561,0.128644694459558,0.942537748861184,0.352563816769056
52,2.52525184585099,3,-0.53221963571295,-2.43614858978758,2.52525184585099,0.00715088512310669,0.0108399466104637,0.0129861310851836,-0.0237691997638623,-0.311361235124508,0.313194089389411,0.0202076603530349,0.21151825790045,0.213986554433619,15.3846096268325,0.32442238062503,1,7.16571399977414,4.57509659734321,0,0.080477365621747,0.0800389758863338,0.0675787763378321,1.02866176765263,1.13946660748999,0.0266134442084861,0.0955568314032487,0.215191855666763,0.387530086085325,0.00310335712065798,0.00499726485283264,NaN,NaN,NaN,NaN,2.77719317437895,-100.961436075895,1.69747163511054,stable,stable,1,0.716197803113655,0.109199125382477,0.0687159322801016,0.969657983519636,0.304359175259216
53,1.80622418363803,2.70834994316101,-0.0996971339734217,-1.77666765526032,1.80622418363803,0.00447443252766943,-0.0107561931293731,0.0116497312020939,-0.00392397600728567,-0.162842400531953,0.163067048468948,0.0105264737231157,0.185977753954694,0.18688820179177,15.2389865891809,0.139664411836474,0,10.4503787798844,6.51009053015105,1,0.040106071969149,0.143752363501252,0.193594161290383,1.47513773129871,0.834159953665034,0.067664131226795,0.251422930573954,0.167536836375901,0.53456587198035,0.0243717918227988,0.0189171637864889,NaN,NaN,NaN,NaN,1.7823160694897,-93.8829963932827,2.038741461134,unstable,unstable,0,0.519037422661828,0.205114079946388,0.140779324094265,0.948023452576173,0.325539183832933
54,2.62109216469437,3,-0.574324034413288,-2.52203526873246,2.62109216469437,-0.0286078692289514,-0.0108253220624542,0.0305875428823016,-0.0236839608805761,-0.326863365374501,0.328624573951577,0.0211967563513705,0.210805637992466,0.212910328813038,15.4102697381893,0.23548730890214,0,11.4242424538341,6.25651428838023,0,0.0928857432878662,0.0339005038724602,0.22580584518514,1.03852302066412,0.718143985352463,0.0644404632802059,0.252179619129686,0.0971310956754885,0.350445413766364,0.0244173844306079,0.0161050145274974,NaN,NaN,NaN,NaN,2.84178461070235,-101.224141607748,1.81687152654465,unstable,unstable,0,0.741539976347774,0.0908619791388547,0.0712257272604507,0.953977384741195,0.356830624144227
55,1.7791010138863,2.61757326126099,-0.0884451729475385,-1.75944161208263,1.7791010138863,0.00191041603439288,0.00725811249528894,0.00750532387167501,-0.0024237489360072,-0.166121799119671,0.166220726946567,0.0107228895912386,0.147789299029422,0.14871078791723,15.3972969907519,0.139484166922139,0,9.99237782450263,8.52021772837384,0,0.123446620201653,0.0599623212764231,0.245839389012178,0.927781904395464,1.03964396701044,0.0769416948173219,0.252130966824056,0.0881314947942058,0.38219011295826,0.0244359642331008,0.0182793116252802,NaN,NaN,NaN,NaN,1.81268753267023,-93.1526665262232,2.35088342271337,unstable,unstable,0,0.504169094619793,0.190032231702445,0.131526789978704,0.946070806458864,0.360830446758131
56,1.69387971597372,2.53800559043884,-0.226255665941493,-1.66695536035804,1.69387971597372,0.00219641179804251,0.00746236297636198,0.00777888719403735,-0.00478122292602495,-0.145700428888074,0.145870249409186,0.00941224351743211,0.118175559055134,0.119426473844305,15.3477664368186,0.23208912745665,0,6.83447618657659,4.73724670004204,1,0.0494721454958815,0.0444994853010003,0.159084737292999,0.767718002395535,1.3322401669253,0.0286505982768909,0.108520661560243,0.161146559765959,0.41725177562266,0.00313246554447423,0.00495328853433762,NaN,NaN,NaN,NaN,1.7288427871229,-96.8513027264581,1.76258111676706,stable,stable,1,0.475586552361852,0.19135445107356,0.11800607338346,0.969175029531177,0.328379306770685
57,1.81710682180193,2.6076340675354,-0.150317720458775,-1.79138872833272,1.81710682180193,0.00370658256387184,-0.00555669221998554,0.00667948970584179,-0.00451933793421736,-0.163699826633218,0.163879046274805,0.0105704108057677,0.145938180430194,0.14684501603523,15.4120970981512,0.166963153950469,0,11.1106753354696,3.21620413886467,1,0.0312966200645682,0.0860343186102347,0.222554093703961,0.730755180235363,0.691516677538439,0.0542994863327085,0.250921293622206,0.235306344303997,0.390677330796909,0.0242216824677313,0.0162485651080434,NaN,NaN,NaN,NaN,1.80912450321235,-94.8944011061714,1.71378584805923,unstable,unstable,0,0.513930822354227,0.179093203402769,0.12412968337974,0.961675263665423,0.295419402531557
58,1.65835254725161,2.31992840766907,-0.0892642752353218,-1.64512468806797,1.65835254725161,-0.0037223427681058,-0.00373799583182759,0.00527526762563095,-0.00179158683392219,-0.138554267203766,0.138603647518571,0.00894096584704311,0.114753313327149,0.115560399000917,15.379881804428,0.268029007431837,1,4.18986614318527,3.48792009692896,1,0.051096201826045,0.144012553661422,0.256105989114464,0.687760887227428,0.755557694814968,0.0494049166861962,0.251453672833503,0.298356587603993,0.447063123561371,0.0247041663761252,0.0166593004753415,NaN,NaN,NaN,NaN,1.65786584843096,-92.9146212669234,1.57687779899939,unstable,unstable,0,0.465339425733947,0.14982170099196,0.106930577541255,0.963957181369426,0.267397072176003
59,2.61053387270678,3,-0.65116747114313,-2.49443309277096,2.61053387270678,0.00709934993405343,0.000186170884112038,0.00710179055479923,-0.0314853229300463,-0.3251159919919,0.328004208477915,0.0211666985846228,0.203197718711799,0.205696842199623,15.3969148819043,0.274842816544367,0,9.10446809056854,5.4638520341177,0,0.17731313079928,0.0475302382971527,0.201581948881606,1.07480960144803,1.26214165964801,0.0320769491511559,0.133368997277448,0.0923959671179575,0.432009332584475,0.00305320758933942,0.00492133046787196,NaN,NaN,NaN,NaN,3,-103.288913453806,1.90731519568657,stable,stable,1,0.737281734495065,0.0889318735760214,0.0565056800120202,0.96559976551581,0.958935125725352
60,1.58095589063616,2.41240692138672,-0.11012396942201,-1.5609124027329,1.58095589063616,0.0030706066916771,-0.00508432942426421,0.00593961540416642,-0.00289071034727723,-0.125915865145012,0.12602861869052,0.00813695876017014,0.128191856946812,0.12888584974867,15.2938251881796,0.152123361179905,0,5.14634288930721,4.84939420628847,0,0.0585481349351426,0.150359896996462,0.257217569584754,1.6402339930623,0.981140254476769,0.074321567092633,0.251646590488809,0.157917272986205,0.546309028261897,0.024591323303833,0.016799377136665,NaN,NaN,NaN,NaN,1.57454882872326,-94.5469327829021,2.23056762647034,unstable,unstable,0,0.44736540745271,0.18816541140964,0.129937588283042,0.942242704508734,0.329814545339464
61,1.61965065218943,2.26153159141541,-0.0968309453151816,-1.60631717830781,1.61965065218943,-0.00235051117398029,-0.00279506067505636,0.00365202231048123,-0.00184802422097245,-0.132398879095335,0.132447961209503,0.00854193915010536,0.113609915506517,0.114390651179389,15.4208499208161,0.154964861798788,0,7.91800826330032,8.14003676971521,1,0.0759147063933105,0.16875100296093,0.197923296288875,0.678431551532432,0.48071025808805,0.0520661999832988,0.251796732577774,0.268719159825301,0.518991452615947,0.0245672499532219,0.0170296444194602,NaN,NaN,NaN,NaN,1.61762345460285,-93.6644143083513,1.6427210792449,unstable,unstable,0,0.454784970819725,0.145092748749434,0.10416702497736,0.964859357218475,0.280569262299866
62,2.62367425767743,3,-0.481836002453478,-2.54302340093302,2.62367425767743,0.000837118327832376,-0.00771016682124097,0.00775547803208531,-0.0219515510416423,-0.337977356679557,0.339598506974646,0.0219071770795265,0.19827309175298,0.200862331575489,15.4269094570801,0.16225128563136,0,8.43278670759705,9.69500550808766,1,0.14742684605729,0.102402450788534,0.137202824611396,1.04164761489365,0.992114669253269,0.0514075656904171,0.22454927148694,0.180185413710981,0.507027934613238,0.0146110217429493,0.00900309809729894,NaN,NaN,NaN,NaN,2.97152933216033,-100.613250726234,2.3384777968186,stable,stable,1,0.739818935029079,0.0860951296617942,0.0614247190919506,0.95831665635078,0.319917593906231
63,1.50904441217717,2.307861328125,-0.105312843242963,-1.49454254844681,1.50904441217717,0.00978391266588373,-0.000288926749419522,0.00978817785495187,-0.00218045244054363,-0.122202612364514,0.12225947975967,0.00788524492360602,0.11064688460673,0.111048014008347,15.3570291422999,0.261650045332239,0,5.00438131503655,3.62738925883385,0,0.0343269077277831,0.0377124092059808,0.217081279698099,1.01101671493416,0.563370207773619,0.100109090490326,0.661201084388464,0.237214281288831,0.278232663372068,0.0241186285687678,0.014941041978028,NaN,NaN,NaN,NaN,1.62156253992994,-93.9354210374525,1.80999470145418,unstable,unstable,0,0.424621446048913,0.181528305361671,0.125069479865839,0.937575271790704,0.294571430538297
64,2.6586192201444,3,-0.453559487543672,-2.58385364224376,2.6586192201444,-0.027228534789444,-0.0103676070903944,0.0291355518835796,-0.017209453610229,-0.342464688486074,0.343468792045458,0.0221539872291182,0.205276550323733,0.207452432604495,15.4177850173687,0.170828012312037,0,8.22383400762315,8.3742802433557,0,0.142934023183594,0.0820292932394625,0.0514898760514391,1.03860235355831,0.672086549175703,0.064920288288154,0.283163027154175,0.0970270509985353,0.358962378283741,0.024622364380647,0.0189538187348866,NaN,NaN,NaN,NaN,2.94853364793101,-98.1270015879143,1.82735450886631,unstable,unstable,0,0.750455611892739,0.082152193312833,0.0671268867675421,0.954098728763013,0.356876866222873
65,1.6708968044327,2.44590258598328,-0.0324463423235129,-1.65487972824183,1.6708968044327,0.00202834304536509,0.00903781312902392,0.00926262606741944,-0.000865799284719686,-0.147926576393985,0.147986145505932,0.00954986971466769,0.140166806536013,0.140990272216161,15.4107360507097,0.207240494329827,0,11.9578701418239,8.77473529269743,1,0.171481037707102,0.141385934725136,0.232984234822676,1.35878635702893,1.10164382940907,0.0786351017495222,0.25062507543498,0.204265851631597,0.424307539675816,0.0243899705147053,0.0152037591913039,NaN,NaN,NaN,NaN,1.70415838852487,-91.4034471635259,2.41953036792773,unstable,unstable,0,0.473770535625285,0.17607444896124,0.122013295978097,0.941350497660369,0.309215177052624
66,1.58767198758779,2.5722234249115,-0.181213109265617,-1.55572481995099,1.58767198758779,0.00483616832897143,0.00769896674469577,0.00909189820895932,-0.00484401036475795,-0.130670401385976,0.130915055620106,0.00844614470521935,0.16434977686499,0.165400948389411,15.404835520092,0.209269880062591,0,15.9386999992086,8.55998587332785,1,0.132957881590257,0.0331276521569158,0.225400689183439,0.762895279799295,1.15582848177305,0.0255846916880415,0.0981880973935599,0.232399434930099,0.389729176333639,0.00323124908436641,0.00492349754998692,NaN,NaN,NaN,NaN,1.62915702887708,-95.203704492906,1.67250327592366,stable,stable,1,0.45645938636796,0.22319092140281,0.137141026291299,0.972131967457911,0.296711362253289
67,1.5074329154717,2.35676121711731,-0.0516613764397917,-1.48477273664678,1.5074329154717,-0.00376847801908885,0.00146342597068572,0.00404265286068854,-0.0015336687494779,-0.117706600100938,0.117824560566044,0.00759973914711367,0.162667069686769,0.163309390226959,15.3918197584937,0.227175788953495,1,7.63580004157764,9.20754483214797,1,0.0993395762260608,0.130991750926213,0.17364134917835,0.615591143703175,0.728265933890184,0.0489538989545057,0.250397303821376,0.253234930197908,0.379640329101757,0.0249453852563213,0.0164364670633954,NaN,NaN,NaN,NaN,1.52305422024291,-91.6803892574387,1.58317726442274,unstable,unstable,0,0.434643988837844,0.191840020894723,0.132167747542494,0.964964173484514,0.287451142134263
68,1.67733864776329,2.70828700065613,-0.0907399792216895,-1.64693357320562,1.67733864776329,0.00518179354365837,-0.0112220579186415,0.0123606459482684,-0.00372804648867242,-0.139686108645544,0.13990339448084,0.00902563002333901,0.178795808497814,0.179505378742776,15.3940730937361,0.154053433115237,0,6.88109299664653,8.99265378878847,0,0.129207770571238,0.0325096973389543,0.234649778262743,0.7003268132782,0.953242317558077,0.0570400651042293,0.251333618054705,0.211970554548703,0.371272350319781,0.0243179568871615,0.0158753112743992,NaN,NaN,NaN,NaN,1.65992886901319,-93.675633913439,1.8011254709941,unstable,unstable,0,0.483191381818765,0.234229497824739,0.157118519996999,0.958487638562743,0.305790864645021
69,2.6315091222425,3,-0.469825486372144,-2.55648915649318,2.6315091222425,0.00641258308210762,0.00379280692816461,0.00745027557740426,-0.0203730983153616,-0.339648917633692,0.340948778749396,0.0220011773090607,0.188045176125706,0.190864010577613,15.3741683412196,0.174217087906568,0,12.8411807889016,5.95060453104621,0,0.0447606089155374,0.131378305474074,0.120071817719493,1.07441899025136,1.22088169462723,0.0289194360343127,0.1051571308078,0.167691550939992,0.391623023918096,0.00301601116120167,0.00500544122458642,NaN,NaN,NaN,NaN,3,-99.3718557434864,1.77444253078193,stable,stable,1,0.739908568046855,0.0842763313512957,0.0537264086610601,0.967505776601655,0.325470421804448
70,1.65983083110489,2.57728171348572,-0.0854206662239018,-1.63231983729858,1.65983083110489,0.00435880812112979,-0.0117855066535843,0.0125657222362468,-0.00314222685465006,-0.137106716806525,0.137288411106061,0.00885851112640314,0.180604679967212,0.181333281913428,15.3950182470551,0.156546432433405,0,6.73492009043902,4.0067038389798,1,0.0852748075298566,0.0796880816461659,0.207723548160895,0.941155164557281,1.03604405219342,0.0625500978849902,0.24964583112626,0.146116365156244,0.498937666625055,0.024565909483798,0.0163223681705386,NaN,NaN,NaN,NaN,1.63718820829973,-93.6710336136772,1.95439919903527,unstable,unstable,0,0.47888821134399,0.208730164278997,0.142091687167666,0.953189814354464,0.335059393263891
71,1.73835962764059,2.44705867767334,-0.12969374280019,-1.72067206803385,1.73835962764059,0.00373522152925208,-0.0111465590221318,0.0117557499933631,-0.00303034355256211,-0.14778869070594,0.14787847175194,0.00953999393271194,0.114727214360591,0.11556293077127,15.3110233024579,0.295314185604952,0,4.11277780639427,6.36779726462174,0,0.145322702815828,0.174436603572316,0.246959162562692,1.119282972783,0.527033693008627,0.0641756040503751,0.247442193704243,0.0898377765493544,0.481785362524182,0.02433625217153,0.0171505614009058,NaN,NaN,NaN,NaN,1.70051980624269,-94.7465968646039,1.97918256196667,unstable,unstable,0,0.486675153525077,0.161612507089486,0.114020184112075,0.954976852743592,0.360072099311398
72,2.5864111057492,3,-0.500651985254766,-2.50593737874171,2.5864111057492,0.00370041327193093,0.00541368109353328,0.0065575148772658,-0.0218301751754876,-0.327930283715936,0.329398546513097,0.0212609266832924,0.201943582536034,0.204549473412198,15.4115336892145,0.265818995468575,0,9.95187568532208,4.64587052722882,0,0.100918491514978,0.042305722607705,0.240848360844866,1.01802024290908,1.97354679002873,0.0506385476236895,0.180481470648241,0.112687062835921,0.381198484301934,0.00223501422400122,0.00703723028360839,NaN,NaN,NaN,NaN,2.91093538813022,-99.816427293789,2.49057235907652,stable,stable,1,0.730619522882226,0.094259712267262,0.0601081598458719,0.951175556643644,0.349916860961813
73,1.69779472585013,2.56310725212097,-0.11353353147092,-1.67764250590928,1.69779472585013,0.00095290833912468,0.00587809535822636,0.00595483327585043,-0.00287910215615066,-0.149995665623657,0.15011071358316,0.00968662822788954,0.140913507700066,0.141691056710042,15.4038486494918,0.203284793702593,0,12.0115588168228,3.12130754579409,1,0.0845323088792342,0.0487288879796194,0.258994685093297,0.949439345505556,1.34980150372648,0.0798500473017155,0.252193266615565,0.127236362034682,0.413120192414309,0.0244774644071995,0.0157957364402574,NaN,NaN,NaN,NaN,1.72562512383076,-93.8374795978128,2.46445613050271,unstable,unstable,0,0.48108347156871,0.195787037844845,0.134094999936867,0.942009512533748,0.343450505762364
74,2.66838036317092,3,-0.557721688842221,-2.57050431005812,2.66838036317092,-0.0188750188781872,-0.0050838992616443,0.0195476947324862,-0.0229981180514918,-0.339540470759741,0.341283459722698,0.0220193394969557,0.203648840209726,0.205828561676088,15.4076676667277,0.188544006548531,0,9.6171280581277,5.23837065357927,0,0.147048479788469,0.0570490556813256,0.0505343470635482,1.06552253973867,1.05296584972247,0.0510129019980574,0.251545935491126,0.238637438736536,0.344954460378505,0.0243804363891074,0.0164594695958699,NaN,NaN,NaN,NaN,3,-100.724454534549,1.5,unstable,unstable,0,0.752733809180796,0.0781981623208328,0.063739908569995,0.957848283083777,0.293938916117095
75,1.7965627434461,2.77983021736145,-0.0686224590103283,-1.77410017448231,1.7965627434461,0.00669152889285886,-0.0109221617502451,0.0128089881029877,-0.002533936829571,-0.157900726633811,0.15801546114382,0.0101950675046825,0.148764307571043,0.149631928313543,15.4006370806882,0.238393881073265,0,11.2228641427927,9.6620307211437,0,0.162497709035708,0.178692187216405,0.167947985906796,0.758022079864438,1.16207136795925,0.0635527858940586,0.252325918230321,0.0836000883185585,0.398312567249193,0.0249062541884997,0.0152041897260658,NaN,NaN,NaN,NaN,1.75314324486889,-92.9988255456999,1.98373698975155,unstable,unstable,0,0.509009783915002,0.223583496116501,0.150748340239925,0.953137158534356,0.362844405191752
76,1.6701464485564,2.42474365234375,-0.1431815243798,-1.65286352572903,1.6701464485564,0.0018672563888268,0.00483842290280989,0.00518623009594153,-0.00266490632617471,-0.142954144913228,0.143022622643009,0.00922990412773252,0.115677200767851,0.116855044757387,15.3672971393546,0.355858730564645,1,8.17574213404734,9.95192659432558,1,0.0733144987046039,0.0409528016046473,0.0548251652282385,0.70677888170992,1.4262864780335,0.0232743165367784,0.0800384036368106,0.248269444266609,0.335738216048663,0.00317261629641442,0.00497521007647789,NaN,NaN,NaN,NaN,1.70076581873366,-94.2444526353916,1.53169537013381,stable,stable,1,0.468743395233183,0.170735179703077,0.105660326809679,0.971603042476484,0.289658024770396
77,1.752335014761,2.5660183429718,-0.079623624921951,-1.73173180839203,1.752335014761,0.00487418900236691,-0.00245604058097365,0.00545800822335254,-0.00244082646265954,-0.156848443917867,0.156949584576686,0.0101285655859088,0.145921526816431,0.146762752864917,15.3380732609774,0.283086752728926,0,14.4865308989615,4.41527735490176,0,0.122904632836954,0.135565404108402,0.150305484517088,1.36332509903728,0.817076885571481,0.0753430316397915,0.26975286820788,0.115375163271283,0.435736281354081,0.0349323066843644,0.0545424055984086,NaN,NaN,NaN,NaN,1.75267540990144,-93.0921521707442,2.16652157707576,unstable,unstable,0,0.496641887842584,0.184079383688378,0.145806701886307,0.945196754301035,0.348722149657208
78,1.6776614018524,2.49341034889221,-0.263751034496353,-1.64434436971699,1.6776614018524,-0.00196286276326306,4.67180313943881e-05,0.00196341865170474,-0.0058332617975605,-0.14557863484833,0.145828515678033,0.00940261651792154,0.122029760067185,0.122492054705901,15.4988513060815,0.287022614670803,0,13.1734251054,3.13655273643132,1,0.071252846567083,0.144621980396661,0.223304706016926,0.671051551440854,0.139124156981089,0.0602343539560748,0.438448000090597,NaN,NaN,0.000689980670125395,0.00461736887888184,NaN,NaN,NaN,NaN,1.74654853556253,-98.8045454304196,2.07796573768777,unstable,unstable,0,0.471874784768486,0.183903473170104,0.112327785206358,0.963517156741505,0.4
79,2.60611724056129,3,-0.419457361326622,-2.53929914029461,2.60611724056129,0.00883641547682906,0.00386677827656731,0.00964542444474461,-0.0178440832565711,-0.336864112362111,0.337926990025664,0.0217986581521908,0.203508691853303,0.206155145690484,15.386808817581,0.274417818548688,0,12.9692906099609,4.65564777569966,0,0.141615989680974,0.0738923892091715,0.126544832636196,1.05600122158635,0.778254268440293,0.0262530817229365,0.0982801462986715,0.179654050725406,0.335644436933485,0.00306549365746121,0.00490189678847082,NaN,NaN,NaN,NaN,3,-97.9055764515173,1.68017788427805,stable,stable,1,0.736195626621108,0.0903919486885794,0.0573801187617663,0.972461451716894,0.320153755233153
80,1.63647789820749,2.43344879150391,-0.140715904929011,-1.61937845870183,1.63647789820749,0.00374183715432236,0.0136260240694017,0.0141304592009383,-0.00300203178710614,-0.143302889766881,0.143394935744863,0.00925753471662247,0.115599869082508,0.11636571215389,15.280738552191,0.262330274193807,0,7.94678946064695,3.25786596182395,1,0.0817029587940747,0.10009232392441,0.115149624961664,1.43067475711355,1.15575971960704,0.0810601863636069,0.250995823840394,0.167874044231866,0.529383816077242,0.0248369819888716,0.0159317804421599,NaN,NaN,NaN,NaN,1.69628480395598,-95.2657092073146,2.4863909859963,unstable,unstable,0,0.459667248619441,0.181909035178533,0.12597745447508,0.939147921643963,0.325389313674726
81,1.75180107693923,2.54306697845459,-0.296011138120041,-1.71482906212807,1.75180107693923,0.00164624222597968,0.00446715455390639,0.00476083850546153,-0.0070496681819514,-0.1548200914685,0.155149605957769,0.0100105226601673,0.127955997447029,0.128791059146825,15.4282120593937,0.231522136484462,0,10.6511348183024,5.04287434230438,1,0.1702863790037,0.0968202413323445,0.169717472255332,1.11650339197478,1.16687654859241,0.0770545631157873,0.254079042798473,0.162518079231719,0.386905676039731,0.0247072825579489,0.0183196194416881,NaN,NaN,NaN,NaN,1.77104898685277,-99.7532888830882,2.36587664786429,unstable,unstable,0,0.492905165679827,0.178907648233624,0.124987283207351,0.943531876051935,0.327769742563681
82,2.61667347951079,3,-0.40509122610461,-2.55361511639971,2.61667347951079,0.00475238159639534,0.00382861671797332,0.00610274010678006,-0.0168427064059226,-0.340176086219269,0.341096601672714,0.0220039999657233,0.195318306335491,0.198016064093936,15.4203676667698,0.21240960565767,0,5.29138962445488,5.52646690562326,1,0.105732447825907,0.0646026274723062,0.179507022897587,1.03363745419808,0.990460468689271,0.0280118707081995,0.0985142832692111,0.131760426267029,0.330598557705682,0.00293556385181013,0.00488212374122778,NaN,NaN,NaN,NaN,3,-97.471050396456,1.7546940404825,stable,stable,1,0.737382807354998,0.0873673027963155,0.0555003944471211,0.970090438108928,0.341439810547987
83,1.72934633921954,2.49772715568542,-0.234260953366856,-1.69274902432352,1.72934633921954,0.00540924395567671,-0.00898754317201409,0.0104897975405077,-0.00685949763241678,-0.145282770507957,0.145655578950833,0.00940272435185941,0.142886441179249,0.143710437087053,15.3682352473744,0.151010714196653,0,4.65617317627255,6.14655409212755,0,0.103982445753133,0.0946692699644767,0.196352377608727,1.2387488805915,1.23311741502951,0.064805057716248,0.250641600428922,0.138818783182592,0.432808001425917,0.0243336501507759,0.0149310852023592,NaN,NaN,NaN,NaN,1.71534999253807,-98.7349354691493,1.97721026684948,unstable,unstable,0,0.489901111209287,0.174808813253918,0.121129729103049,0.948175664533425,0.338302763029959
84,2.67587789151727,3,-0.526611236617539,-2.58832134760303,2.67587789151727,-0.0273737899242677,-0.0103903114310546,0.0292793945711356,-0.0219206183218817,-0.342605952371853,0.344126737971281,0.0222031769062031,0.199531190147554,0.201647255203197,15.393044609569,0.221488267803168,0,12.6379519361125,3.43989262722556,0,0.0791047139359231,0.0573781487808087,0.158905847982292,1.06330806557475,0.980758660169698,0.0709157981598996,0.250644512503134,0.0845381825579513,0.43207038711448,0.02420564424275,0.0165015028103474,NaN,NaN,NaN,NaN,3,-99.8806899531268,1.99477744738601,unstable,unstable,0,0.753896888778577,0.0782953634133231,0.0637358286323727,0.948481576646344,0.362427474418688
85,1.94664120151286,2.64650726318359,-0.236358941373225,-1.91792479101322,1.94664120151286,-0.00107638252195531,-0.00964580686241293,0.00970567820198791,-0.00592348522756551,-0.184465997870516,0.184691747691683,0.0119131140870993,0.130585855851396,0.131650700138472,15.3971505373211,0.216274260553938,0,14.9133868378542,6.7514327498991,0,0.0924791506249836,0.0900218332141755,0.152122989581832,0.794259984936631,0.732694169092135,0.0592194479735816,0.250652756435,0.0827264021456624,0.368895913793714,0.0242066078622399,0.0158786190578844,NaN,NaN,NaN,NaN,1.91928845417784,-97.3182776792843,1.86244464938282,unstable,unstable,0,0.545434460431122,0.159249238212947,0.112082078604762,0.958392779088697,0.363232710157483
86,1.72385374877764,2.48955416679382,-0.227359722974939,-1.69698132141552,1.72385374877764,0.00121401866957945,0.00265961191936861,0.00292358972698548,-0.00480791827163939,-0.150549373248707,0.150721670262603,0.00973249410369115,0.11626663258654,0.117509632121337,15.3286027439446,0.124413063969324,0,13.5393407355831,5.70923833281908,1,0.0497518580267573,0.135377489232984,0.159380845707177,1.92342793895463,1.38621621517423,0.0496123862925965,0.173131967208224,0.175775470271884,0.464323928837316,2.2181627793574e-09,0.0196773121858679,NaN,NaN,NaN,NaN,1.74559850451354,-96.6109051974514,2.41005679136509,stable,stable,1,0.483196259431638,0.172818585503589,0.11084653853741,0.949189459928404,0.321877568768052
87,1.91482377481663,2.65393352508545,-0.268978373336019,-1.88158174521828,1.91482377481663,0.00401351283175606,-0.000717557736672501,0.00407715272661316,-0.00704079516789198,-0.184236349527505,0.184530257000594,0.0119041975205945,0.133610995256998,0.134626402613258,15.4218950241435,0.231372330122502,1,11.6867672880642,8.20173640664077,1,0.152667391214493,0.0413871718391558,0.127977668635309,0.947547478039113,1.03886083006008,0.0745416592911728,0.251126617999058,0.135638064439449,0.384307506332389,0.0269044998088316,0.0172265797159944,NaN,NaN,NaN,NaN,1.90999160407999,-98.7042901753648,2.31307004784218,unstable,unstable,0,0.537544953807085,0.167047171810364,0.118450069362627,0.947121676505063,0.339716415804689
88,1.87876408063123,2.67358016967773,-0.209410959716772,-1.84593515478448,1.87876408063123,0.00410953025240709,-0.0136483855317842,0.0142536544969936,-0.00658837078304773,-0.170522973579644,0.170837435783499,0.011018419821605,0.153134451533564,0.154078818926995,15.4086197208103,0.132337231803563,0,13.8875062911017,5.08146449625611,1,0.124289860317024,0.0327647879203119,0.211920514001134,0.814177368089029,0.618664868349078,0.056249684493118,0.251927580442529,0.15762185163912,0.350282942432712,0.0253498712657987,0.0184050333085592,NaN,NaN,NaN,NaN,1.85804652340585,-97.050859497189,1.77163336430108,unstable,unstable,0,0.531819518620394,0.181446790026579,0.126827422852344,0.960617111609999,0.329945843715947
89,2.63489664757132,3,-0.415265657025557,-2.57044210015065,2.63489664757132,0.00310088923271547,0.00233688853834348,0.00388285488709169,-0.0172362477072674,-0.343280745636245,0.344243262563255,0.0222156842599685,0.191746477252635,0.194488165185368,15.4024931698665,0.248999045171651,0,4.82595561892094,6.78808489646118,0,0.158657756344186,0.0527308819024323,0.194652974457305,1.51027415845926,1.21625615290113,0.0430689338269132,0.152124820582134,0.11491703077691,0.390185532111349,0.00261378637273675,0.00422123346522526,NaN,NaN,NaN,NaN,3,-97.63858562104,2.21482480434818,stable,stable,1,0.741536739056093,0.0828601110257528,0.0524127434351338,0.957042794925855,0.348925764099151
90,1.94629969731534,2.73645853996277,-0.399374767170573,-1.88645674982289,1.94629969731534,0.00204969805941809,0.00596953204708931,0.00631162221588147,-0.0126717843406009,-0.189281943039335,0.19016583832184,0.0122708173558197,0.156764697725195,0.15768549078315,15.4079195612783,0.267332343044636,0,15.5121662423373,6.21456953755755,0,0.099735243538535,0.0765111890593137,0.0702514100235523,0.790744403103702,1.44567734039577,0.0782876246049988,0.250010515263729,0.101145162243675,0.379092694911304,0.0244160307313481,0.0162484112084842,NaN,NaN,NaN,NaN,1.97595603721084,-102.204413883357,2.42630161850579,unstable,unstable,0,0.550550350774055,0.178942870335249,0.124125804581803,0.943284302570005,0.355046594558367
91,1.94986890360366,2.71424293518066,-0.409023276059842,-1.89285912765943,1.94986890360366,0.00352526049798888,0.00491209672596335,0.00604616868966626,-0.0122012354111602,-0.190549579959172,0.191265889948599,0.0123416230277797,0.138201653118917,0.139228543135588,15.4125011320266,0.15562351990701,0,10.5849769826688,5.5416189691789,0,0.0805870001040943,0.15993218168655,0.170095763916324,1.0386074564396,1.24355025686494,0.0747478518923656,0.24984056265643,0.103020250249102,0.369059289005196,0.0239077384792899,0.0158955095094604,NaN,NaN,NaN,NaN,1.98269676727326,-102.196075792471,2.30281758438666,unstable,unstable,0,0.547810749588095,0.173092621364597,0.120261419641277,0.944694834877853,0.35421322211151
92,2.62798539412062,3,-0.318185655706408,-2.57786262827256,2.62798539412062,0.0054012946212297,0.00652264181920886,0.00846869764999419,-0.012594075841711,-0.346193259272253,0.346791400840276,0.0223804531542706,0.196595149325816,0.199368759298882,15.3924740954129,0.157292719703143,0,6.40836791255281,7.56990730700566,0,0.0441928440145751,0.174778105669634,0.259636278718881,1.30037935529999,1.15515840585236,0.0319629890387866,0.118021096814954,0.141149487580135,0.420567644885428,0.00103770260897944,0.0108193135615472,NaN,NaN,NaN,NaN,3,-96.1325283262809,1.87633655102363,stable,stable,1,0.740669856958607,0.0852558808920272,0.0555490255353254,0.964724994500124,0.337266894408829
93,1.86495964301163,2.72959160804749,-1.07022461389796,-1.50279571991832,1.86495964301163,-0.0012331208495088,-0.000341297284786009,0.00127948070172848,-0.0657521335252891,-0.125857361450455,0.146547280457601,0.00945511007397777,0.16210362842065,0.162467059303066,15.3450907394169,0.225943070729326,0,9.94981180001162,4.3547439749082,0,0.137349727489101,0.175882994617338,0.173579931849633,1.2901565933586,0.724237131519321,0.0870824927298349,0.538190259003314,0.327224156027131,0.494881093160222,0.0011246588801864,0.00484698133578654,NaN,NaN,NaN,NaN,1.94231362243633,-124.407068044808,2.35035182404085,unstable,unstable,0,0.529815983330381,0.194776763595051,0.119128445215784,0.940631374368185,0.25456704176572
94,2.63740038078924,3,-0.105927721018135,-2.59959769581547,2.63740038078924,-0.0151605341520586,0.00133784108695419,0.0152194485626016,-0.00405343938819754,-0.355392542055047,0.355703247625357,0.022957050486456,0.207128020267696,0.209334617249731,15.38929908553,0.211308835927596,1,13.3880231174258,9.5961960818218,0,0.1150995634425,0.174104298788264,0.206668941038269,1.26593725187138,1.25578584226107,0.0815005270190279,0.249758010070432,0.116699865446397,0.409017314840114,0.0243070475256043,0.0169832694291915,NaN,NaN,NaN,NaN,3,-91.4563513127585,2.27611911601078,unstable,unstable,0,0.745173691660411,0.0843751465588973,0.0676039545068281,0.939436197893731,0.348133393134935
95,1.96252893355855,2.84344172477722,-1.16946973621967,-1.5397158822911,1.96252893355855,-0.0040054409264833,-0.00757237362727664,0.00856646948086679,-0.077743814376491,-0.122828004255787,0.153064255540216,0.00989030786252218,0.208386327828721,0.209172122856284,15.2297707103507,0.210155633934198,1,7.93891588476564,3.12612890778989,1,0.105523798849424,0.0308200285958239,0.210859726264782,2.26076757725081,0.872966645593119,0.0673874128181377,0.246505334101328,0.207144296122879,0.587815996420003,0.0247432452454319,0.0137069505598915,NaN,NaN,NaN,NaN,1.96331253915621,-127.216824388755,1.97596253363979,unstable,unstable,0,0.565175473520203,0.199775897429027,0.135846882002417,0.941684096125729,0.307935868389831
96,1.81613362473389,2.62798285484314,-1.0893413399782,-1.42965577756377,1.81613362473389,0.00759765982168652,0.00480320478381954,0.00898861563097324,-0.065308490539289,-0.108836113016494,0.131311344508991,0.00847040819039992,0.147114547810674,0.148108819293976,15.4098502451074,0.381256122896205,1,6.82957181777708,9.93818548425138,0,0.169564800453477,0.0558442250358161,0.255846395451814,0.695874035047211,0.979786802523542,0.0311869205893587,0.109377920733897,0.0859032314987105,0.349502928732374,0.00303266505397345,0.00513001368045307,NaN,NaN,NaN,NaN,1.85410920649287,-126.007447320558,1.89415831618684,stable,stable,1,0.513924063787833,0.18431398964026,0.11380170443942,0.971240633124408,0.361820786000573
97,1.86601416594827,2.64195346832275,-1.10077474658047,-1.48427635351379,1.86601416594827,0.00819355839055495,0.0105338096782302,0.0133452443003719,-0.0687476254891671,-0.120619786723149,0.143464572503445,0.00925804189702251,0.152519389937903,0.153255362872585,15.3846300521498,0.170054811072335,0,4.23730061685841,6.26957159475177,0,0.139664629220963,0.150390472804519,0.101446372505719,0.630743847709486,1.63087208878518,0.077550991877155,0.250742086532968,0.0985613366090856,0.414412583678044,0.0250137299274899,0.0186742739785917,NaN,NaN,NaN,NaN,1.90035395314852,-126.506742732756,2.41662250225388,unstable,unstable,0,0.528254850160723,0.177032971155993,0.124127641077827,0.943454664560393,0.356194961507073
98,1.84702423859837,2.81665062904358,-1.08844340578578,-1.45781278687643,1.84702423859837,-0.00267812452479847,0.00420823939820003,0.00498814893551606,-0.0698164977879983,-0.113118132555553,0.139681779515993,0.00901412201233413,0.19427621376597,0.195037604660584,15.3987802990628,0.167920771850383,0,12.1584361365481,4.8419033382035,0,0.172141165221051,0.168498069543448,0.163476618318948,0.597958253489867,1.56062706009439,0.0473544612333033,0.251497488676941,0.22504789828172,0.320839305091777,0.0247356456737852,0.0165582185521235,NaN,NaN,NaN,NaN,1.87571237254526,-126.343170425654,1.5,unstable,unstable,0,0.531547317891683,0.219080431821682,0.14846304977506,0.959362456205186,0.299978711874791
99,2.62413518125796,3,-0.160196233491338,-2.58698503398883,2.62413518125796,0.00444557090926004,0.00502062313626796,0.00670594940226127,-0.00599698615558879,-0.348103930625149,0.348393696445867,0.0224792078713212,0.195850397412944,0.198650491499122,15.3698992841153,0.121947246609491,0,9.62384418228459,9.80838191200107,0,0.0868676735056921,0.073726446405618,0.113212197696174,1.08386426160282,1.09649692813841,0.0294126567674715,0.115261445880602,0.153082120386456,0.367478819662265,0.00310700747082274,0.00504044666412223,NaN,NaN,NaN,NaN,3,-92.1609099733914,1.83102223168722,stable,stable,1,0.739499479968613,0.0857990082740411,0.0546931868697237,0.968162262268297,0.331963502050464
100,1.74640948752053,2.68014144897461,-1.0756208056014,-1.34232776829884,1.74640948752053,0.00395650246241749,-0.00250124770846193,0.00468082811414836,-0.0676939410119349,-0.0969507715323284,0.124735492713038,0.00804811832857399,0.187406782237379,0.188077608685285,15.3739553671547,0.160270322020097,0,12.2831920732125,7.92859373667899,1,0.0337285483375746,0.0812104670017591,0.0977940295225304,0.60761124190225,1.32437887240517,0.0703948170783199,0.25093517064432,0.0992446769195218,0.433823775825437,0.0246111638913192,0.0173712034201486,NaN,NaN,NaN,NaN,1.75491467611123,-129.314874842222,2.18048210758403,unstable,unstable,0,0.503324718409198,0.210947843148096,0.143823802195356,0.949622669134139,0.355891254702435
101,1.8014125765762,2.626380443573,-1.12653363446881,-1.38031589725401,1.8014125765762,0.00638192371348886,-0.00126793049440278,0.00650665797652128,-0.0720135208514832,-0.101894609957915,0.129701196404995,0.00837171731966134,0.150695740759202,0.151395525736915,15.3764646507049,0.195219990949875,0,15.5065570123248,6.85677858574861,0,0.1605236287094,0.168887930805087,0.140438697988459,1.08182887976236,1.53462152552747,0.0735723264874945,0.249940322522105,0.135782863136236,0.421823629738789,0.0249218234724695,0.0166391087891488,NaN,NaN,NaN,NaN,1.81348529686832,-129.706905071318,2.27640107666613,unstable,unstable,0,0.51065579223437,0.186810657369975,0.129213345423985,0.942656012143261,0.33965206082834
102,2.62855039272819,3,-0.212421603027569,-2.58909359594848,2.62855039272819,0.00408880779127901,0.00609606118725935,0.00734032091620209,-0.00788291608710794,-0.348313114200298,0.348659393601017,0.0225408869890974,0.197317453387631,0.2001880017112,15.2181729069487,0.264086909013905,1,13.071078550302,3.22029145041798,0,0.0754352674268538,0.0870285889818173,0.0782180542860663,2.69315502165523,1.24658697693824,0.0438179627428622,0.130034295475659,0.212080034986408,0.540764161874784,4.30419332839131e-11,0.0273922891682403,NaN,NaN,NaN,NaN,3,-93.3463396367176,2.07907451186505,stable,stable,1,0.740984371736423,0.0849218871374617,0.0609139647264214,0.947135902925335,0.305742206672708
103,1.69701947038676,2.58692288398743,-1.08076995057372,-1.27898161558556,1.69701947038676,-0.00204291918986363,0.00858844310698865,0.0088280730523877,-0.0674432095649435,-0.0897724262624039,0.118240050323946,0.00762668240805203,0.179541336482933,0.180195322915567,15.4147345604229,0.155562733089123,0,11.7227483848925,8.9613790724356,0,0.133934522634917,0.0591649162992296,0.0784038180691375,0.528187298874148,0.942664715947077,0.0463308023880643,0.251582069624427,0.235939764600829,0.297258535760134,0.0250481598326618,0.0158772852984229,NaN,NaN,NaN,NaN,1.72654575195328,-129.444915076368,1.5,unstable,unstable,0,0.488577590019584,0.201846748119753,0.138014122643371,0.965277904403801,0.295137882399632
104,2.6816296630964,3,-0.222661316102372,-2.63625987496694,2.6816296630964,-0.023866526673378,-0.00920771755750954,0.0255811093987327,-0.00742095416772718,-0.354724901879243,0.355110361874883,0.0229096626778434,0.204044652841588,0.206349162528535,15.4097179991413,0.196457668495502,1,15.2409893874205,7.0190179770864,1,0.125998940833953,0.0789568036084067,0.151457161083665,1.06342784307829,0.866006953138334,0.0627976478358686,0.272402752249812,0.210079199378951,0.428195525792425,0.0245179039920317,0.018397595945299,NaN,NaN,NaN,NaN,3,-93.2924416519869,1.77454493056849,unstable,unstable,0,0.756371075998081,0.0763231958597439,0.0633807986237267,0.953441331254649,0.306631466942688
105,1.78240867718956,2.48618078231812,-1.0732986593423,-1.40195150899164,1.78240867718956,-0.00375830653595243,-0.00498130551839343,0.00624005390086973,-0.0627659884483281,-0.0997328630607728,0.121747717717878,0.00785202955866286,0.145792483329076,0.146457032851946,15.4005462793687,0.269733286179917,0,5.99020846854557,7.73930797299504,0,0.148604458739472,0.052590498187469,0.214560551898896,0.589326653010861,0.848275000395692,0.0572538562791413,0.250544260837826,0.0790118997759159,0.33383047128996,0.0244594736902256,0.0158158879431422,NaN,NaN,NaN,NaN,1.76944401401711,-127.2708966815,1.79663413071434,unstable,unstable,0,0.50460038715427,0.159492733535752,0.112317749296432,0.960077630297949,0.364883600099593
106,1.72357011120455,2.40720367431641,-1.07368306346837,-1.33494666814734,1.72357011120455,0.0078268475741505,0.00423240629825816,0.00889791020535277,-0.0616993568127063,-0.0939673829562752,0.114834601751184,0.00740874639534865,0.11709604256728,0.118027361684209,15.3911525171886,0.227984532408596,0,8.26331648876418,8.4886609652693,0,0.0735736816264904,0.117171229964243,0.0574368696786837,0.578778010505281,1.28495297675242,0.0308041206087265,0.115482288876475,0.0856321881998499,0.389123627351173,0.00303753963347113,0.00523682310735903,NaN,NaN,NaN,NaN,1.7686972036879,-127.77706983327,1.89181098085422,stable,stable,1,0.483224168658055,0.155448835237816,0.0965236180693325,0.969954339081469,0.961941249688956
107,1.56634098554552,2.29229092597961,-0.902188575737152,-1.25911624411539,1.56634098554552,0.00276525610451647,-0.00460061331992954,0.00536770754075506,-0.0462373264236279,-0.0807260366234209,0.0959159622146115,0.00618689740155481,0.128555846872172,0.129050323247246,15.4156737895368,0.186523987991332,0,4.08338433858075,8.12337553797585,1,0.0736561611771277,0.055760701975788,0.132617411888446,0.571952926926054,1.0296353180083,0.0571576248105852,0.250998315267963,0.124387076581997,0.406136823650325,0.0242576101072578,0.0158565287124657,NaN,NaN,NaN,NaN,1.56362962757819,-126.213274791377,1.79241618006697,unstable,unstable,0,0.443500994128255,0.164322816313476,0.115140860276652,0.958837279955937,0.344716854852446
108,1.59946977660115,2.35112524032593,-0.948727133638556,-1.26928471504649,1.59946977660115,-0.00172621706112544,0.00138311286588858,0.00221197344963883,-0.0518865796009154,-0.0878600046192117,0.105111535129866,0.00678034422135929,0.137901031463289,0.138193769465359,15.3842339341885,0.247814030202023,0,4.29547005508984,5.29677719733359,1,0.093673470770109,0.178754653657062,0.11375826060298,1.03019085311165,0.805815531236829,0.0744815934395484,0.295286388275837,0.353208116623038,0.522394905551909,0.0396249294448843,0.0618800303707909,NaN,NaN,NaN,NaN,1.70099448076972,-126.23559516376,1.82017519216161,unstable,unstable,0,0.454164027653379,0.169528007803841,0.141829713661329,0.948333438831773,0.243018614834205
109,2.62275580299339,3,-0.454359765880587,-2.55159487442795,2.62275580299339,0.00434177644307608,0.00633284363534952,0.0076782765769043,-0.0193592420085443,-0.338603465064817,0.339822433512047,0.0219211253239704,0.194985745366613,0.197686752204131,15.4088503187587,0.226159967699137,1,4.26948517528512,6.6571406814284,1,0.17477347523545,0.12042310299519,0.233603421993239,1.09274010274461,0.801979757780831,0.0334235804459669,0.130785546419873,0.218236928737706,0.482409754455514,0.00302192681392307,0.00405974638505915,NaN,NaN,NaN,NaN,3,-98.910745007038,1.92403057760443,stable,stable,1,0.738938897905731,0.086287628365586,0.0545919270160662,0.968401125158602,0.303005809449908
110,1.76034514148251,2.55463171005249,-1.06664424482965,-1.36999221541376,1.76034514148251,-0.00738844341003202,-0.0084575131560816,0.0112302548861786,-0.0630042379478335,-0.0967477701756791,0.121376722377633,0.00784380331291421,0.184133972915797,0.18475468792007,15.2459657918006,0.22762836706093,1,4.16256238933536,4.86697939623741,0,0.131310941164418,0.0534653602342141,0.220706560714541,2.41287776117011,0.764913532344225,0.0700610767818819,0.247850036350045,0.201600235594324,0.53403694268265,0.0246536623423829,0.0172661898833391,NaN,NaN,NaN,NaN,1.72926744399254,-128.300304784031,2.01619146043073,unstable,unstable,0,0.506376308646016,0.180773357990712,0.125699812560741,0.940001101445732,0.310399895291412
111,1.76671052033128,2.71509647369385,-1.03343384552609,-1.39869683196102,1.76671052033128,0.00152850698151842,0.00483661046323691,0.00507238941384071,-0.0644233125353664,-0.105140484676751,0.129455410797761,0.00835050822621768,0.189287833264747,0.189988347922571,15.3871978978811,0.272014713631127,1,13.5349578865945,3.48751594594345,0,0.0708287680342146,0.152933758891475,0.257702664367518,0.638410236090703,1.11550229335404,0.0464781945546866,0.253889868581508,0.190072757475312,0.26899042672004,0.0241329658367591,0.0163273011747617,NaN,NaN,NaN,NaN,1.81523472928788,-126.340586099222,1.5,unstable,unstable,0,0.509120475006189,0.214316777565782,0.14525302956077,0.962980161419877,0.315523218899861
112,2.62432834695414,3,-0.450176591727645,-2.55377707717726,2.62432834695414,0.00830684694664545,0.00205835057499898,0.0085580671465344,-0.0191137496386617,-0.338921882765808,0.340075167614939,0.0219468255707607,0.193498412087719,0.196256754505221,15.3634052503962,0.355417890702704,1,10.994206566764,9.79209839009372,0,0.0801469227136167,0.111564815741915,0.159890440810947,1.10345634511234,1.4069651510595,0.0216371979794306,0.0792794777965259,0.251689732590662,0.333292133026237,0.00306215756794844,0.00471221798502687,NaN,NaN,NaN,NaN,2.96729568504797,-98.5728576137469,1.51972330237847,stable,stable,1,0.739072243422149,0.0860951009121828,0.0547315532791349,0.96945666068322,0.288137896626372
113,1.95337268399156,2.95177292823792,-1.10101965627678,-1.57688729076759,1.95337268399156,0.00018215107190031,-0.0119070367755955,0.0119084299464026,-0.0708089782621366,-0.128287953476103,0.153503766191366,0.00991115367571012,0.2068897459338,0.207623391247636,15.2277378663433,0.288069547657386,0,8.44250851057037,3.07372795641748,0,0.117779563714229,0.046902409748678,0.197407002626466,1.65862924050642,0.809112050438469,0.0666706252826852,0.24926435033037,0.143561901166285,0.540518465398085,0.0247546636188798,0.0171014127650105,NaN,NaN,NaN,NaN,1.93223126337264,-125.804006762773,2.01188732918198,unstable,unstable,0,0.562424060647275,0.226823267112271,0.153314728537778,0.947275291501233,0.336194710592762
114,2.69233158820927,3,-0.384463409101012,-2.62885806195703,2.69233158820927,-0.0278232694023314,-0.00820096873514844,0.02900672695134,-0.0140500404429051,-0.352702409032115,0.353443731813337,0.0227994783160238,0.195979432342398,0.198272919640689,15.3949608503601,0.216059615428189,1,6.59992020065787,3.82093736099107,1,0.16798464112747,0.123969081529888,0.169473808141389,1.09611772935598,0.818896304654636,0.0656357138002996,0.251088680908895,0.168423737110211,0.384968341770155,0.0244908070670311,0.0162625618358392,NaN,NaN,NaN,NaN,3,-96.7638294594719,1.85651049487981,unstable,unstable,0,0.757609674117275,0.0745432925939943,0.0615244375466953,0.952135604261195,0.325145005728795
115,1.78105650525287,2.51177716255188,-1.12890215698662,-1.35459014294803,1.78105650525287,0.000996783951747762,0.00874718952375779,0.00880380047541969,-0.0715714052910304,-0.0974222864937442,0.125523395412623,0.00809720024797906,0.153948429050448,0.154685925541628,15.4165987169041,0.277347930248631,0,14.524020014354,9.71767404390162,0,0.0424394239746261,0.140334760536437,0.242031416787331,0.5861306894988,1.13235170844963,0.0476918587129036,0.252961317077909,0.213134320662806,0.339655732101074,0.0247742555590679,0.0160859216309791,NaN,NaN,NaN,NaN,1.81906071923281,-129.474338611017,1.52975115312212,unstable,unstable,0,0.505885586509092,0.166026177979437,0.116475913083766,0.962651708945382,0.305273635260975
116,1.74947354526424,2.77110958099365,-1.10475013895882,-1.32599074853555,1.74947354526424,0.00719295156198618,0.00128095450289293,0.00730612048980587,-0.0694488154608005,-0.0964543022494056,0.124798375843896,0.00805256649397171,0.183069663048803,0.184029479726421,15.3934361125214,0.25827862403327,1,6.96821847943783,3.5539178643159,0,0.0480018039546535,0.143956089882111,0.122199241971791,0.607122543953268,1.40726779440765,0.0363682237299907,0.125002493122453,0.0742232658380591,0.39152622960047,0.00302359324663546,0.00523482965480923,NaN,NaN,NaN,NaN,1.78140716467364,-128.268739059015,2.04118298492477,stable,stable,1,0.503332174682415,0.231207563462249,0.141971931718007,0.965988535476455,0.967011881849752
117,1.83874995597696,2.56965327262878,-1.10855676437275,-1.44939774374462,1.83874995597696,-0.00161345233557415,-0.0113162345266395,0.0114306776833694,-0.0659759352364316,-0.103210210437017,0.125391221916074,0.00808812891068469,0.119195145984621,0.119909126603204,15.3994336191662,0.256622810554096,0,12.8516607870232,5.6060280482284,0,0.136641497065586,0.0718104663136015,0.240506037582836,0.598859129846133,0.998869629339889,0.0556216924710977,0.251532687319617,0.149850119389362,0.358648609375185,0.0240743154256245,0.0152696471799876,NaN,NaN,NaN,NaN,1.80405508233153,-127.883265151708,1.76619900358704,unstable,unstable,0,0.514315146914496,0.166548870488612,0.11618161701243,0.959635570656561,0.333399946938061
118,1.81364246380513,2.72388100624084,-1.05608254810823,-1.44019926076147,1.81364246380513,-0.00206182543293528,-0.0130210029651245,0.0131832333793224,-0.0642462898040749,-0.105330468652098,0.129346085875619,0.00834314325990114,0.186562927457296,0.187270478222461,15.4072959372188,0.146685924772564,0,11.3482846412121,6.2189490485415,0,0.0961291373077309,0.0735211547303732,0.178820936608866,0.579543206527194,0.991681324724427,0.0571893917757704,0.251085312678728,0.115576112555365,0.402444138536996,0.0248793313411744,0.0170027155716628,NaN,NaN,NaN,NaN,1.8005551772584,-126.745983901943,1.81240975211508,unstable,unstable,0,0.521092085992528,0.207220598167578,0.141572645159047,0.959059968509423,0.348632838864282
119,2.61759835222493,3,-0.443472332446314,-2.54413813432886,2.61759835222493,0.00615128328739922,0.00531289260843249,0.00812804490333152,-0.0195870248402985,-0.337054176208453,0.338279596709255,0.0218555781656602,0.207286708888914,0.209967372181616,15.2541561886249,0.221021736376084,0,5.12694295661403,6.74717142771651,1,0.135769484992472,0.0556176824715801,0.122971416619587,2.37615558765594,1.38917848221512,0.0488588366284534,0.165502918743196,0.214814424880278,0.597060110987931,0.00206422878329256,0.00546968483671077,NaN,NaN,NaN,NaN,3,-98.5472955700195,2.36182354729459,stable,stable,1,0.740019701696305,0.0875305123150014,0.055424718708056,0.945985813993929,0.304526922275432
120,1.71029408416289,2.44687008857727,-1.00817114678245,-1.3668429941541,1.71029408416289,-0.00112064119756477,-0.00638238742609108,0.00648002360724132,-0.0549648798539801,-0.0944253935604346,0.111661665445334,0.00720624436974431,0.115297933883789,0.115885665068421,15.3127230465444,0.121667373349212,0,4.45236845022332,9.66283371947379,0,0.0545043698013028,0.175262210851281,0.182466460996441,1.28956408806513,0.713393536692705,0.063401022649424,0.251901294294733,0.125397652052401,0.469518749278802,0.0244125381143899,0.014185168063764,NaN,NaN,NaN,NaN,1.69953700690408,-126.726927999258,1.91812232570011,unstable,unstable,0,0.479255555457122,0.16691760532123,0.116158823064745,0.952561964480762,0.344267710198933
121,1.59641325610951,2.28242516517639,-0.861571833180938,-1.3318982013923,1.59641325610951,0.00607662328777993,0.00528174844223587,0.00805122457696035,-0.0414310579532166,-0.0947099314029421,0.105167763633442,0.00678632916648555,0.107561207463097,0.108124426189486,15.3833531289985,0.33740664152515,1,7.05200425770092,9.67442960052292,1,0.0455465008615561,0.107821431615662,0.182859511240529,1.00302764364084,1.26716816617155,0.0800243710583939,0.252257728464971,0.116922011327839,0.383568106815309,0.0243545537509193,0.017230310265031,NaN,NaN,NaN,NaN,1.6281175232469,-123.046018113821,2.44779732498778,unstable,unstable,0,0.4473350868671,0.155828737379158,0.110587055908117,0.94215056167942,0.348034661632072
122,2.61894356726005,3,-0.432970780313007,-2.54791901902979,2.61894356726005,0.00523310920147554,0.00144912759604562,0.00543004628932286,-0.0190567416291564,-0.338617746971302,0.339805333185768,0.0219204903846254,0.202967958842413,0.205604953400634,15.38435657605,0.202106743167166,0,8.47530331186,8.96704298801325,0,0.0857606731790121,0.0915098392521387,0.0815901485463936,1.05072179263463,0.775282865387799,0.0217381435389608,0.0782650031279901,0.249912258191927,0.295206119086949,0.00308021722201804,0.00497290004829662,NaN,NaN,NaN,NaN,3,-98.4223369875654,1.5,stable,stable,1,0.739505941949474,0.0867332058528639,0.055217236234016,0.974783748774629,0.288927885248033
123,1.53883812765907,2.57639312744141,-0.887162835613664,-1.23133972410836,1.53883812765907,-0.0045564721035852,-0.00268885138020217,0.00529068613466772,-0.0476550698230342,-0.0839222679452185,0.100678534398373,0.00649146601179954,0.169953136104166,0.170174339625506,15.4996614540095,0.227361191647919,0,13.4612403624917,5.29042254478065,0,0.126839213191521,0.0951976826254663,0.151494170668693,0.512878199675848,0.372137367713188,0.0480073665077082,0.28469923519422,NaN,NaN,0.0424398920316382,0.0621568532401873,NaN,NaN,NaN,NaN,1.60994475744194,-125.481401659111,1.5,unstable,unstable,0,0.44439170196752,0.234419834075715,0.182116566769053,0.969042623002375,0.4
124,2.67867523431778,3,-0.453958962825493,-2.60095476242914,2.67867523431778,-0.0265397745525705,-0.00838487486625172,0.0278328180359799,-0.01800795497405,-0.34643500165797,0.347577672237175,0.02242734720934,0.202311846166404,0.204567398089662,15.3911994832266,0.142210995538117,0,12.7796888095353,3.13386124933211,0,0.0693924242273172,0.177528981769048,0.120957715849861,1.06227612261439,1.10072789927682,0.0636574567701115,0.253735814108925,0.175404189638381,0.404976408913853,0.0245967445604669,0.0169629599703758,NaN,NaN,NaN,NaN,3,-98.4190936738779,1.80462729280246,unstable,unstable,0,0.755226875436007,0.0774007555850959,0.0635406889025128,0.95117624001437,0.322042582382942
125,1.69793528887961,2.58697462081909,-0.931293337092029,-1.38701044907689,1.69793528887961,-0.000731917666794203,-0.00826389823506338,0.00829624719439151,-0.051788915954187,-0.0991418938800336,0.116879589429905,0.0075389409747463,0.182285776864302,0.182872685181641,15.4043269062426,0.25460698294898,1,11.8067586463399,6.46719379020783,0,0.177238619251638,0.0721679310727967,0.129087167291758,0.5673997191647,1.00031090029519,0.0548047434120896,0.253427777663632,0.146566114641994,0.35064440826903,0.024387459588027,0.0173600697691873,NaN,NaN,NaN,NaN,1.70394137208591,-124.217456820887,1.72701125555824,unstable,unstable,0,0.489357280737557,0.201554828338689,0.138084520574566,0.960279901998199,0.334859504603558
126,1.64088238202609,2.41425848007202,-0.92334830316256,-1.33783402837658,1.64088238202609,0.00530495805685703,0.0014285329578428,0.00549393177939582,-0.0475879489227196,-0.0949697702767912,0.109062778287381,0.00703562397180167,0.13279629425182,0.13365303171321,15.3783531522108,0.364751797224166,1,6.34721719285645,9.93069706473077,0,0.0561968561894677,0.0881926732189253,0.105697372766856,0.626768398268798,1.06129267277587,0.0313768541558471,0.11011947778958,0.0826867900791691,0.351655447809266,0.00302720969373658,0.0052284361419014,NaN,NaN,NaN,NaN,1.67689753088332,-123.079868701553,1.89960035662485,stable,stable,1,0.464299241549598,0.175016842886558,0.10825678176863,0.971048235935297,0.363250315520369
127,1.67074201166495,2.44923710823059,-0.981720857497965,-1.33107805019142,1.67074201166495,0.0019097496555627,0.00665140107842914,0.00692013584065011,-0.0551733680475196,-0.0941812204934544,0.112768576946403,0.0072750831807019,0.144187373875018,0.144848551206042,15.3906794596856,0.294681904472895,1,11.1770986076122,4.98555799707082,1,0.144757192847185,0.140466359977924,0.193166149193032,0.57047782787488,1.19916805992614,0.0474946414664537,0.251571043730412,0.23496109987021,0.425077523996457,0.0246116871761028,0.0172950236197544,NaN,NaN,NaN,NaN,1.70122994362469,-125.926493707361,1.50792787111858,unstable,unstable,0,0.474500913351861,0.176430088298056,0.123085680110749,0.962348318719765,0.295572844502129
128,1.56605425341855,2.48580121994019,-0.798709158738243,-1.3277429711478,1.56605425341855,0.00342837905862597,0.000747185623959538,0.00350885584290333,-0.0373686402039966,-0.0931845152507394,0.102824414796178,0.00664207400134724,0.131325658815415,0.131867721366499,15.2467007889679,0.282958312845971,0,7.02617133263332,7.05877528744655,1,0.144461878846397,0.111865066585113,0.0942310964165718,1.90641189275891,1.06712334775869,0.0706334704512278,0.250046484204785,0.218248996511542,0.650291740458609,0.0251650998504478,0.0147546944043856,NaN,NaN,NaN,NaN,1.57271803987998,-121.511109536876,2.12249302656172,unstable,unstable,0,0.443988011851581,0.207586357705233,0.141101646865337,0.941319773598891,0.30300044599487
129,2.62892646813472,3,-0.424328434239106,-2.5610375204124,2.62892646813472,0.006144895719664,0.0072523947367433,0.00950562848122557,-0.0180272561952837,-0.341092801398993,0.342163030718923,0.0221139862605601,0.196848105492677,0.19959401389316,15.2154491862408,0.200175277765,1,12.0595404852976,3.71748249741445,0,0.120384453119966,0.0946907869271053,0.232160095554008,2.59527534247136,1.38315983599136,0.0534456575736189,0.17282359457944,0.188580428500252,0.505367639476164,0.000744774935986388,0.0100779422904944,NaN,NaN,NaN,NaN,3,-98.115524096488,2.47607774483161,stable,stable,1,0.740965860947892,0.0852342432245785,0.0551362633048602,0.942018037668126,0.31618647622211
130,1.66693156136351,2.40436625480652,-0.892222470836914,-1.38834244156355,1.66693156136351,0.00674491658167982,0.00955516019922995,0.0116959388732486,-0.0458959106724846,-0.106567864629655,0.119124121237462,0.00768743903418369,0.144471721678477,0.145066860298962,15.3930607983538,0.130214781525263,0,8.50470315538,8.16736111982066,0,0.0524981089050412,0.036399995161911,0.114788713916663,0.554141812181745,1.72853996283292,0.0800613729243853,0.25202982333763,0.105573865902052,0.414739076065121,0.0248455840937297,0.0169657412365587,NaN,NaN,NaN,NaN,1.70851046235541,-122.854304670078,2.47103863618557,unstable,unstable,0,0.473528455090063,0.168067061484771,0.118052079159956,0.942033956734121,0.35307828182131
131,1.56778960046561,2.30088353157043,-0.839483234437211,-1.302932287287,1.56778960046561,0.000952716339884268,-0.00901230572826625,0.00906252299108936,-0.0400017492682962,-0.0856812252896998,0.0972976289818621,0.00627555426615152,0.123805797981285,0.124319242932717,15.3892461965403,0.146202184768825,0,5.6461556452309,8.94154107107429,0,0.179505688490845,0.0345220552089917,0.190115566731388,0.779716216592722,0.721869518927687,0.0642007456973375,0.251365433235359,0.075907991368053,0.353370973765028,0.0244003539242757,0.0157849441905718,NaN,NaN,NaN,NaN,1.55679587126254,-123.368694018533,1.97820252531435,unstable,unstable,0,0.442941075377372,0.166607597046952,0.116549139677956,0.956101453515099,0.366263114947532
132,2.62005521541455,3,-0.599239455318144,-2.51956477330027,2.62005521541455,0.00607852741440559,0.00202606298052879,0.00640729480582481,-0.027453153504599,-0.330185788023231,0.332360116836615,0.0214557846725541,0.193712519259321,0.196286665862615,15.3781566295109,0.173871935906734,0,6.13877927149526,7.86206129114139,0,0.107721076545919,0.125316132253906,0.147273266693152,1.08274037726392,1.74739102219239,0.0227961131473465,0.0747851321332725,0.240876444932826,0.357094969192652,0.00309158326252648,0.00499980084459721,NaN,NaN,NaN,NaN,3,-102.159208261726,1.50335490124344,stable,stable,1,0.737938723949737,0.0866622472461272,0.055189494751279,0.966365196716313,0.292943802252077
133,1.70998426820293,2.41727757453918,-0.812570519120798,-1.48699628940626,1.70998426820293,-0.00312408140976659,-0.0109201385824375,0.011358226591968,-0.0367364861352665,-0.111459901716924,0.119505693837061,0.00771010636954446,0.138049624246827,0.138654865424288,15.4010450786344,0.195993124307466,0,8.88675032741553,4.95477579559081,1,0.159161671601936,0.128953563674267,0.246180525307079,0.835292911837396,1.05371476493101,0.0661163076844706,0.250334634516415,0.188453377281156,0.465751136667559,0.0242503887283761,0.0154519267512603,NaN,NaN,NaN,NaN,1.68420884954605,-119.152741236505,2.03290547612495,unstable,unstable,0,0.483726777938971,0.161223335467519,0.11313083428146,0.952099642983156,0.316242943430597
134,2.66903605028187,3,-0.608637937164542,-2.56288411537471,2.66903605028187,-0.0226955685457129,-0.00610271528823791,0.0235017438821558,-0.0249882773766035,-0.33864608593031,0.340591619492713,0.0219822228809698,0.198755385955557,0.200857954583978,15.3940986613475,0.209738308863303,1,6.24057929701206,4.15515431224901,0,0.111991678294265,0.170893059151869,0.105256428143106,1.08766906196538,1.43075237962544,0.0532932177080566,0.25255000589029,0.236601068166932,0.371856567839574,0.0245817437225319,0.0171629724785973,NaN,NaN,NaN,NaN,3,-101.974077911171,1.5559380761962,unstable,unstable,0,0.751914537658626,0.0787755417316421,0.0644316253725297,0.953565794104901,0.294843969703586
135,1.60225940324049,2.2570641040802,-0.763192026073774,-1.39647831078083,1.60225940324049,0.00259720125595397,0.00620344151710176,0.00672518706208464,-0.0334453582475968,-0.102689777795687,0.109327457278041,0.00705293834003955,0.10928427895181,0.109892714180666,15.3878632699892,0.296143822312417,0,15.1094413471468,9.51524573187567,1,0.106973022413839,0.103766015636926,0.234599057546928,0.575780917514178,1.07436136392112,0.0520736087024155,0.250627752583705,0.24014950780652,0.500280523424333,0.0245260013909862,0.0161862862178246,NaN,NaN,NaN,NaN,1.64295583088074,-118.56675799978,1.65145690352256,unstable,unstable,0,0.449247717033598,0.148564008650316,0.105924772513877,0.960997792008943,0.293266885419325
136,1.54804856980525,2.32486581802368,-0.729806331489097,-1.34836682707221,1.54804856980525,0.00493970202088683,0.00365079030142813,0.00614238763675455,-0.0304274044861619,-0.0962985945860861,0.102760224848207,0.00663080428093254,0.124292921386013,0.125048164535129,15.4083901706729,0.255389349499027,0,6.83900959601696,4.33325655607929,0,0.164306666822529,0.0353904516343068,0.16345536216311,0.605425557232367,1.56770151808114,0.0349221394685838,0.126311373843545,0.0941154834639236,0.382543127727756,0.00304765849989679,0.00526070049267441,NaN,NaN,NaN,NaN,1.59091926420837,-117.420269890065,2.001696271915,stable,stable,1,0.437822584855092,0.175909985249219,0.108813488035711,0.965464360388245,0.958170896238256
137,1.64928985993067,2.3164644241333,-0.797814320547138,-1.42289815422211,1.64928985993067,-0.00151389758347822,-0.00725931903170159,0.00741549719825219,-0.0367917800632146,-0.102042193064695,0.110826748868015,0.00714858757295586,0.139446057642136,0.140033436908069,15.4086879771459,0.151426719621922,0,13.6682291804278,7.83865592290464,1,0.11183731583598,0.0387350330488342,0.103465933565499,0.578772234629568,0.870132092098944,0.0552170286678556,0.25143615848699,0.237709235679617,0.39328086594961,0.0242374349703583,0.0166978505915225,NaN,NaN,NaN,NaN,1.64400627564805,-119.681547410493,1.73957076991392,unstable,unstable,0,0.46781731669646,0.151473784765271,0.107728409848966,0.961007237384634,0.294351450809059
138,1.50574013179024,2.21007418632507,-0.782151412412889,-1.27615349657277,1.50574013179024,0.00848863095871984,0.00386064564425875,0.00932531180947162,-0.0348279464330837,-0.0871074967421353,0.0951847533019232,0.00613716565119062,0.106199858179748,0.106638739786132,15.5004134666891,0.299088324914625,1,11.6157192078772,6.84354214920126,0,0.036459321607203,0.032416337714388,0.245005963255543,0.5075943137909,0.34307777234306,0.0689965297925487,0.321570175327462,NaN,NaN,0.0245745313611704,0.0168814095167284,NaN,NaN,NaN,NaN,1.60523562484629,-121.327745837078,2.03863360990252,unstable,unstable,0,0.422858449767958,0.16018480276874,0.113171589969262,0.958817882998387,0.4
139,2.63162999846864,3,-0.491695423559229,-2.55409433831443,2.63162999846864,0.00748325301152849,0.00226031893717327,0.00781716811462401,-0.0210799691712787,-0.338864988758005,0.34022477876365,0.021954045781614,0.193179281531399,0.195852122080615,15.3742070698991,0.376768032271608,1,7.38440652390091,9.68569893219941,1,0.167359330843671,0.128877726190395,0.12650343648179,1.06728207000433,1.21296266264063,0.0275017494907873,0.0972808463615933,0.212165543897634,0.468338676690829,0.00306754667696035,0.00512389266135344,NaN,NaN,NaN,NaN,3,-99.6944273233563,1.76089425938907,stable,stable,1,0.740938424007759,0.0843163978322382,0.0538164264730296,0.968332916640967,0.305704202712163
140,1.52517994874861,2.3238410949707,-0.673824153882845,-1.3427670569907,1.52517994874861,-0.00199468672017506,-0.00925472081777982,0.00946723996351048,-0.0282756247777218,-0.0918561682381425,0.098516548423021,0.0063553327376631,0.162865472331734,0.163396442267545,15.4044994021454,0.286997005454921,0,11.8378745218847,6.81208908956641,1,0.0837418086810799,0.0790441900379112,0.120507243433739,0.602376357692914,1.03686858884663,0.0554684437392392,0.250428972016265,0.176042303209647,0.380541375991159,0.0245289437973735,0.0151368779531981,NaN,NaN,NaN,NaN,1.52174770580897,-117.115006093661,1.75493405244921,unstable,unstable,0,0.439393941453139,0.181434418559947,0.12526672319051,0.95938599640757,0.321758976351268
141,1.55572561489488,2.31843304634094,-0.741727435436663,-1.35033964166626,1.55572561489488,0.00404481074970504,0.00612494416074379,0.00733998875838096,-0.0323735806447778,-0.099195334319523,0.106424679026327,0.00686529460830682,0.133752569058341,0.13429247487427,15.4086587064374,0.154357632024924,0,10.2867447187282,6.62243953059208,0,0.0726106474039405,0.142002551904374,0.0755151565030923,0.723373701158537,1.18167105650395,0.0781829658023208,0.250557667535817,0.095364144871377,0.347776284933367,0.0245131821706208,0.017149976861544,NaN,NaN,NaN,NaN,1.59025262603988,-118.88840106146,2.42365960282871,unstable,unstable,0,0.441718658946823,0.172954836681067,0.120904004862407,0.945940308288634,0.357615935612721
142,2.55891841151643,3,-0.63294952845014,-2.44783981560047,2.55891841151643,0.00428248042310705,0.00468862905566836,0.00635002999961045,-0.0296347714437396,-0.3143202077969,0.316877400855096,0.0204507929606329,0.203900911862672,0.206347171432159,15.3885297199248,0.203741427896267,0,7.84757635183083,7.14428309282599,0,0.0409117856182131,0.133091793649899,0.117772607720611,1.02764936054784,1.49357200444551,0.0255894957288122,0.0818505992552682,0.235270712642124,0.379978619497152,0.00312210120595403,0.00500082354883315,NaN,NaN,NaN,NaN,2.86513009173103,-103.173390896604,1.63679126329665,stable,stable,1,0.723647677357479,0.100407529575399,0.063450599571704,0.96739565569636,0.295435238825723
143,1.7756131238052,2.53614807128906,-0.846183056181786,-1.54819049497602,1.7756131238052,-0.00394669097688855,-0.00270340182950972,0.00478380090710828,-0.0393074449334265,-0.122113299783878,0.129874598780652,0.00838000484041185,0.120256119249662,0.12093373762434,15.3971787607735,0.196948219788044,1,11.8854248852183,6.67833889323181,1,0.0557966709357069,0.164249278318142,0.117948865730314,0.632698191928786,1.34614207639242,0.0521472041540397,0.251627504167898,0.235753475114261,0.536641611821673,0.0244370368693989,0.0166109548899502,NaN,NaN,NaN,NaN,1.79248213278172,-118.827132255119,1.65903542514388,unstable,unstable,0,0.497683580539587,0.171997393350173,0.120099688518101,0.958378367243314,0.295220677726995
144,2.61958764528445,3,-0.657177006243744,-2.50461203907812,2.61958764528445,-0.0122144649315939,0.0116415956330648,0.0168736452033617,-0.0326709584137061,-0.334410251409323,0.337387616630335,0.0217698580465121,0.192213627019027,0.194266707776716,15.4015398622726,0.14297387105668,0,13.5072037714546,5.42411345445686,0,0.053493571811498,0.132600856251835,0.195144979382858,1.25657441364352,1.11566868982522,0.086243566117457,0.251182266751852,0.110296722303727,0.388357518197382,0.0246283063179058,0.0164904570518354,NaN,NaN,NaN,NaN,2.99065240368585,-103.652251957395,2.40331033702636,unstable,unstable,0,0.737410046964529,0.0886862814316158,0.0701542126150698,0.938239163985446,0.350979234531677
145,1.6449573313903,2.4920449256897,-0.730021402228907,-1.45401025189319,1.6449573313903,-0.000181587042914757,-0.00972505377322523,0.00972674892994966,-0.0311985042170908,-0.105571107003349,0.112056481660619,0.00722842503219315,0.133146085853742,0.133737167969,15.4053207764478,0.203760586955177,0,10.8941536416294,3.70253985227117,0,0.0906839922485933,0.133465150749211,0.149688703748647,0.929544350160723,0.822942485774447,0.0618285991372643,0.252514160560853,0.094653171482065,0.391770853447432,0.0246049280016547,0.0170235578120927,NaN,NaN,NaN,NaN,1.62717802274902,-117.276491250742,1.91619384424001,unstable,unstable,0,0.465402721964546,0.192377946021189,0.132552675827947,0.955316161006163,0.357931923785749
146,1.54880277129719,2.29376840591431,-0.677875241781626,-1.38112840295304,1.54880277129719,0.00125902463356381,-0.000119468653506932,0.00126468011255465,-0.0257399077659831,-0.100177345394643,0.104381956128653,0.00673941764017444,0.106826947243464,0.107674444613528,15.2879705825556,0.131097915838235,0,7.24159761685315,4.16625505361853,1,0.0385568977780518,0.0657874343119158,0.191281726466872,1.73408204909575,1.00902584909263,0.0428858835868592,0.144239455539351,0.16726063558521,0.595989423383886,1.11230401610134e-06,0.0323877603373699,NaN,NaN,NaN,NaN,1.57859786558615,-115.506330805141,2.10700722918301,stable,stable,1,0.434548961268622,0.167849125809487,0.11248733723844,0.957004067577947,0.325661939739907
147,1.56515742956023,2.26763796806335,-0.671822919573632,-1.39596348179722,1.56515742956023,-0.00158135534723402,-0.0109204784596153,0.0110343796618182,-0.0264211226016766,-0.0969444914747567,0.101972292581645,0.0065774032776666,0.122526503703917,0.123087197192513,15.3781643927895,0.258931393779132,0,14.9532707848338,3.99108268214765,0,0.0749687050960187,0.058441695539515,0.0627569923559147,0.615636748216249,0.771393688126382,0.0592365866833922,0.252720622445592,0.0719569881322684,0.335193477465276,0.0241202014774797,0.0160065031283319,NaN,NaN,NaN,NaN,1.53737363016854,-116.223023798313,1.87399550334317,unstable,unstable,0,0.441992753987899,0.160081090767869,0.112589290598388,0.959483610372755,0.368019116385659
148,1.66787569462752,2.64820671081543,-0.741859295398976,-1.48131221279902,1.66787569462752,0.00332610641734478,0.00253909348802168,0.0041844927578401,-0.0311226211757971,-0.115880938800584,0.121288255938748,0.00782567079517341,0.117987382995689,0.118595767551042,15.3730081770566,0.248079979528452,0,13.4675529959326,3.99438203709595,0,0.0900356568460989,0.101769302354139,0.0576273526205449,0.636624969444517,1.30664687263156,0.0774184707329591,0.251869000914352,0.0855601565532885,0.451878307486238,0.0245915494343379,0.0158042468352415,NaN,NaN,NaN,NaN,1.68916796666871,-116.88139676066,2.38987586609762,unstable,unstable,0,0.468486005410881,0.221341635647883,0.149481557764281,0.946022200160066,0.361973263754094
149,2.61980548072419,3,-0.71180536435673,-2.48668561083974,2.61980548072419,0.00494512922000259,0.00532933550811203,0.00727022145196054,-0.0358175880410044,-0.321934674992602,0.325600773607803,0.0210168584097798,0.197392906234374,0.199871827467696,15.3584328478793,0.245083293148589,0,15.9319005140306,3.15990447611359,0,0.172449561229274,0.170134483279522,0.259498222298116,1.08273795028149,1.55263186391788,0.0284359704647294,0.101011717258179,0.244779953197577,0.398959038750781,0.00308785145105417,0.00495720457236867,NaN,NaN,NaN,NaN,3,-104.467447061392,1.75430655361158,stable,stable,1,0.738589160353324,0.0868766407699157,0.0553009827291379,0.965075537656069,0.291208909689966
150,1.56760197111724,2.20626401901245,-0.715141708492613,-1.38174958351843,1.56760197111724,0.00221194332626992,-0.00624161354413126,0.00662196594018067,-0.0291269583565893,-0.096245451546373,0.101769359455506,0.00656372985665861,0.108777702923241,0.109358567126202,15.3953218985037,0.284998145703193,1,14.346589906906,4.50714250274526,1,0.141941515440142,0.0647055756881167,0.272151763637518,0.673959099635356,0.716553906351195,0.0626584960875917,0.251574835600126,0.118419431227874,0.298244139310992,0.024825952558296,0.0171755836100008,NaN,NaN,NaN,NaN,1.55740833368322,-117.762259987245,1.96709212022138,unstable,unstable,0,0.439898905723171,0.144912987865456,0.104227216179122,0.957745292623453,0.347369141676501
151,1.69648789034949,2.32122445106506,-0.772918705311361,-1.4966021947996,1.69648789034949,0.000584371217029123,-0.00755583643105595,0.00757840048375411,-0.033439902933741,-0.113616138285168,0.119859547564878,0.00773260462143696,0.113027956581046,0.113637690676688,15.4085143923337,0.291231223589075,0,15.7819534194872,4.62918433198859,1,0.161510792421863,0.153861319642091,0.0863220360718221,0.732910822205956,1.1643111434896,0.0707765095139329,0.251138307885224,0.164514685750501,0.403304606991495,0.0248111948748336,0.0159416327044763,NaN,NaN,NaN,NaN,1.69101625912663,-117.811995946369,2.18902180224838,unstable,unstable,0,0.475124308895203,0.141955099583025,0.101997214819045,0.949705001226854,0.326882361888666
152,2.61482498996633,3,-0.545806375289781,-2.52716181621346,2.61482498996633,0.00579181132059253,0.00161881653708482,0.00601378793723914,-0.0240258183551876,-0.333414386226895,0.335149353000976,0.0216251390156759,0.191891647681188,0.194499919408467,15.3833837740926,0.243840256788279,1,7.55670614056254,5.24399095843041,1,0.0472425954327814,0.111849773396272,0.152285525224405,1.12444297276843,1.1799703161828,0.0255110042360156,0.103817832958024,0.223919809543513,0.421225934791282,0.00303966004005564,0.00500292249006721,NaN,NaN,NaN,NaN,3,-100.730250894483,1.67251789977789,stable,stable,1,0.736186647872713,0.0877669050460706,0.0558303475872875,0.969138393468804,0.300480084647328
153,1.62552068964214,2.32192850112915,-0.699543169941583,-1.44859150977265,1.62552068964214,0.00685846123279033,-0.00789957198336202,0.0104614400539317,-0.0305568754896069,-0.11056662267127,0.116431010434668,0.00750711588961033,0.136509289998397,0.136867668149951,15.4984359687597,0.269799220179999,0,15.3434249302365,9.1982256178702,0,0.0309414344619836,0.0832443211257207,0.0917736012061078,0.641578598540132,0.290744356344681,0.0638443447570848,0.296982044089317,NaN,NaN,0.0185511498944812,0.0139548341712596,NaN,NaN,NaN,NaN,1.69086530869602,-115.481230513615,1.93924886994993,unstable,unstable,0,0.46084571753456,0.158609688261132,0.108485253618523,0.960752432975934,0.4
154,2.60674456114733,3,-0.853141012634196,-2.42693100835623,2.60674456114733,-0.0224782288766635,-0.00795758789200255,0.0238452087114082,-0.0431763162246748,-0.30368185230498,0.309317342352397,0.0199555953962055,0.209495210465259,0.211373893569045,15.3933630547591,0.227858644588182,0,8.35043505386557,4.49029586166413,1,0.0396669207316869,0.141496032776302,0.177435204126709,0.995481788040496,1.09933686011848,0.0591632543361027,0.25402080636582,0.218069556942535,0.492557117850025,0.0248117891156181,0.0168861100173739,NaN,NaN,NaN,NaN,2.8660583108225,-107.999041467264,1.68663655289228,unstable,unstable,0,0.73740666168643,0.0928540953389424,0.0728803226752105,0.953959083453557,0.303080196914429
155,1.56738962033094,2.25585579872131,-0.683113052796325,-1.39887344262127,1.56738962033094,0.00035957631209186,-0.00511571624914705,0.00512833772932368,-0.0263101525244407,-0.0996894347530893,0.104151013194888,0.00672637961496402,0.111391790811911,0.111928736634886,15.2699001486135,0.270805798561337,0,7.99780018581611,7.10019597278119,1,0.135274725472702,0.144944815783541,0.168377232435271,1.63713074723277,1.05959499846242,0.0690146740712017,0.248794388842867,0.218810635666906,0.499676709666992,0.0249776511184201,0.0176050264173416,NaN,NaN,NaN,NaN,1.56021062314875,-116.350158175446,2.09404500869726,unstable,unstable,0,0.440356312748562,0.155845085388209,0.111010057295903,0.944304103533937,0.302750828592486
156,1.50169852485625,2.08730554580688,-0.655252147267686,-1.34012776882037,1.50169852485625,0.00404326944857653,0.00384143441920748,0.0055771539543807,-0.024101023854622,-0.0947672998825737,0.0986820578487297,0.00637297599356655,0.1118744224179,0.112650596064271,15.3724359270792,0.211283979246764,0,5.09702040139782,4.55610962151159,0,0.0304889701969604,0.152820211272043,0.156918937599207,1.8427057351084,1.64175775491268,0.0508370537957701,0.185423528088521,0.156752657926399,0.419451839226162,0.00246367178552748,0.00483683135231699,NaN,NaN,NaN,NaN,1.5486906196655,-115.323008512155,2.49522641167592,stable,stable,1,0.42298305917452,0.132784057938863,0.0825242477658089,0.947203545680521,0.330332152032711
157,1.66333609465825,2.3877739906311,-0.737026068244938,-1.47796376890324,1.66333609465825,0.00492979076435835,0.00200249922150975,0.00532098112311067,-0.0315306533493525,-0.114964994063684,0.120540191513325,0.0077795567210418,0.114195234022945,0.114838729625704,15.3174013878117,0.288756330858455,0,8.08829959182751,8.99210356419053,1,0.0743924761602354,0.0743068764623844,0.0809148426186372,1.35007918867244,1.08503198276791,0.0751816020263512,0.252236350630815,0.137498500206035,0.42664955295321,0.0245391500382158,0.0172415991818798,NaN,NaN,NaN,NaN,1.67963675962339,-116.752551926055,2.31619913356699,unstable,unstable,0,0.466524037834008,0.163974039799795,0.115560385215525,0.943276182639793,0.338889555463984
158,1.53075027544593,2.14247488975525,-0.624950254409933,-1.38378327711477,1.53075027544593,0.00166135569506242,-0.00504270795846352,0.00530933200128487,-0.0231078892753227,-0.0976678690184335,0.101285713381676,0.00653301354523214,0.107871947357003,0.1084211700765,15.4177796680426,0.274581033330273,1,4.22105450650196,6.45964438253555,1,0.100354904066306,0.0678639856410723,0.269604511089712,0.613574318943046,0.814070417821965,0.057565813081898,0.251539108170091,0.127224300122794,0.416579297541214,0.0247186028694497,0.0173464040042916,NaN,NaN,NaN,NaN,1.53324749594495,-115.000864111301,1.83267204832936,unstable,unstable,0,0.429884307467548,0.138611415753166,0.100460678445943,0.95999988481304,0.343455866612092
159,2.53116700162856,3,-0.742634894220812,-2.38559070880237,2.53116700162856,0.0103464904186584,0.00571925348745999,0.0118220017102525,-0.0380401733559103,-0.298734735492193,0.303010035523766,0.0195518272490962,0.213801640920221,0.216141377051917,15.3976777099647,0.291948045684199,1,9.39261574758308,6.05819794372308,0,0.175493869212205,0.169835411395162,0.174889361047902,1.04578073501406,1.14001095084043,0.022956589023128,0.0895224186604017,0.240818737774114,0.317527163089075,0.00310859031892837,0.00504309579777487,NaN,NaN,NaN,NaN,2.78430276691677,-105.933145069938,1.5884372078037,stable,stable,1,0.718206142511332,0.107654791613788,0.0678083236829468,0.971347627956722,0.292969449878171
160,1.65458007466118,2.35099792480469,-0.716589758375694,-1.47899715791087,1.65458007466118,0.00533829542834792,0.00481660205068819,0.00719006629976483,-0.0295699732061081,-0.116406879758386,0.121298355815044,0.00782652242157127,0.114502294291028,0.115131051013322,15.3717710269089,0.185664120738046,1,11.7071123704874,6.92810159875335,0,0.145840874276149,0.128516550653537,0.215106681565122,0.601188325545301,1.40362601417682,0.0779807745067227,0.251950536903252,0.0919245028371209,0.439010552154906,0.0251129134504181,0.0150460524022818,NaN,NaN,NaN,NaN,1.68229936373703,-116.284080981345,2.41923193482077,unstable,unstable,0,0.464247563445647,0.158012195103912,0.111439903711848,0.945257500077393,0.359144665405724
161,1.63273538356265,2.56201791763306,-0.729393613473865,-1.43339969079393,1.63273538356265,0.00066319755015923,-0.00429000761548373,0.00434096721151469,-0.0332772971439086,-0.108619441402828,0.116612531712283,0.00752200139918596,0.172910882565844,0.173534028534328,15.4009711423691,0.251120533140795,0,10.4797595043975,9.94092049403055,1,0.0748995752805588,0.164296627490992,0.137870605066744,0.82698031075517,0.897814513952885,0.0618361046775052,0.251172998437864,0.157265938153238,0.517660614226993,0.0247417376861675,0.0159857671908267,NaN,NaN,NaN,NaN,1.63445116181305,-117.268187683498,1.93005838648318,unstable,unstable,0,0.470102907990238,0.20988441415462,0.142739982604501,0.955529988324256,0.33010402748745
162,2.58830444031336,3,-0.676991073727404,-2.46566985238271,2.58830444031336,0.0070137138345627,0.00505549250715851,0.00864581900360354,-0.0327800486052704,-0.317523758261801,0.320666106923418,0.020687525868312,0.201562318381841,0.204046737416714,15.4002729254394,0.236739920943864,1,4.1064614726107,5.29760595721199,1,0.124793707995998,0.0593604084007424,0.159867749949309,1.01576193736672,1.07631837463814,0.0294310784874209,0.103224622324679,0.152963405197797,0.347794702731019,0.00301955634956215,0.00465203500367192,NaN,NaN,NaN,NaN,2.89081657121031,-103.869165643979,1.81293982781276,stable,stable,1,0.731023864900238,0.0942165677468217,0.0595636147845872,0.968846686876251,0.332016264356535
163,1.617365690407,2.38339591026306,-0.661861042279676,-1.46461220813752,1.617365690407,0.00369633511096379,0.00661710053560114,0.00757950610203571,-0.0251175773902696,-0.115069519148506,0.1187328249355,0.00766304801524051,0.114625479284891,0.115235960358782,15.3621880126682,0.302658918980885,1,12.0285563438688,3.8514631189886,0,0.135154304782462,0.109698370724763,0.26336818668589,1.35589473466692,1.16491000620453,0.0768211957167577,0.25231634248049,0.123400974671117,0.400665543868967,0.0244336762639482,0.016551297232379,NaN,NaN,NaN,NaN,1.64906171874729,-114.380640755355,2.37577330133567,unstable,unstable,0,0.454344709513623,0.17374637558632,0.121125890563705,0.941783079177631,0.345155122368392
164,2.62677007316086,3,-0.829280556540023,-2.45880534886294,2.62677007316086,-0.0247835896850909,-0.012502142340073,0.0277584199977303,-0.042787342939629,-0.309567842329041,0.314818677496528,0.0203172938419859,0.210859418237736,0.212741910505098,15.3923964953246,0.188040116905972,0,11.4738890070453,9.10198298886289,0,0.142509447796755,0.0319707559010695,0.129764935816007,1.04627191184295,1.40421793447185,0.070062996630649,0.250318224372758,0.122632047000887,0.425264349870752,0.024406750428763,0.0171118306505136,NaN,NaN,NaN,NaN,2.86974882840161,-107.409446170029,1.97249780276311,unstable,unstable,0,0.743020401610581,0.0890657772050577,0.0705093948309544,0.945714652892202,0.345496867999606
165,1.69472405274353,2.45799493789673,-0.794362170919854,-1.47827577473016,1.69472405274353,-0.0012187238734535,-0.00124229616893029,0.00174028378463524,-0.0366166796550037,-0.111915858884064,0.119877680481191,0.00773217864239975,0.138751833175098,0.139375073383006,15.4082326206025,0.237375939243574,0,4.09476141003612,5.70094654334954,0,0.0379848657848008,0.091593543714771,0.059832941908019,0.617619322160967,0.905832330275571,0.0518123413850072,0.252901830382151,0.168133763591476,0.328307569684136,0.0250457612640734,0.016677675332898,NaN,NaN,NaN,NaN,1.70066438927445,-118.076140138163,1.63780480559248,unstable,unstable,0,0.479801428741542,0.172055001186654,0.120429059374654,0.962123852038352,0.325273882848233
166,1.54448660640015,2.19718861579895,-0.738189300131317,-1.34492927148176,1.54448660640015,0.00289672153141733,0.00165033231673086,0.00333385548370397,-0.0300798299193378,-0.0953519061652895,0.101187282625682,0.00653024469384846,0.105242256995566,0.106107849200317,15.4028756664043,0.166571551675653,0,15.6651418248304,6.79410595280281,0,0.166030352893714,0.0992974746974077,0.182589015161777,0.548283161628205,1.7105313719041,0.0375188862627073,0.136557368818371,0.103790602892571,0.40381259665204,0.0029960397286027,0.00484573860409459,NaN,NaN,NaN,NaN,1.5818755043575,-117.768128957132,2.079314318922,stable,stable,1,0.433084664880103,0.147469158953409,0.0915751553498833,0.963492728390893,0.953870843158857
167,1.68098683127268,2.4276270866394,-0.689604206231365,-1.51968712680975,1.68098683127268,0.0036377339171849,-0.00145627194258642,0.00391839712420804,-0.0273890002419245,-0.121788421698999,0.12597313798284,0.00812920597672857,0.120446644630131,0.121019364898646,15.3333054436443,0.206874855336692,0,11.9386135512945,5.13735684089669,0,0.127989804179625,0.0530890186083218,0.166292604564791,1.39570316966281,0.923654243307772,0.0837097129025701,0.283170353469156,0.171511992987206,0.608771237152789,0.0640844771094689,0.0791628016488286,NaN,NaN,NaN,NaN,1.69973286844467,-114.60986311528,2.2021768631576,unstable,unstable,0,0.472467027985777,0.168712430263618,0.158495921311448,0.939921621018232,0.323772447561242
168,1.50733408575942,2.3477258682251,-0.67726476689105,-1.32226053482702,1.50733408575942,0.0051236908221605,0.00213778234135632,0.0055517853867118,-0.0305514118365015,-0.0987514184434358,0.105930137944579,0.00683271468890842,0.16122971337233,0.161542729284625,15.3736701556556,0.29932218517233,0,13.9342798215432,6.59040962952565,0,0.156058718495255,0.140763343002673,0.171464867127625,0.938541104940777,0.70300787980556,0.0936996042419744,0.484358669158019,0.1066519502249,0.35762379714559,0.0246545591670035,0.016707081113035,NaN,NaN,NaN,NaN,1.60122796585367,-117.236533214506,2.21139713959258,unstable,unstable,0,0.434264302059436,0.190105978375675,0.131096471100328,0.940252312998863,0.352599133233378
169,2.51704152172624,3,-0.75240454606682,-2.36848418505881,2.51704152172624,0.006080981409193,0.00482976292361459,0.00776562584710808,-0.0387537784345328,-0.295050422867003,0.299510460709074,0.019321410821396,0.216691502390788,0.218961201085749,15.3960958320032,0.151734654036048,0,8.23471997738483,4.43532269585327,0,0.175973261719603,0.0961130179567119,0.268016084033394,1.06866036705302,0.915173197126906,0.0326410154242295,0.119909618431588,0.101141046284719,0.352020435900528,0.00250082232253462,0.00601289335586842,NaN,NaN,NaN,NaN,2.73453280736877,-106.252064921566,1.87430801772964,stable,stable,1,0.715003312677482,0.110089355683565,0.0693515966727933,0.968092228569329,0.355048423873458
