scenario_id,mean_wind_speed,max_wind_speed,wind_velocity_x,wind_velocity_y,wind_velocity,wind_acceleration_x,wind_acceleration_y,wind_acceleration,wind_body_force_x,wind_body_force_y,wind_body_force,mean_wind_body_risk,mean_wind_gust_risk,mean_wind_risk_raw,min_thrust_margin_n,mean_abs_roll_deg,mean_abs_pitch_deg,mean_abs_vz,max_abs_vz,mean_tag_error,max_tag_error,stability_std_z,stability_std_vz,mean_imu_ang_vel,max_imu_ang_vel,mean_imu_lin_acc,max_imu_lin_acc,wind_speed_cmd,wind_dir_cmd,hover_height_cmd,gt_safe_to_land,label,success,onto_wind_condition,onto_gust,onto_temporal_pattern,onto_drone_state,onto_tag_observation
1,2.03480587362432,2.67916679382324,-1.25564227247536,-1.58338974203506,2.03480587362432,-0.0606729403967668,0.01068973103419,0.0616074349893983,-0.0851953688000361,-0.131866010616699,0.160740483047427,0.0103692867335453,0.12465136362517,0.127237216973449,15.4163456981943,1.00998181286993,1.08279880367577,0.176036969530534,0.240295947385603,0.119469668701815,0.438710823900924,0.156560871748155,0.041370937607844,NaN,NaN,NaN,NaN,2.0716688985117,-127.374480982322,2.31472368639318,stable,stable,1,0.568062343027842,0.15627590345948,0.178392129053478,0.895538238961874,0.34690236946586
2,2.29973715324466,3,-1.38841333597849,-1.79546336481204,2.29973715324466,0.0105207114083947,0.00756343764155367,0.0129572743081405,-0.109311462649932,-0.174610770294144,0.21507624623047,0.0138905197405148,0.228211452065568,0.229875684383255,15.4026699096635,2.00685822480904,2.15363507631388,0.0185116595479824,0.0867028444380602,0.142727606165171,0.441190538291027,0.000109462318780817,0.00749092516955689,NaN,NaN,NaN,NaN,2.42882567996652,-126.095851442396,2.32706635135918,stable,stable,1,0.659238377741893,0.159934640809778,0.0987334071942548,0.9580545800029,0.336565508371035
3,1.78906699290147,2.65292286872864,-1.10495191269066,-1.37521685435756,1.78906699290147,-0.0768121751543783,0.0172458152256542,0.0787243824665795,-0.0707905116764126,-0.104889854553089,0.132841322071941,0.0085709528221471,0.193750982085206,0.195911018632012,15.4080254260456,0.974110668656185,1.12911047342944,0.177396828076528,0.240278798031964,0.174822414138171,0.406781834123116,0.158663037610148,0.0366898149145321,NaN,NaN,NaN,NaN,1.87319628751653,-127.297520073929,1.88291995843224,stable,stable,1,0.516266735166794,0.20880037551332,0.209138881790514,0.894776276988206,0.322301149271924
4,2.44280529576001,3,-0.717151607172035,-2.30123969966594,2.44280529576001,-0.0313857208827988,-0.0176123162812176,0.0359896813006533,-0.0326547179184817,-0.274099479951342,0.277756132857662,0.0179288742648282,0.229270712408439,0.2308443611102,15.4072831374371,1.80756945028166,1.42848773731908,0.0632418813849702,0.24017791114054,0.125220773165319,0.526457103800994,0.00187832869208092,0.00963171039666502,NaN,NaN,NaN,NaN,2.46779887999601,-105.553838771394,1.63321994200207,unstable,unstable,0,0.697583617758042,0.131966916692451,0.0835174029117486,0.942952895690652,0.344346323037636
5,1.82805313301735,2.59293031692505,-1.06906271648386,-1.46758070903689,1.82805313301735,-0.0515551044296846,0.0192288902097203,0.0550243492596974,-0.0624145473554855,-0.113998743706988,0.132767948933541,0.0085643263106591,0.129381557831984,0.131573788749545,15.4174766952429,0.918759428723236,0.963750812807849,0.18181114792315,0.24023780452649,0.169683853226071,0.434482225308197,0.158307461881305,0.0363092347518702,NaN,NaN,NaN,NaN,1.88084050141636,-125.058018224367,1.55850548908659,stable,stable,1,0.513795593221203,0.18218516374351,0.192873328284942,0.894303274140681,0.324584954121746
6,1.87679979314772,2.83964085578918,-1.04243035229397,-1.52968998416172,1.87679979314772,0.00949742891688543,0.00528264152907951,0.0108677255005841,-0.0633951803900743,-0.127048135546212,0.147404081588764,0.00951758263216295,0.192603086995763,0.193759352335833,15.4146021544906,1.83778861838981,1.96593275281987,0.0233510029424029,0.0504395361392814,0.135909128882733,0.440499194061688,0.00143374700723583,0.00501690682138688,NaN,NaN,NaN,NaN,1.9161886291726,-122.783489357006,2.11262697753684,stable,stable,1,0.539231815306559,0.218631655436103,0.133640543906998,0.958438116326437,0.339595942718785
7,1.93129590556428,2.70790767669678,-1.08008313422175,-1.58591877297417,1.93129590556428,-0.0515364026729462,0.00297900214085173,0.0516224297590036,-0.0629658248761451,-0.132790081787018,0.149569431193377,0.00964865446639663,0.122704898700206,0.125049507946137,15.3993997030553,1.00870643688792,1.03648309789351,0.17721565385882,0.240242670489932,0.156971537925197,0.468598224130134,0.157767337358468,0.0352306606799599,NaN,NaN,NaN,NaN,1.96867067391655,-123.586570068552,2.3991206678142,stable,stable,1,0.540022143073036,0.184201760627295,0.193451022318308,0.895322826725879,0.330234872033246
8,1.93169200660398,2.82400321960449,-1.13262935638536,-1.5422412721501,1.93169200660398,-0.0784302814373769,0.0124654104029953,0.0794147058350105,-0.071133922790288,-0.126968690326986,0.149889146808688,0.00966732153065748,0.149841459131083,0.152132303118326,15.456172605502,0.916876914478725,0.909510989418036,0.175951980118829,0.240263470139384,0.134637017672773,0.436750106837447,0.153930728305239,0.0416155080664066,NaN,NaN,NaN,NaN,1.96461919299708,-125.030810267647,2.4679290864314,stable,stable,1,0.545544329051394,0.215329385661533,0.212744200445618,0.897673819267111,0.340161325478767
9,2.61429927380986,3,-0.805676082547362,-2.45211460659745,2.61429927380986,0.00336838190345178,0.00222759336465079,0.00403833738631849,-0.0430031023040872,-0.313266066814521,0.318402113308681,0.0205551813888221,0.195997327077574,0.19853538381173,15.4429913587274,1.80156430953118,1.70078853664174,0.0303894560004565,0.0502477005416916,0.127818378215086,0.452086281922101,0.0216408982799026,0.00573352321478683,NaN,NaN,NaN,NaN,2.98365709536118,-106.900241715489,1.71577346037539,stable,stable,1,0.736853549778309,0.0875230252469398,0.0642169096941037,0.95728678535127,0.343191831904406
10,1.86734351999051,2.66457462310791,-1.11453368309156,-1.47299770081423,1.86734351999051,-0.0674138176941487,0.00800257916355792,0.0678871422978529,-0.0698513620799569,-0.117217479404064,0.141339284767156,0.00911651744066495,0.158003280501047,0.160266575170189,15.3894594014353,0.895984964082566,1.01251636998016,0.17656108266595,0.240276489021851,0.151417270421601,0.461195529607065,0.159360167876767,0.0376995913733259,NaN,NaN,NaN,NaN,1.92399487038037,-126.353098118705,1.68576450487977,stable,stable,1,0.530011587031507,0.191822974289355,0.199629468169749,0.896724091042246,0.332703435368177
11,1.85367825047282,2.69530582427979,-1.14462841748751,-1.44018605169381,1.85367825047282,-0.0612650145128843,0.0100113663830256,0.0620776083633954,-0.0717270245862693,-0.110777711100097,0.13549846092422,0.0087380511904234,0.13114384130374,0.133241814606078,15.4514267877319,0.679879635868968,0.842409016836218,0.175477071141199,0.240225122020289,0.121858285444677,0.47305571614521,0.155904463242079,0.0410878652619067,NaN,NaN,NaN,NaN,1.90759543141243,-127.844704273722,1.81009533670662,stable,stable,1,0.5209625630473,0.20074709897319,0.20468017384937,0.900300625015289,0.345840762024588
12,2.62668113860508,3,-0.788884188443076,-2.47263014149851,2.62668113860508,0.00614530788258633,0.00231328926847657,0.00656628633334144,-0.0411965771952156,-0.318121874625353,0.322761727293141,0.0208362389383138,0.196004270365226,0.198524257414834,15.4365275529565,1.83329297248083,1.76150311504306,0.0163360948618249,0.0432623723035869,0.127727682472495,0.438052232185634,0.000522858515686055,0.00673040739613755,NaN,NaN,NaN,NaN,3,-106.299635778902,2.38216327711555,stable,stable,1,0.740153155110988,0.0852005629749697,0.0538001402188317,0.963587126167114,0.343232141123336
13,1.9656904347845,2.62008428573608,-1.03512254754414,-1.65818589314736,1.9656904347845,-0.0420315006908649,-7.67031981094881e-05,0.0420315706785599,-0.0586023855312766,-0.145145866809304,0.158631805098818,0.0102326037641,0.131859682670921,0.134442919843086,15.4212521589955,1.04425138949293,0.950266985792631,0.176625672703928,0.240292341294225,0.14397341349767,0.431313604748984,0.159160458561934,0.0343084690094961,NaN,NaN,NaN,NaN,2.02726066309477,-121.319262228342,1.67081990902234,stable,stable,1,0.551072699911151,0.154944404421842,0.176180431148731,0.896015947842221,0.336011816223258
14,2.66439780592918,3,-0.739492621351441,-2.5226183451372,2.66439780592918,-0.0318418154329389,-0.00724965191470816,0.0326566786882833,-0.0343560356894403,-0.327942585820659,0.331371063011738,0.0213947389508535,0.201904315120806,0.20397733035064,15.3856177774129,1.81895883792034,1.62915008669664,0.0640818735734138,0.240249385316135,0.129832813136141,0.455677885614015,0.00187849728517287,0.00915574331355066,NaN,NaN,NaN,NaN,2.96211416560549,-104.652706865072,1.53001191408636,unstable,unstable,0,0.751301547651244,0.0814975514254522,0.0530627797424979,0.940866778805588,0.342296527495048
15,1.73135895745174,2.3809654712677,-0.921126823779401,-1.45212074112242,1.73135895745174,-0.0473203845528696,0.00432466172745461,0.0475175914087443,-0.0465722065951847,-0.111599684895434,0.122949879844381,0.00793036725420477,0.118102906371433,0.120020462373457,15.4590506189273,0.78207132645163,1.00544480432799,0.176927796504282,0.24025140647015,0.175310253070103,0.421030358348692,0.157532913956492,0.0347011893974613,NaN,NaN,NaN,NaN,1.78867162897179,-121.8764556945,1.89199737207533,stable,stable,1,0.485699814461823,0.154873024033527,0.175557057171573,0.897491332148876,0.322084331968843
16,1.76008140761717,2.8178448677063,-1.0019386588557,-1.41971239825315,1.76008140761717,0.00866539028102945,0.00369026788142258,0.00941844285215018,-0.0577776182113554,-0.10964105740642,0.128696380710809,0.00830853115611825,0.172282734888331,0.173336993222425,15.4122713441722,1.76474517453269,1.96943221188252,0.0290756557244903,0.0567448478799263,0.127905237513523,0.481538910445013,0.023360932754745,0.00756589145331659,NaN,NaN,NaN,NaN,1.79698325918466,-123.928221238646,1.5,stable,stable,1,0.50402244067573,0.239723493042949,0.156967965861407,0.956122206958778,0.343153227771768
17,1.84643999628119,2.6701340675354,-1.01314593308374,-1.51687640099439,1.84643999628119,-0.0661639195193988,0.014812278263088,0.067801680167328,-0.0583118633938223,-0.124493339736702,0.141808274579894,0.00914758743977583,0.152467600669121,0.154703162835819,15.4260040094887,0.905759504834413,1.04228144792447,0.17646663245828,0.240254997489765,0.167742820088419,0.419570516291608,0.158557192408546,0.0355539001356773,NaN,NaN,NaN,NaN,1.90606506718967,-122.683382350962,1.81024695524326,stable,stable,1,0.52332463157548,0.197761474062875,0.20205543868884,0.896460647713469,0.325447635516258
18,1.82244371804031,2.59494805335999,-1.04457424834772,-1.47075754771388,1.82244371804031,-0.0570045446369221,0.0181454842169289,0.0598228777870946,-0.0607361306679066,-0.116163307041248,0.134990993439167,0.00870678345935147,0.145544914355053,0.147718463997056,15.4273608526188,0.852024211361263,0.986102707724368,0.175983368537049,0.240281462947859,0.141541300459729,0.485119379499847,0.158839944483812,0.0351994136299376,NaN,NaN,NaN,NaN,1.87952489310621,-124.36494621675,2.10515023300783,stable,stable,1,0.515528684276828,0.184781003041227,0.194263919480953,0.89756588993866,0.337092755351231
19,2.61313192062952,3,-0.78185536033083,-2.45808113502942,2.61313192062952,0.00748428889023146,0.00372805695296819,0.00836139873687511,-0.0413142982850481,-0.314970808035223,0.319801441015038,0.0206526723607882,0.199448587562246,0.201888767764937,15.4005571578556,2.24753301005286,1.82257338064995,0.0226133080450684,0.0716546454368346,0.137427661675679,0.500700677288073,0.000229257186799267,0.00503932414448726,NaN,NaN,NaN,NaN,3,-106.031594526481,2.13575255684879,stable,stable,1,0.737212932387526,0.0885782409601184,0.0550813181661792,0.956713938621944,0.338921039255254
20,1.90005987640974,2.67193984985352,-1.01309399652652,-1.59253621297742,1.90005987640974,-0.0430729978568269,0.00392149863566696,0.0432511421343269,-0.055900407556271,-0.133892818854443,0.147424120762771,0.00950992013253583,0.11832005222881,0.120709264300983,15.4040711344603,1.05895100700318,0.961284739253423,0.176441605070448,0.240230732538009,0.151873385021624,0.453315039821289,0.159430044858575,0.0366463697550508,NaN,NaN,NaN,NaN,1.95533603544456,-121.682915799118,2.18551451253881,stable,stable,1,0.53082448656946,0.18160237008281,0.193145172402809,0.895905916601331,0.332500717768167
21,1.92750151213762,2.88179516792297,-1.06352495401196,-1.57484310918276,1.92750151213762,-0.084604270440718,-0.00853295586667052,0.0850334870073473,-0.0670255465061379,-0.136979124802214,0.15839806055804,0.0102184911635704,0.185931230546526,0.188431116759936,15.3881462997422,1.07431011919746,1.08773912716541,0.177139099935256,0.240288546730006,0.184845512505326,0.457656093108278,0.157924095326544,0.0369897417443428,NaN,NaN,NaN,NaN,2.01006102178809,-122.843348050567,2.18935777167459,stable,stable,1,0.551686626588686,0.230305545169718,0.221822629093389,0.894442920239521,0.317846438886522
22,2.6357922916827,3,-0.742125679401543,-2.49454963570189,2.6357922916827,0.00858665964713698,0.00401274036247455,0.00947801715088145,-0.0380479155301658,-0.323641845889318,0.327626805687199,0.0211542922920193,0.196398320877237,0.198952807084636,15.392777458043,2.01813587665446,1.75809693680111,0.0306884705990301,0.0636641824660275,0.119279758715052,0.519256821537064,0.0244756539241307,0.00653662719962478,NaN,NaN,NaN,NaN,3,-105.373889448931,1.6673053618415,stable,stable,1,0.742668505865647,0.0836843708490543,0.0634656462654754,0.954985364023334,0.346986773904421
23,1.67488250982117,2.60137581825256,-0.81655617382598,-1.43829235189645,1.67488250982117,-0.0635752870413003,-0.000155799631699942,0.0635754779447938,-0.0403161349138546,-0.114225685087908,0.124109863879544,0.00800439696215885,0.17006290075072,0.171910580944965,15.4380467905079,0.844313417272308,0.860127977846405,0.176357107057642,0.240245618510024,0.155466744519833,0.408683294414929,0.15843758913758,0.0369258263889719,NaN,NaN,NaN,NaN,1.75191981509009,-118.497538474994,2.36055223709289,stable,stable,1,0.481017452141305,0.220116498686942,0.215914178727888,0.898429406938103,0.330903669102296
24,2.67750536375349,3,-0.635324493906667,-2.56409182299632,2.67750536375349,-0.029200946229457,-0.00717348573264264,0.0300691562610604,-0.0284162987390423,-0.337735636532681,0.340199554190467,0.0219573070870566,0.201471681117829,0.203489617353521,15.4132534020114,1.75529884775156,1.2910318014632,0.0630078929841842,0.24034244657275,0.126286112429762,0.394742975909705,0.00170196566260756,0.00980703824180453,NaN,NaN,NaN,NaN,3,-102.185830974197,1.6189899615985,unstable,unstable,0,0.754699353804968,0.078073971803326,0.0511670079896693,0.944560598406935,0.343872838920106
25,1.69867815416913,2.40758204460144,-0.93677201777833,-1.40398528186112,1.69867815416913,-0.0117213201937244,0.0278305671488493,0.0301981756884488,-0.0490838326280584,-0.106010673517127,0.118805716649107,0.00766174774582272,0.13027257788283,0.131566973076335,15.4596474281511,0.721890122434875,0.687632909687151,0.141787271919491,0.241117462037741,0.220557838506582,0.448514666128062,0.142496513389957,0.00500130239461534,NaN,NaN,NaN,NaN,1.79680657025774,-122.144595008979,2.4100640979376,stable,stable,1,0.479294235727034,0.16503970755682,0.164174263679185,0.918031540216439,0.301974293997074
26,1.78254694706642,2.68558979034424,-1.00609604376644,-1.4485858303504,1.78254694706642,0.008118575968468,0.00636210420816166,0.0103144387007386,-0.05857265647488,-0.115077508537287,0.132956540456786,0.00858139054581044,0.148822198330283,0.149566061757765,15.4436148234124,1.50843429553391,1.5943223961231,0.0227359809779494,0.0952858792951786,0.145730209681411,0.397214885873597,0.000324716127411575,0.00852703498740718,NaN,NaN,NaN,NaN,1.89015622586425,-123.159855511628,2.21878879103443,stable,stable,1,0.505259064902597,0.205075620165979,0.126290430373858,0.96425320693372,0.335231017919373
27,1.69948210292215,2.75699400901794,-0.822823497626989,-1.46253892538318,1.69948210292215,-0.0708089501561244,0.00156236969373734,0.0708261845737325,-0.041078830851456,-0.117348924484875,0.127316549911176,0.00821155339340691,0.179440839286765,0.181415067343228,15.4610012550479,0.877857701724235,0.749824331762879,0.175359200428397,0.240241498282112,0.129728065285658,0.394937669006255,0.154735534130652,0.0404828923436343,NaN,NaN,NaN,NaN,1.77620387229689,-117.832865156267,2.0012089675076,stable,stable,1,0.489478240914551,0.250924979376739,0.234047387889877,0.899531469522689,0.342343082095263
28,1.72980198868223,2.52524304389954,-0.981935276937293,-1.39446109275315,1.72980198868223,-0.0765567059689537,0.00744268621812549,0.0769176365143802,-0.0565709072296973,-0.106750482061375,0.125804633187763,0.00811327019859496,0.172856480245407,0.174812574487722,15.4664738290989,0.744528957670796,0.807812023372144,0.176358260117734,0.240221182035094,0.133327786987264,0.429852336761665,0.158568064114406,0.0354835493525256,NaN,NaN,NaN,NaN,1.77693740749085,-123.63065316624,2.21149354278095,stable,stable,1,0.496243045212806,0.193075804118197,0.19922328648834,0.899623905090081,0.340743205783438
29,2.62416572076421,3,-0.518290718696468,-2.53903524206035,2.62416572076421,0.00670145509246272,0.0049014416935303,0.00830262795934948,-0.0232682916205856,-0.335035467383812,0.336689918519231,0.0217398281220878,0.193824039485503,0.196542001808024,15.3767233711528,2.0108717414608,1.81932444883417,0.0306478051367957,0.0672964290293904,0.125268891275017,0.501850830040635,0.0242725583277017,0.00879176937516271,NaN,NaN,NaN,NaN,3,-100.208461528465,1.69811010740214,stable,stable,1,0.739085925898728,0.0860848612872666,0.0656357275190744,0.95458169879357,0.344324937211103
30,1.84551132208592,2.58137249946594,-0.940212869069618,-1.56776573845529,1.84551132208592,-0.0609075634884015,0.00193730388174953,0.0609383658824545,-0.0503525580067989,-0.131296091890392,0.143538171201357,0.0092588681370571,0.148951710772355,0.15126142079069,15.4038463977251,0.983409390916761,0.935796748911173,0.176653792950174,0.240238131037687,0.136320215400839,0.402992326206258,0.155813127271548,0.0406747415702237,NaN,NaN,NaN,NaN,1.90894849737311,-119.745808657761,1.51584057979776,stable,stable,1,0.522388636714384,0.176740798655621,0.190085573097172,0.896593626711979,0.339413237599627
31,1.90354659589561,2.62942266464233,-0.947482198410064,-1.62821416199148,1.90354659589561,-0.0653225326771599,0.00310003317845206,0.0653960509592599,-0.0514166186259173,-0.141429794770628,0.153788340876082,0.00992043608957917,0.158168089378977,0.160618825571814,15.4136470176504,0.968767585132153,0.953897301594294,0.175993776964505,0.240248388880746,0.150051901854004,0.393456026690445,0.154725901020352,0.0420964729342648,NaN,NaN,NaN,NaN,1.95935225919259,-119.13516242978,1.54643221624983,stable,stable,1,0.539736190686526,0.17531139147721,0.189261710346215,0.896896458836325,0.333310265842665
32,2.60906545613522,3,-0.643967538469006,-2.4956409657772,2.60906545613522,0.00556303857490105,0.00503110831728534,0.00750062991262033,-0.0307070106935537,-0.325243270541178,0.327988285571279,0.0211752257776876,0.197596217903011,0.200121485388937,15.4189290574832,1.92081658801407,1.75870839443058,0.0280853545333129,0.0548318714015964,0.122907772723425,0.454861834795172,0.0121341208534726,0.006006610583893,NaN,NaN,NaN,NaN,3,-103.01941117063,1.8940038984258,stable,stable,1,0.735775085380512,0.0893353878535565,0.0611783973441838,0.95704676929985,0.345374323234033
33,1.87057873365041,2.74480223655701,-0.818011981113091,-1.66281848482471,1.87057873365041,-0.0568084262042438,-0.00753305028622057,0.0573057076949385,-0.0387935589083133,-0.147628202283936,0.154713504454524,0.00998137956245184,0.152160690381261,0.154658737850184,15.3618118757039,1.12395549783506,1.05042997846156,0.177770357190968,0.240251338795994,0.159350412180286,0.469204840029319,0.158658391479887,0.0348714595499164,NaN,NaN,NaN,NaN,1.93692079365451,-115.089103932968,2.17762878562052,stable,stable,1,0.529752743210147,0.207206334564722,0.207519172141985,0.894030364090757,0.32917759458654
34,2.68606788759093,3,-0.582608836182735,-2.58829065891329,2.68606788759093,-0.0280886025450422,-0.00904048504853621,0.0295076255033535,-0.0246955934570896,-0.342798428856766,0.344653735383787,0.0222506243187883,0.197744854943625,0.199933855500242,15.4126757921141,1.80088942803487,1.55463540043883,0.0632404739108575,0.240264486097219,0.132141335556637,0.471583523039032,0.00185285078741331,0.00927476462526261,NaN,NaN,NaN,NaN,3,-101.157933097739,1.8665022418211,unstable,unstable,0,0.756271541124296,0.0760444566343229,0.0498228049013578,0.942014925106564,0.341270517530383
35,1.82108128473565,2.48041963577271,-0.822167918368061,-1.6112581359693,1.82108128473565,-0.051299717351122,-0.00359460859020986,0.0514255015650972,-0.0377090939796536,-0.13650532949857,0.143042464794264,0.00922613671003374,0.117746389882424,0.120056631588888,15.4413035755393,0.973967214956904,0.834195193283348,0.175854945737414,0.240201257591467,0.182207026756482,0.473773242932624,0.157539330799696,0.0401669874873741,NaN,NaN,NaN,NaN,1.86137587595629,-115.841095627455,2.35229884507068,stable,stable,1,0.509633002247285,0.157779137603604,0.179291140185719,0.897865536780834,0.319019099219341
36,1.99268617358893,2.78573751449585,-0.89801105881073,-1.76469870198546,1.99268617358893,0.00277251154858986,0.00135486149690554,0.00308584995793076,-0.044817039771451,-0.16331379659594,0.17097421773382,0.0110402639593332,0.141050534011006,0.142440484782645,15.4148392989471,2.03235265840412,1.94376672316425,0.0240866829753118,0.0517491543282594,0.125773917078209,0.44686201556213,0.00300771861125006,0.00857457708651227,NaN,NaN,NaN,NaN,2.00134863438598,-116.022448666907,2.08533099442994,stable,stable,1,0.559871076580245,0.17900229086301,0.111856166376487,0.956715720514307,0.344100481298574
37,1.79779912974383,2.5817391872406,-0.806786748517705,-1.58707054974889,1.79779912974383,-0.056192577861173,0.0135816414315884,0.0578106114018891,-0.0375702931973645,-0.134261920885487,0.14141249930744,0.00912222742142685,0.139994701607848,0.142142674506794,15.3496139259406,1.06263469793479,0.91047413772641,0.177424034826291,0.240238067799229,0.140349706106771,0.461716672741327,0.159292309353888,0.0353089814967158,NaN,NaN,NaN,NaN,1.84847057739295,-116.145839673518,1.83372612043689,stable,stable,1,0.507841636166381,0.186985125027119,0.195827286586502,0.895784984592374,0.337622352841435
38,1.9415548322974,2.79437160491943,-0.771543122494836,-1.76049310627422,1.9415548322974,-0.056934148993073,0.00807790343913192,0.0575043463186686,-0.0357261649663045,-0.166281770162549,0.171922440785544,0.0110930755689836,0.160665165853492,0.163342314202688,15.3950843832851,1.21470074295353,1.0110051853138,0.176250282621521,0.240286296664589,0.182063146913216,0.454154885320802,0.159031637855415,0.0396597135777615,NaN,NaN,NaN,NaN,1.9993932608471,-112.620106358339,1.842207315735,stable,stable,1,0.550416418119845,0.202426237331713,0.206558184363045,0.894387169252854,0.319083045816348
39,2.61924170211805,3,-0.63192972685805,-2.50739985407685,2.61924170211805,0.00609934458587618,0.00490518505114993,0.00782705850005491,-0.0304024266632218,-0.327021671275335,0.32973993636969,0.0212854177215925,0.199488103368984,0.202109662310426,15.4115457812653,1.85072148397256,1.65050684298772,0.02941604419697,0.0476262552469854,0.123255503508381,0.440496732954629,0.0232382308356356,0.00681180631444905,NaN,NaN,NaN,NaN,2.9987372183553,-102.731971335258,1.5,stable,stable,1,0.738886386360231,0.0871055777484494,0.0650684697206669,0.957782326761113,0.345219776218497
40,1.90460208541638,2.69421172142029,-0.290622537121178,-1.86382419484024,1.90460208541638,-0.0555385077539433,-0.0134453479143819,0.0571428317820669,-0.00833640872310853,-0.185557600764824,0.185960014797564,0.01199493207444,0.150641420878942,0.153647085788553,15.4100241422894,1.03587059810579,0.65659464730198,0.176290039765439,0.24026528710998,0.140697882017979,0.381669522831125,0.15719948241325,0.0366252744374188,NaN,NaN,NaN,NaN,1.96262077332345,-97.9255988407311,2.05647059978816,stable,stable,1,0.538623306602079,0.188138353927591,0.196067730598273,0.898557038903362,0.337467607992009
41,1.89186915513631,2.60740780830383,-0.277950044828807,-1.85145485652636,1.89186915513631,-0.0570760888996673,-0.0177016898909351,0.0597580935863717,-0.00787761823468988,-0.181860192435278,0.182245698637217,0.0117555461348218,0.149779425398763,0.152902502586077,15.4093060111521,1.05025438966154,0.77940880908734,0.176693581213558,0.240254732113945,0.138308352045302,0.463875650342009,0.15939966948299,0.0368957898080257,NaN,NaN,NaN,NaN,1.94919332297993,-97.076725643542,1.92788416531594,stable,stable,1,0.535078941886899,0.171951847453526,0.187432056859394,0.897277284260194,0.338529621313199
42,2.61633746440594,3,-0.630995315943643,-2.5031269825526,2.61633746440594,0.00315215970919842,0.00495691771925134,0.00587427817759099,-0.0305506020570522,-0.326098534400022,0.32888996731542,0.0212352059211504,0.202494271588534,0.205121430916426,15.3542875882218,1.99038233490155,1.78733694206415,0.0302039609296163,0.0761158391519147,0.124401067805889,0.480744889053849,0.0247927129335391,0.00721677249659674,NaN,NaN,NaN,NaN,2.97766096785849,-102.83550377438,1.50488498526748,stable,stable,1,0.738714276691536,0.0874010215078885,0.0660838773386038,0.95521593950189,0.344710636530716
43,1.81871512032195,2.65860986709595,-0.239442765543152,-1.78325009492257,1.81871512032195,-0.0651904270566348,-0.00638917504501426,0.0655027735106099,-0.00643824274905835,-0.168985268361439,0.169288603385402,0.010920370778548,0.144346149082797,0.147021191733473,15.4130324259961,1.12979728297373,0.745030504458351,0.176631261989106,0.240294312530802,0.148715980123028,0.38139851110511,0.155324200459167,0.0403430083429523,NaN,NaN,NaN,NaN,1.87761184680711,-96.9149867627548,2.08918815918492,stable,stable,1,0.514394937099215,0.200985159834427,0.204294258734491,0.896953579247052,0.33390400883421
44,2.56242086858284,3,-0.650939536161023,-2.44236256964161,2.56242086858284,-0.0336923432450052,-0.0133057507053794,0.0362245358172186,-0.0283794295764341,-0.307830837307657,0.310394145851656,0.0200343524042667,0.219162116580613,0.221040321231433,15.3951270643642,1.69147642109449,1.30572714830822,0.0632715792009639,0.240176093338945,0.11589324826357,0.437137225536843,0.00185398169563778,0.00985655198136568,NaN,NaN,NaN,NaN,2.70268226585959,-102.84402520654,1.66754088893866,unstable,unstable,0,0.727520295868378,0.105096469468684,0.0674660742664349,0.944814753782782,0.348491889660636
45,1.68388187079816,2.40677261352539,-0.250623583132961,-1.64826587921987,1.68388187079816,-0.0489549590960393,-0.010484985600582,0.050065186938024,-0.00640099861342334,-0.144605794362456,0.144907450587246,0.00934738036997246,0.143724649255426,0.146095042760098,15.4262892715874,0.94429972322004,0.815365941375468,0.176843952701832,0.240205098407311,0.138191175352559,0.422701473180341,0.158941718283788,0.0357827771584782,NaN,NaN,NaN,NaN,1.74484723470437,-96.8322370152764,1.65157322568176,stable,stable,1,0.478254174098196,0.171829034718931,0.186750103479761,0.897752079141548,0.338581699843307
46,1.66670663420572,2.56286334991455,-0.233287604255725,-1.62689477542949,1.66670663420572,0.00334907590929391,0.00593506948324001,0.00681478974122457,-0.0069562479089516,-0.143078201503974,0.143477236057784,0.00925914301070319,0.174984518607974,0.176159071567083,15.4317876057526,1.5073240715092,1.56381984949877,0.0290478656758396,0.0518299184996622,0.110110280546017,0.387229871769531,0.0203564753963766,0.00429216798465981,NaN,NaN,NaN,NaN,1.71876069037497,-96.5690723186371,1.56866275538623,stable,stable,1,0.479686916768275,0.202884639153712,0.132338894248675,0.961345650639875,0.351062097535104
47,1.79392764375017,2.48048138618469,-0.137505296076701,-1.77460959147121,1.79392764375017,-0.0449358426970326,-0.0204164549395819,0.0493564746633351,-0.00308712111167599,-0.165985300607387,0.166077707773912,0.0107125104135682,0.126604676579904,0.12937451374067,15.4223785883674,0.98423480193922,0.753468047730046,0.176281741748635,0.240253703903307,0.137335207759143,0.438796237827791,0.159372954314282,0.0365636845435908,NaN,NaN,NaN,NaN,1.8330973949862,-93.5355183886098,1.68501212550715,stable,stable,1,0.504255607748178,0.16352327906938,0.182242276869887,0.898205749592567,0.338962129884825
48,1.70431451718012,2.42464160919189,-0.205068979016587,-1.67388791281392,1.70431451718012,-0.0631847165116328,-0.0203437363859439,0.0663790329154936,-0.00519054326012838,-0.148995571779473,0.149215993738063,0.00962359892503527,0.140467851047577,0.142798556184078,15.4550291451441,0.884835839656057,0.646362952438584,0.180307550181914,0.240228705673209,0.129955050519167,0.400332503209925,0.138870352899108,0.00849088059362653,NaN,NaN,NaN,NaN,1.76093856199151,-95.8152911333806,2.14642839025324,stable,stable,1,0.483043582484849,0.174243085070489,0.169353600829478,0.897815377256871,0.342242199769259
49,2.42342211285683,3,-0.60214702147109,-2.31566626938981,2.42342211285683,-0.000647507370595834,0.0215656990671604,0.0215754175405784,-0.0288005081763522,-0.299222404896645,0.301990552320282,0.0194782500802872,0.203528661402619,0.20518247766466,15.4424519609049,0.991872875428175,0.757821851658892,0.0262281529291152,0.104639011300134,0.263915483000658,0.67991096514139,0.0108696064821353,0.00799249125651037,NaN,NaN,NaN,NaN,3,-103.690253195533,1.8255491888432,stable,stable,1,0.687282392294752,0.133685517822987,0.0879486073649874,0.97313832210833,0.282704229777485
50,1.65433086615962,2.4857485294342,-0.16676548380076,-1.62193054635818,1.65433086615962,-0.0616938413771389,-0.0224327804817068,0.0656457135234893,-0.00474080020764981,-0.142596690965916,0.142859654142726,0.00921491132254795,0.160684160998996,0.163028149163748,15.4076009746965,0.972208980553636,0.799240427900536,0.176489101778908,0.240208340727638,0.153430903451275,0.447168068239443,0.15660131153598,0.0421975683679967,NaN,NaN,NaN,NaN,1.72627812567413,-94.411640590645,2.10829392924902,stable,stable,1,0.473760527475315,0.199104021716088,0.204407566250168,0.89783691804412,0.331808487354989
51,1.56153476399344,2.38051962852478,-0.128379794602792,-1.53396947282891,1.56153476399344,-0.0590513340833696,-0.0319144327343306,0.0671236997920991,-0.00340406534284087,-0.127617790752958,0.127801529563751,0.00824412720430194,0.162635133571266,0.164764617516037,15.4452322953671,0.97647129788783,0.768778197691977,0.176203043502568,0.240190693354131,0.159527436369632,0.368560409398846,0.158312742718359,0.0358300583159567,NaN,NaN,NaN,NaN,1.64198518080473,-93.7945426045898,2.18224557184368,stable,stable,1,0.449362193901459,0.196577606148102,0.201336894789692,0.898185803640589,0.329098917169052
52,2.62942699963432,3,-0.633872596020552,-2.51903891874218,2.62942699963432,0.004680764769041,0.00338460615527436,0.005776254638554,-0.029986037233975,-0.329996817150068,0.332569034249145,0.0214739128662947,0.193970756810271,0.196644958446013,15.4086879865756,1.88945619439093,1.90340522992923,0.0295059385462771,0.0568755473260358,0.131940392221433,0.47829287160744,0.021733461198411,0.00594916303324707,NaN,NaN,NaN,NaN,3,-102.899260755177,1.53561176038655,stable,stable,1,0.740509524925023,0.0844379050993452,0.0624853911598796,0.955445976678632,0.341359825679363
53,1.73266121045055,2.55596041679382,-0.148722608645076,-1.71128050742685,1.73266121045055,-0.051116631777065,-0.0211623186267124,0.0553240795123656,-0.0033399649981623,-0.155683903970134,0.155800552521699,0.0100493909548182,0.142223324391413,0.144752589630587,15.4311311537597,0.9182708859576,0.722195972833842,0.175845565845479,0.240215853068276,0.12651910953059,0.40724832475181,0.156177026277551,0.0424394666209617,NaN,NaN,NaN,NaN,1.76767167051157,-93.7767495596924,2.298915828475,stable,stable,1,0.490993507379597,0.195385069337837,0.202075586598327,0.899187834615328,0.343769284653071
54,2.63621770656024,3,-0.572693358572313,-2.53914315192844,2.63621770656024,-0.0204258338807704,0.00687571435052143,0.0215520332580198,-0.0261951211675472,-0.342270234161822,0.344332344447295,0.0222261232248899,0.202960567892238,0.205043382500713,15.3910293690551,1.79416255480846,1.3080459748864,0.0627329228717873,0.24059920256786,0.138001409645713,0.465563802432004,0.00191485966606986,0.0102067454957819,NaN,NaN,NaN,NaN,3,-101.106544404973,2.14978644056413,unstable,unstable,0,0.744000064916206,0.0858022221212499,0.0560439258298734,0.944259042973647,0.338666040157461
55,1.67878086421941,2.29202795028687,-0.157254145185663,-1.66166514478021,1.67878086421941,-0.0393702719370781,-0.0302950286501973,0.0496770276215854,-0.00288321312593224,-0.145441040756191,0.145511752152708,0.00938673982617142,0.112226784240582,0.114632407454431,15.4220761707228,1.05946598059501,0.736162093636009,0.176722499903599,0.240188724465618,0.140811765835547,0.421603170493919,0.158486355670311,0.0367522437058282,NaN,NaN,NaN,NaN,1.6954412846166,-94.4207914550518,1.95860338741617,stable,stable,1,0.470601378616062,0.147088049429135,0.172055662212062,0.897530243750671,0.337416992961979
56,1.69828155666689,2.45974898338318,-0.0958547092177756,-1.67778223204255,1.69828155666689,0.002465659704112,0.00309554852640141,0.00395751164948224,-0.00214628530332499,-0.149399054285979,0.149494393629123,0.00965251148499784,0.144197052042651,0.145363819370196,15.4106066693932,1.98285225759782,1.9763813190039,0.0154325818110699,0.0645237984616297,0.133393129967322,0.466246831261716,0.000212829959010914,0.00773763476257635,NaN,NaN,NaN,NaN,1.73280982852964,-92.1431804697514,2.41298200970843,stable,stable,1,0.481947845651878,0.172055714813569,0.106141705349245,0.961175445278309,0.340714164458968
57,1.61121693374337,2.33250379562378,-0.208614259708851,-1.5803037251534,1.61121693374337,-0.0527747761920169,-0.0195844232805468,0.0562914437312555,-0.00521610277538227,-0.133949947197341,0.134198707463562,0.00865636325964,0.140121074551154,0.142231678140012,15.4124030853148,0.962766920512814,0.781678652231119,0.17718407305082,0.240216015314653,0.158764384603628,0.428963697053735,0.158706829653778,0.0362156110897315,NaN,NaN,NaN,NaN,1.65239533729994,-95.8334835366937,2.07176312473187,stable,stable,1,0.458104184626235,0.172609641940488,0.187271467022844,0.897701605403031,0.329438051287276
58,1.60434593220015,2.2479510307312,-0.0960123377809012,-1.59019430689515,1.60434593220015,-0.0401278428163444,-0.0220048928831548,0.0457652606230136,-0.00168495278470243,-0.133291363209018,0.133336975237882,0.00860258267218899,0.106154785344046,0.108357861969205,15.4115223266678,1.08275104656496,0.771079024179793,0.176690620486807,0.240191943624947,0.167359860491202,0.382078909248204,0.158269908305718,0.034634400263483,NaN,NaN,NaN,NaN,1.68060545220575,-92.4282145747537,1.92271212278114,stable,stable,1,0.449497154313881,0.153201444950373,0.174857375807971,0.897088882057888,0.325617839781688
59,2.51751532203776,3,-0.508826680881809,-2.43004631565352,2.51751532203776,0.00605009546836819,0.00641290924501402,0.00881640857498991,-0.0233233447203341,-0.310701889359865,0.312523446120962,0.0201815596421817,0.217547006977696,0.219944733526535,15.3816870486054,2.04628665095781,1.85175469624758,0.0271906648541438,0.0548291455667618,0.131432865882316,0.422520267968309,0.0110256572998011,0.00577167369313525,NaN,NaN,NaN,NaN,2.78982386220964,-100.41262924442,1.91264508230569,stable,stable,1,0.715326365915377,0.110175394113585,0.0731043190352631,0.955777199844886,0.341585392941193
60,1.67430046925674,2.42710161209106,-0.089922250974767,-1.65703841240449,1.67430046925674,-0.0508463420951223,-0.0250120178563264,0.0566652586837773,-0.00173988778499594,-0.14549757791003,0.145567306878069,0.00938974217648906,0.132653985946437,0.13508345843071,15.4176389395548,1.01316543182157,0.720081071271623,0.176743918440482,0.240177137964643,0.115457834468452,0.437336919081127,0.159105730432497,0.0363704297131104,NaN,NaN,NaN,NaN,1.72864210057146,-91.9462754292346,1.75689900675454,stable,stable,1,0.473496816821272,0.179768887896416,0.191800601512616,0.898009675398312,0.34868540690291
61,1.62830580080916,2.5213828086853,-0.213568755463425,-1.59090590225405,1.62830580080916,-0.0676392703276909,-0.021665237369981,0.071024315559955,-0.0063600719356168,-0.138950559154428,0.139322655322834,0.00898559859356295,0.168832270112824,0.171007480020279,15.4505011206145,0.876083679720636,0.642383462310758,0.176260929907577,0.240225708060908,0.137168926432776,0.395280470886147,0.156056721936538,0.0408592995300684,NaN,NaN,NaN,NaN,1.6541677253945,-95.777639022521,1.91236633269688,stable,stable,1,0.468416376219831,0.213963451291458,0.212594540959624,0.899938721787394,0.339036032696544
62,2.60492813666927,3,-0.528940752353785,-2.51774905775888,2.60492813666927,0.00672674773651661,0.0033630590908551,0.00752059183570777,-0.0237050587493212,-0.33055736908271,0.332261117884768,0.0214557030851094,0.201516502164016,0.204142109500461,15.3945843264861,2.13116318358834,1.85687640926049,0.0153868731075316,0.0514558992583818,0.132143757425841,0.446835445153715,0.000191894136671144,0.00774339849418401,NaN,NaN,NaN,NaN,2.96888331606625,-100.576107342626,2.43928967050802,stable,stable,1,0.735475925011898,0.0902699444192932,0.0570630342051532,0.960971966645279,0.34126944114407
63,1.55534835602786,2.21825885772705,-0.0862632898135439,-1.54309293532892,1.55534835602786,-0.0401008083805754,-0.0236137418087609,0.0465369061604491,-0.00139450658195437,-0.126002386349426,0.126039902575479,0.00813044236554982,0.106015485169667,0.108131911844495,15.4245187569583,0.909072983101747,0.767450724414693,0.176276015281183,0.240167759992021,0.151237347652887,0.399448001538083,0.157974922639161,0.0360227724626719,NaN,NaN,NaN,NaN,1.60300708299886,-92.1234906695166,1.94516821917806,stable,stable,1,0.436385943976328,0.157686629011733,0.177922244121982,0.898689306086065,0.332783401043161
64,2.65510971295206,3,-0.612647189981364,-2.54880062243901,2.65510971295206,-0.0242512757132024,-0.00114426935382037,0.0242782562403451,-0.0284464519691355,-0.338505943963077,0.340936413777955,0.0220103277255155,0.204114873570957,0.206167350254599,15.376042051042,1.78053911486543,1.56825365887286,0.0629409347967483,0.240286580642172,0.13323306892757,0.39196945319209,0.00190536117579581,0.00906194853580337,NaN,NaN,NaN,NaN,3,-102.201792877698,2.08268478635143,unstable,unstable,0,0.749262726838136,0.0820513282298494,0.0533728781401716,0.942217589379396,0.340785302698858
65,1.50947024411446,2.24617218971252,-0.145576286770006,-1.48121773493541,1.50947024411446,-0.0485653147123651,-0.0193936496694524,0.0522943920570124,-0.00375227093095565,-0.119937245377851,0.120131964747853,0.00774906604635759,0.16577732949221,0.167747998743177,15.4392259615231,0.9381440900026,0.721245513615463,0.176424599973822,0.240165217370707,0.134297659900611,0.417791728152852,0.158873884346097,0.0360124422437925,NaN,NaN,NaN,NaN,1.55228808798252,-94.2268777224065,1.7084775625459,stable,stable,1,0.436074998179159,0.175345242970016,0.188913194590139,0.898749638841804,0.340312151155284
66,1.58501881161661,2.36597084999084,-0.118435901542181,-1.56501632174371,1.58501881161661,0.0032628318708786,0.00412250392427083,0.00525748137640539,-0.00247066566557234,-0.129457382938961,0.129547703857304,0.00836176601264939,0.130930313768047,0.13202170029342,15.4070160177987,1.83043613600862,1.51929673603487,0.0290389854698878,0.0533753770976895,0.115674307655225,0.377477585904916,0.0228074328367464,0.0068170472416666,NaN,NaN,NaN,NaN,1.60696450398557,-93.5145725727472,1.54171210751087,stable,stable,1,0.449076023156447,0.176678080219877,0.118622411217955,0.959161177556143,0.348589196597678
67,1.67068494726347,2.31400489807129,-0.113474344091097,-1.65424982885877,1.67068494726347,-0.0434369409967549,-0.0213527006355153,0.0484015048070357,-0.00220225882332025,-0.143953115167999,0.144016803864334,0.00928776661278002,0.113277698624782,0.115670748115205,15.4350642420971,0.773857844875553,0.594163241991103,0.17637700313278,0.240178225872531,0.123031078160555,0.340928507476382,0.155813253426502,0.0377133245118074,NaN,NaN,NaN,NaN,1.70472744872138,-93.0615211949791,1.57543971045731,stable,stable,1,0.468650135559967,0.153620598146382,0.175136629930164,0.901062761322515,0.345319520817531
68,1.59981740681117,2.40515828132629,-0.151878505026447,-1.56916754392149,1.59981740681117,-0.0684438776876956,-0.0317138720036872,0.075434303008608,-0.0041810694885279,-0.134988109997853,0.135203356761772,0.00872121560394376,0.162485685907165,0.164611454778963,15.358041662891,1.00905696595004,0.827793202462887,0.176813175975378,0.240207611541023,0.127415193751455,0.435531254504632,0.155388848821789,0.0403892468845857,NaN,NaN,NaN,NaN,1.6346567991892,-94.1375227104005,2.25330674564967,stable,stable,1,0.459540266105438,0.195031318984148,0.200767500845072,0.897161017831924,0.343371024999353
69,2.61719086377517,3,-0.403898504413809,-2.55516521807065,2.61719086377517,0.00535390435456135,0.00605995474126571,0.00808624407892686,-0.0167937263962288,-0.339545748659618,0.340475146225753,0.0219953460597758,0.190786355495508,0.193605529984702,15.3933717484214,2.24409300527724,2.24429039001308,0.0222730307694075,0.0644036104105123,0.139397143012667,0.48096063302161,0.00107821759988208,0.00694777271646631,NaN,NaN,NaN,NaN,2.97762147861884,-97.4745863886534,2.18422481459263,stable,stable,1,0.736638669670319,0.0876145337317233,0.0555743908671915,0.953597615080872,0.338045714216593
70,1.69398494427269,2.52188968658447,-0.0924576377853724,-1.67300983298919,1.69398494427269,-0.0527798512241373,-0.0272238835374175,0.0593873095038068,-0.00203355302920406,-0.148336568792222,0.148429879587103,0.00957235572948433,0.129373477364648,0.131791543959486,15.4650865518639,0.883473952735175,0.547920412266064,0.17733375436709,0.240210533024773,0.121775617498487,0.341057451870352,0.158903474544457,0.035247995856155,NaN,NaN,NaN,NaN,1.74106956136438,-91.9626622500687,2.37504457325899,stable,stable,1,0.478087627264613,0.197166240429183,0.201740963760315,0.900086452805731,0.345877503334006
71,1.6250643658158,2.36837577819824,-0.196295984844268,-1.59808334912352,1.6250643658158,-0.0526703079336827,-0.0112180247820813,0.0538516983747063,-0.00437746462673662,-0.135370817718842,0.135535923619498,0.00874243299938566,0.119672018534767,0.121823519309192,15.3749597945815,0.947210608245383,0.788082944592794,0.17589674663113,0.240222877128694,0.13603984349984,0.435289915206608,0.155585617098238,0.0391138439245676,NaN,NaN,NaN,NaN,1.67774962146967,-95.9395937551425,2.13511311693384,stable,stable,1,0.457715201412717,0.177117879154746,0.189643106620191,0.898417177340706,0.339537847333405
72,2.61509574847679,3,-0.567106493049761,-2.51879434360574,2.61509574847679,0.00821748862561801,0.0017871038713219,0.00840956952281477,-0.0258689822307978,-0.332837609246982,0.334946321544397,0.0216099730645958,0.189500867467813,0.192078514146208,15.4537270196672,1.30322003939103,1.15453303688312,0.0211496197400152,0.0808730882939361,0.229470297614935,0.689802345607819,0.0104689456316457,0.00984087692102707,NaN,NaN,NaN,NaN,3,-102.28205700878,1.5,stable,stable,1,0.735774569089718,0.0881452110052392,0.0611184920268747,0.970114273102124,0.298013201060029
73,1.43784298328374,2.39261412620544,-0.171202847833813,-1.41334359318859,1.43784298328374,-0.0345724238517852,-0.0139521453960405,0.0372815618253815,-0.00422196242668666,-0.125011052579525,0.125173167195744,0.00807207868989667,0.129366138300244,0.130613778763987,15.4852463579586,0.606476451515872,0.50440908606394,0.140369599990808,0.243018983813291,0.238082002599916,0.363450839849569,0.156110646365096,0.0419582340536289,NaN,NaN,NaN,NaN,1.730743683828,-94.7490683234343,2.15140949482809,stable,stable,1,0.409547551295129,0.221658460158703,0.217635125246685,0.921086813637897,0.294185776622259
74,2.66418837806554,3,-0.59778190691614,-2.56032353722713,2.66418837806554,-0.0276749843464581,-0.0098225829821111,0.0293664416471788,-0.0265428195874851,-0.336185659819987,0.338414876212975,0.0218469146131681,0.2039281374891,0.205904777930224,15.4113523504686,1.81125913937693,1.50067585468348,0.0634181462113416,0.240546068288409,0.13048542015969,0.401999512736254,0.00192799971367446,0.00925350560331378,NaN,NaN,NaN,NaN,3,-101.440236798872,1.89945504400361,unstable,unstable,0,0.751631189736854,0.0809414625705707,0.0527866774324533,0.942268580512426,0.342006479929027
75,1.6668015871499,2.31037425994873,-0.170756093307727,-1.64666440862357,1.6668015871499,-0.039542018356701,-0.0270939154730847,0.0479338238760934,-0.00345379619309947,-0.144009584451761,0.144108270840719,0.00929597405683127,0.120213303797887,0.122520954627517,15.4467932148164,1.00208373198808,0.771648588865262,0.176178685467647,0.240184810195349,0.168860272322171,0.467650161071052,0.16059423056271,0.0368289427033537,NaN,NaN,NaN,NaN,1.72844746755899,-95.0560971705178,1.77154570886288,stable,stable,1,0.468984614165478,0.153591719090353,0.176922587838858,0.8979741890309,0.324950990079035
76,1.75962613179133,2.47508716583252,-0.22061962403602,-1.73424313473556,1.75962613179133,0.00308247321330276,0.00339202335873494,0.00458338996561852,-0.00473711851180142,-0.158002157896981,0.15815702740224,0.0102108598396485,0.12667624513762,0.127910891845562,15.4201199279023,1.88876776271514,1.84810665221603,0.0215377058111748,0.0561425156874428,0.127178491965233,0.405953484611012,0.000326483349345527,0.00848279413148604,NaN,NaN,NaN,NaN,1.80133462105751,-96.2777836497926,2.19306146752277,stable,stable,1,0.494815813513468,0.16181902081963,0.100321168614048,0.959869990977096,0.34347622579323
77,1.69475217793612,2.39395618438721,-0.139384186905574,-1.67760799716821,1.69475217793612,-0.0473461994554136,-0.0121219128065311,0.0488733401044061,-0.00271074909725713,-0.148008428689054,0.148082546455469,0.00955025345406819,0.105132443861391,0.107563128868527,15.4736980888401,0.950526080248643,0.537368080561458,0.175662377943912,0.240187441579798,0.133476736570524,0.333201778949651,0.156235142890872,0.0418719737511037,NaN,NaN,NaN,NaN,1.75923009576763,-93.8331549635916,1.75878673348563,stable,stable,1,0.473446539890004,0.166281013803969,0.184432621840342,0.90047821405025,0.340677005968656
78,1.76809865836329,2.6306586265564,-0.219727108039256,-1.72987728244383,1.76809865836329,-0.0794630615016805,-0.0271525038636945,0.0839740234196731,-0.00712381978316706,-0.163201542837862,0.163614185855178,0.0105543277422463,0.177477098420764,0.180158674336313,15.4255718759136,1.02167782835707,0.815159885168358,0.176116313560257,0.240258397121749,0.155754200360488,0.424725987662738,0.156393916793368,0.0410135546582994,NaN,NaN,NaN,NaN,1.84421771642335,-95.6415120879709,1.506966019309,stable,stable,1,0.507524710430807,0.209471230470389,0.210105165621698,0.897509546899315,0.330775910950894
79,2.62327272955789,3,-0.406238714582264,-2.56013037158116,2.62327272955789,0.00744360512748321,0.00751010473745387,0.010573974203743,-0.0167193628273467,-0.340975054781229,0.341889556981044,0.0220744406105299,0.199251537145549,0.202058172947545,15.3938750319853,1.92295560351012,1.75082993969717,0.028645294889279,0.0546528464727149,0.12161795634341,0.373117065228455,0.0215094166950038,0.00561335336259297,NaN,NaN,NaN,NaN,3,-97.5958361626102,1.65561209446528,stable,stable,1,0.73995102913828,0.0867021977868271,0.0636222788300106,0.956811894715875,0.345947574958484
80,1.79949445132441,2.62562847137451,-0.239994378713806,-1.76623937612821,1.79949445132441,-0.0537355070974719,-0.0293860902965986,0.0612457919039529,-0.00624772516965954,-0.166501596905884,0.166793244576501,0.010756819631126,0.145916983530375,0.148690119117557,15.4583562377647,0.864333869626574,0.577286635820215,0.175523844635305,0.24025391970977,0.134389606247373,0.372085698730114,0.155225274005727,0.0404228151396327,NaN,NaN,NaN,NaN,1.84269174465958,-96.4089816842801,1.90373290882481,stable,stable,1,0.509603210843354,0.197108549693664,0.201953345990731,0.900911059425266,0.340271286112279
81,1.86317056617481,2.91437721252441,-0.211405334002854,-1.82444949764191,1.86317056617481,-0.0776657916348751,-0.0307463863478981,0.0835303266109145,-0.00686592605876347,-0.181244943672351,0.181618625258957,0.0117151838205338,0.191712233454144,0.194693375457889,15.3796831682247,1.03098150013092,0.787406833105165,0.176399860820724,0.240289748768438,0.137631898136562,0.441205207830649,0.15580399109619,0.0392573929594729,NaN,NaN,NaN,NaN,1.90149022471625,-95.3637271300002,1.77362479068796,stable,stable,1,0.53578415940486,0.251835388640662,0.234622867070997,0.89751273268564,0.338830267494861
82,2.59811791089865,3,-0.399639180524035,-2.53766832634826,2.59811791089865,0.00924205796074818,0.00858278193198951,0.0126126833402696,-0.0161395916030147,-0.335808479046683,0.336673037442676,0.0217440902197886,0.200230032574116,0.20294054927192,15.3641447723845,2.11860537382542,1.99200278188785,0.0296919275044363,0.0555352068357654,0.147915501727014,0.450412538954463,0.0196195097440115,0.00600070108504928,NaN,NaN,NaN,NaN,2.91783086718893,-97.7855854258006,1.73400181967567,stable,stable,1,0.73341955276069,0.0927357953268535,0.0665433324263977,0.952856400738606,0.334259777010216
83,1.68944783578783,2.41475582122803,-0.295371883007585,-1.65312114765223,1.68944783578783,-0.0428116465958911,-0.0131618718353583,0.0447891946172497,-0.00650206522067503,-0.144320277290738,0.144591096182258,0.00932641784907608,0.119646155051664,0.122066252278214,15.4381585132536,0.886679902730321,0.752760572608784,0.175805939255701,0.240185077418284,0.133154603814045,0.368744073828758,0.15583825293477,0.0414803581737668,NaN,NaN,NaN,NaN,1.75027764965131,-99.5200046041142,1.61290228181321,stable,stable,1,0.474932673332398,0.17140564907054,0.187188601799753,0.899215712351628,0.340820176082647
84,2.66331910857235,3,-0.450966431178771,-2.58979645072884,2.66331910857235,-0.0268082626439682,-0.0126170896799352,0.0296289368351196,-0.0187570367054274,-0.343668177466181,0.344855387650789,0.0222614791943035,0.206977697145121,0.209137745069998,15.3967227991394,1.75073324112851,1.37451048511263,0.0629178471845666,0.240451850334149,0.122101100478612,0.375951297402457,0.00188309755713916,0.00856401125006539,NaN,NaN,NaN,NaN,2.95681470906161,-98.270421652992,1.96867934947728,unstable,unstable,0,0.752045977966627,0.0811851723243263,0.0526622215513279,0.943985589987251,0.345732844231728
85,2.02962969444894,3,-0.465577038042366,-1.94584518579012,2.02962969444894,-0.0820546175245617,-0.0199802049048623,0.0844521689783181,-0.0190081374377535,-0.205969355244205,0.207694861986363,0.0133982107319437,0.205474097917905,0.208721242281461,15.435917280642,1.12893461139663,0.829586355023222,0.176707574060658,0.24032160294209,0.154176333361755,0.40087157697278,0.159039457162029,0.0363380210460608,NaN,NaN,NaN,NaN,2.10680641889481,-101.731697741666,1.98461974691676,stable,stable,1,0.582978833642675,0.233816216395015,0.224187758855064,0.896257833947801,0.331477185172554
86,1.95077222565743,2.68514823913574,-0.531901022953185,-1.86275197598683,1.95077222565743,0.00293672317849407,0.0027788331429698,0.0040430504156604,-0.0177883663255411,-0.181837166547621,0.183203568044434,0.0118298653767398,0.139431097981567,0.140910977639221,15.4057526144033,1.97253952540576,1.88252805894219,0.0134595128412751,0.0666944471211805,0.132093555150823,0.454277113606733,0.000284778078870154,0.00506312931777836,NaN,NaN,NaN,NaN,2.01104491577433,-105.279667622794,2.49812848233315,stable,stable,1,0.548388122369827,0.165975828942157,0.101553203334085,0.9629804268452,0.341291753266301
87,2.00999382198257,2.82767701148987,-1.14364633238247,-1.63722524875834,2.00999382198257,-0.0630145718313046,0.0013133181163549,0.0630282561043648,-0.0719018927982803,-0.142527825571908,0.162602159097602,0.0104872443538032,0.142544170180867,0.145098788508108,15.4683438439337,0.822003691127215,0.92818480763663,0.176176098159394,0.240289335110804,0.154773804982787,0.415085288327963,0.156217822307885,0.0403275641195284,NaN,NaN,NaN,NaN,2.06469467336038,-124.238920485483,1.58803272616999,stable,stable,1,0.565018110230307,0.195533897924942,0.201415050773652,0.898160469858587,0.331211642229873
88,1.96263501531369,2.76765131950378,-1.11991693650318,-1.59595778341844,1.96263501531369,-0.0561025929971581,0.00847885863634792,0.0567396861533437,-0.0683467263903515,-0.134802800418444,0.154097603054485,0.00993971329416965,0.129483290202249,0.131958383779926,15.4405173487537,0.914923429504067,1.00123425841431,0.177003563103669,0.240288680208398,0.168108834989977,0.484401792183004,0.157978662842311,0.0373800180929328,NaN,NaN,NaN,NaN,2.00959748573364,-123.70580417537,1.89023636102256,stable,stable,1,0.549761014172969,0.191530944237551,0.198724039435533,0.896442693757378,0.325284962226677
89,2.63152486943082,3,-0.251390054640397,-2.58817685151651,2.63152486943082,0.00703984968429288,0.00551016447934635,0.00893987674226489,-0.00955817816637826,-0.348074099042148,0.348489436715411,0.0225023862997672,0.194472451521246,0.197301546689682,15.4001594438412,1.99055615817278,1.84483060857503,0.0278409973447273,0.0681889024097583,0.11986823192218,0.532000705684006,0.00991307749262931,0.00427762849340354,NaN,NaN,NaN,NaN,3,-94.0907171926139,1.91114612294526,stable,stable,1,0.741200274519489,0.0845458817808135,0.056688842557763,0.955944319588904,0.346725230256809
90,1.95181332810505,2.77706241607666,-1.06215923100218,-1.61589062031527,1.95181332810505,-0.0565626507945339,0.0120540630320987,0.057832809896167,-0.0627190676673563,-0.13920614139089,0.156267552911847,0.01008343656336,0.14972583436907,0.152227851833036,15.3549422476738,1.22018277354402,1.18268437416498,0.177462209761156,0.242893155019273,0.180092843160763,0.448513647512182,0.15854033347468,0.0389892266009701,NaN,NaN,NaN,NaN,1.99637079272466,-122.311062912018,2.27727915743227,stable,stable,1,0.550929124527954,0.196283726607909,0.202410506980108,0.892389224673137,0.319958736372994
91,1.91516973360165,2.83647894859314,-1.15623691252242,-1.49232939303236,1.91516973360165,-0.0802141176552412,0.0070713779677336,0.0805252075909862,-0.0771989628175327,-0.122418491868469,0.151802294533964,0.00979200730301129,0.185284106124344,0.187648487886117,15.4157068766056,0.94456500932665,1.05260376136081,0.178323142497675,0.24030744811005,0.148126252798623,0.459059862993922,0.15940182505145,0.0342889997165943,NaN,NaN,NaN,NaN,1.94546366280019,-126.251978914843,2.12768813749466,stable,stable,1,0.548241626537663,0.2220575280981,0.216548499606953,0.895146388410047,0.334166109867279
92,2.62248727071245,3,-0.474932007149851,-2.54441195581567,2.62248727071245,0.00772725160108349,0.00638354728845355,0.0100229782644866,-0.0212824697658923,-0.337539142147494,0.33892735086289,0.0218844225442272,0.201815840538692,0.204468256456061,15.4012171697466,1.95978873182702,1.87086644670054,0.0294573022385162,0.0508367891051699,0.127129867362197,0.490418884837761,0.0228770338905022,0.00609675814549428,NaN,NaN,NaN,NaN,3,-99.2513675644137,1.61290553922283,stable,stable,1,0.740223590147866,0.0867779101048538,0.0644513196429111,0.955173343906597,0.343497836727912
93,1.70260917737677,2.35235691070557,-1.04028629146626,-1.33389734089908,1.70260917737677,-0.0497957778072763,-0.0015029782811158,0.0498184547245811,-0.0588754459746017,-0.0940896689948749,0.113492268081796,0.00732186900306218,0.119814769889068,0.121735151639842,15.3717483092155,0.926589463393275,1.15741814654188,0.177574990079209,0.240180050370851,0.146465868666736,0.451941324416932,0.157338387029553,0.0354718479056047,NaN,NaN,NaN,NaN,1.74681180591764,-126.657123786368,1.94014089664474,stable,stable,1,0.478376144295108,0.155326623365152,0.176022999816082,0.894838159453762,0.334904058370339
94,2.60790393087599,3,-0.251636842437533,-2.56336346007268,2.60790393087599,-0.0198756795648054,0.0147058681110531,0.0247245868532219,-0.00991787615989376,-0.355135140766718,0.355603503084397,0.0229560665718791,0.199669328660641,0.201816509974399,15.3588681093301,1.71130632766728,1.4693463183844,0.0627262020895512,0.24032565023566,0.125269971197396,0.486985530515132,0.00193364436944862,0.00797503264320062,NaN,NaN,NaN,NaN,3,-94.2734617915732,2.1818499031396,unstable,unstable,0,0.735804350228477,0.092754456475993,0.0594120832533833,0.943646056736247,0.344324457245602
95,1.75702032954135,2.59820580482483,-1.1072638665877,-1.34855924253801,1.75702032954135,-0.052049813695339,-0.000999827328591244,0.0520594156748469,-0.0692349064125977,-0.101047494428098,0.12556891776104,0.00809919708400135,0.139456385128803,0.140658426041535,15.4491312434746,0.75702508389594,1.05090738499998,0.176913150359286,0.243388158010834,0.235691934352051,0.48389734575477,0.154152487986064,0.00510445240423898,NaN,NaN,NaN,NaN,1.86493072097439,-128.583435678336,2.0292618145183,stable,stable,1,0.496670439752667,0.198810958145838,0.189654956280831,0.897338241136175,0.295248029176866
96,1.6405118087522,2.50751304626465,-0.993456894499078,-1.29301198467375,1.6405118087522,-0.00438748420680304,0.0194415480979082,0.0199304744075053,-0.0555625503855783,-0.0930791713921123,0.110666589600866,0.00714006639471727,0.125376978871173,0.126096193509376,15.4477049281122,1.16590874248438,1.28434272476062,0.0177771631472392,0.0677919932254566,0.225255334113297,0.659131898904773,0.000351295720754833,0.00872878204419234,NaN,NaN,NaN,NaN,1.76269102467469,-127.19753908103,2.33944437343853,stable,stable,1,0.462689054369129,0.198729198748343,0.122567753241977,0.971859442612313,0.299886518171868
97,1.7719230929742,2.69286847114563,-1.08961772534258,-1.36554698929297,1.7719230929742,-0.0691184511716255,0.0194191285823756,0.0717945878688861,-0.0682613782021779,-0.103506104245764,0.130125172858216,0.00839250054590255,0.18985798522876,0.191855473853715,15.4536694916056,0.861244451618401,0.861282477530165,0.176159646031965,0.240243200269849,0.139083302388903,0.428513132026161,0.157798509333011,0.0380268547125523,NaN,NaN,NaN,NaN,1.81622668042125,-127.513201967813,1.5,stable,stable,1,0.510883919563863,0.220375051197868,0.216185648701593,0.898386036826422,0.338185198938265
98,1.86650113640605,2.72658586502075,-1.18858120249288,-1.41596294475869,1.86650113640605,-0.0592007804934469,0.0139088557454215,0.0608127345149042,-0.0780507474881396,-0.108630456414374,0.138528064069767,0.00893774841052989,0.156438704418193,0.158633543899826,15.3602468651924,1.06988313699637,1.2001404991448,0.177273136806706,0.240232471450038,0.153409922908994,0.505722982496877,0.159502985085308,0.0376592862218154,NaN,NaN,NaN,NaN,1.91962505408224,-128.853168090004,1.70594336411225,stable,stable,1,0.529460345154911,0.204668065266041,0.207385340651937,0.893527531598395,0.331817812040447
99,2.63965135075177,3,-0.154066548246816,-2.60471557152785,2.63965135075177,0.00510658534996068,0.00678892120146828,0.00849509652777286,-0.00544191344999985,-0.351854339058845,0.352118653158782,0.0227397394494482,0.187922168368225,0.190765485911419,15.4130330874136,2.04256711480317,1.95836187863501,0.0143893108164694,0.0461053603603849,0.140461071925871,0.450470815486184,0.000237845517235906,0.00625200228389779,NaN,NaN,NaN,NaN,3,-92.2002194325483,2.47561432342472,stable,stable,1,0.742060124049422,0.0826358804442772,0.0519606927613006,0.961369473929037,0.337572856921835
100,1.59663089169752,2.5820734500885,-1.01471052808055,-1.20248304621886,1.59663089169752,-0.0744535856273987,0.0110339461162947,0.0752667548102991,-0.0600501364920383,-0.0807236896041554,0.10609678267506,0.00684246767072852,0.172316727889425,0.174021843913574,15.461330737597,0.595677429350693,0.877974041789677,0.175552303816999,0.240240762176215,0.13718927888674,0.387631539103331,0.155553547142748,0.0415818537768546,NaN,NaN,NaN,NaN,1.68546986904653,-128.540481584722,1.71324374448487,stable,stable,1,0.46057260656872,0.235523480686526,0.225569672353811,0.900645157961112,0.339026987161449
101,1.63119739574074,2.26264071464539,-1.04230983085314,-1.24020234591327,1.63119739574074,-0.0467660650449159,0.00998515832374393,0.0478201654800099,-0.0590219584777019,-0.0822606940295442,0.10387713244395,0.00669977456575159,0.125283197632508,0.126933862496921,15.436683492833,0.739151309509254,0.976507766726543,0.175653077475429,0.240201132265357,0.148575631101782,0.482127535633517,0.156432111064778,0.0397402415912082,NaN,NaN,NaN,NaN,1.69807149429304,-129.55767099295,2.29326236877595,stable,stable,1,0.460372744696915,0.150841777091547,0.174481445892643,0.898693282806147,0.333966386176986
102,2.62929355659612,3,-0.1421328571698,-2.59343120286762,2.62929355659612,0.00705748570589073,0.00233502502259263,0.00743373703765378,-0.00504173165054249,-0.349480681687785,0.349727641017656,0.0225781492695616,0.197476220944937,0.200370114656466,15.3891941413418,1.96060443353268,1.63815801182082,0.0280874239112316,0.0699221420748505,0.128845198150998,0.474818701013272,0.0208299699188031,0.00859370814638282,NaN,NaN,NaN,NaN,3,-91.8482151525671,1.70491586331547,stable,stable,1,0.741218971356926,0.0847718015561085,0.0632458301225249,0.957680297402321,0.342735467488445
103,1.70654499369699,2.46837067604065,-1.0783163135924,-1.302632531965,1.70654499369699,-0.0570573518149654,0.0116341309560142,0.0582313867191777,-0.064203625120309,-0.0907246752620001,0.114863789358411,0.00740832763180304,0.138705876763891,0.140565623427622,15.4396334981365,0.810988736889115,0.902389056741297,0.175896220191998,0.240198691703704,0.138747297798221,0.391547554729134,0.158287047021684,0.0364523336623179,NaN,NaN,NaN,NaN,1.75398132014352,-128.600052606655,1.7965838194393,stable,stable,1,0.483191789671387,0.182086532759173,0.192857112390833,0.898589635811191,0.338334534311902
104,2.66484248695882,3,-0.362326194811509,-2.6075767269926,2.66484248695882,-0.0259479381967049,-0.00956317228547703,0.0276541092935884,-0.0137265628282896,-0.349486080464515,0.35017147805883,0.0226065513484806,0.200732902369858,0.202848800752934,15.4060645071887,1.89588850935423,1.48193776331274,0.0632769354135412,0.2402733797625,0.132257970913089,0.430714865779101,0.00184387548393593,0.00949016118089322,NaN,NaN,NaN,NaN,3,-96.2939600424606,1.87820675925887,unstable,unstable,0,0.751194423339604,0.0804803604714243,0.0525586842000802,0.941821468722275,0.341218679594183
105,1.73761520209728,2.37273120880127,-1.11698378316426,-1.31652592420218,1.73761520209728,-0.0485172820265507,0.00837835417677276,0.0492353884310392,-0.0668557843823699,-0.0918694302396749,0.116339167429096,0.00750570145048748,0.105880136555127,0.107753545365915,15.3931774720962,0.94523382732977,1.16682128915274,0.176166825658921,0.240187504030823,0.164013549524038,0.471404894243171,0.156744730614435,0.0390514729504951,NaN,NaN,NaN,NaN,1.78074250763471,-129.221424924807,1.72061573578377,stable,stable,1,0.484914762965792,0.15192758938742,0.175021413968341,0.895321868398177,0.327105089100428
106,1.85164445698461,2.60333847999573,-1.07196085290109,-1.49426308104688,1.85164445698461,0.00571706437757197,0.0013575504925968,0.00587603339313624,-0.0622411988501581,-0.117305938104313,0.135600333337972,0.00875436333385821,0.126868443453672,0.127925094294265,15.4273241391852,1.86923878534241,1.87012812882547,0.0199429884631031,0.0530433553238112,0.128350296455897,0.464779280142865,0.000227049621776986,0.00720267135974295,NaN,NaN,NaN,NaN,1.88415857146299,-124.959215831678,2.2393020672105,stable,stable,1,0.519356874054748,0.170208427966244,0.104845120944483,0.960647765728558,0.342955423797379
107,1.6729571159254,2.29364109039307,-1.01073289711119,-1.31974139895331,1.6729571159254,-0.0436371066748823,0.00902300880916223,0.0445602038474385,-0.0556623358056141,-0.092601879632484,0.110301742368091,0.00711550127385935,0.127816943937805,0.129659155893303,15.383622899085,0.93236570986827,1.07111619167344,0.17621742362413,0.240198698263442,0.145923261125052,0.493533081831144,0.156061531592792,0.0402431932798082,NaN,NaN,NaN,NaN,1.72726488943798,-126.550224489005,1.52836020139517,stable,stable,1,0.472053728758767,0.147823264960589,0.172688528149646,0.896149644675822,0.335145217277755
108,1.67821314510883,2.61329936981201,-1.0279954299908,-1.31281492100058,1.67821314510883,-0.049761622604648,0.00416894876642216,0.0499359511581032,-0.0575024665066895,-0.0918450387482859,0.110791210097742,0.00714566146062863,0.119975249555675,0.12172810886002,15.4472335808407,0.811964970869875,0.931950257180535,0.175657940690118,0.240206741471372,0.153276345254043,0.428622808204044,0.156108875465192,0.0400359374467404,NaN,NaN,NaN,NaN,1.72684939224008,-126.925173742408,2.16044861757212,stable,stable,1,0.471869127134359,0.219549324937201,0.215669840099201,0.898468838577402,0.331877179887092
109,2.63001824820719,3,-0.30355490561498,-2.58032174714937,2.63001824820719,0.00623066198922267,0.00652014527040548,0.00901850559522669,-0.0123116774031999,-0.34615912486503,0.346744118646295,0.0223907746737844,0.18925872848511,0.192031569872295,15.4061298856179,1.99701837544039,1.99868181685212,0.0286199803811075,0.0522239949033112,0.138640289545699,0.433723703678978,0.0223945128804904,0.00542361840591521,NaN,NaN,NaN,NaN,3,-95.4171668207032,1.696186845277,stable,stable,1,0.739744513496378,0.0848992868458395,0.0628649138181554,0.954295222584291,0.338382093535245
110,1.62957772392555,2.31982469558716,-0.965336306190824,-1.2915514225315,1.62957772392555,-0.0536039389032573,0.0192001712150436,0.0569388166423498,-0.0522439709707383,-0.0900334375114049,0.107615449685269,0.00694145085899443,0.131177143989403,0.132808646760333,15.4231466507133,0.92267698393068,0.93244676520526,0.17663992031876,0.240226025177334,0.143134345835579,0.45812032487777,0.155371044528202,0.0408371960237125,NaN,NaN,NaN,NaN,1.65985778043302,-125.136897277648,2.48557287912535,stable,stable,1,0.461115789065545,0.16574435167496,0.183350298036234,0.89710406752598,0.336384735184187
111,1.54095218471579,2.15926265716553,-0.937908611626757,-1.20981498212401,1.54095218471579,-0.037816288756062,0.0086003802652831,0.0387819318238447,-0.0481558627712303,-0.0780952265639543,0.093768528946615,0.00604776674185649,0.102801635220525,0.10424510600149,15.4389920221584,0.819074299829076,0.878325152486075,0.1764002889489,0.2401631397562,0.156926316445964,0.421449118910687,0.158786817145602,0.0343825430666702,NaN,NaN,NaN,NaN,1.59306398738573,-126.486183134521,1.98030937245786,stable,stable,1,0.431769603791174,0.146229877135563,0.170812587946051,0.898463145543074,0.330254970468461
112,2.63304743639203,3,-0.24578570111415,-2.5869635253416,2.63304743639203,0.00527623530957629,0.00478767049939632,0.00712463668216208,-0.00999544296798187,-0.347575893558888,0.348062381934051,0.0224739512572779,0.198735613024595,0.201487287571711,15.4166285972011,1.89113270653844,1.85473141108156,0.027782256090764,0.0468735435263921,0.125105559507421,0.448840989554192,0.0199629355305417,0.00665998963119887,NaN,NaN,NaN,NaN,3,-94.1056534981467,1.61326025804358,stable,stable,1,0.742443440552216,0.0838705102035234,0.0616165363248109,0.956677082459032,0.344397529107813
113,1.73913660887125,2.46263957023621,-1.01414378848447,-1.3937363098464,1.73913660887125,-0.0571368699438378,-0.00596369990639471,0.0574472594955805,-0.0575035683893639,-0.104202764660297,0.122358850505308,0.00789233645170489,0.1368417983284,0.138863809280133,15.4512881545332,0.823842523981503,0.960832777264497,0.176571959457494,0.240224417989375,0.16489611931904,0.379351718116567,0.157483358186157,0.0372121228750462,NaN,NaN,NaN,NaN,1.77528590773906,-124.910768203071,2.07544011066449,stable,stable,1,0.491542524221694,0.173320163881304,0.187516383012546,0.897691571475749,0.326712835858205
114,2.69190978049075,3,-0.433790881655247,-2.6229977290841,2.69190978049075,-0.0251651128423982,-0.00960729337201064,0.0269366477184247,-0.0179512525372191,-0.350771590303607,0.351863973758314,0.0227121050686327,0.202301813607665,0.204472668506204,15.3474359535992,1.76298746469751,1.39514195175384,0.0638888684923046,0.240250797106183,0.132436565929429,0.529437498406341,0.00188936871481124,0.0108601335141482,NaN,NaN,NaN,NaN,2.9979851142919,-97.9705526263991,1.721088136791,unstable,unstable,0,0.758737141832106,0.0742586848046267,0.0493440697712713,0.943241691767444,0.341139304031365
115,1.84005474077689,2.6400625705719,-1.0473574771654,-1.49881936769111,1.84005474077689,-0.0451408032296753,0.00789768002277114,0.0458264712362008,-0.0602551152533286,-0.119937907847805,0.13666430903132,0.00881508808894027,0.128795338075429,0.130941663239636,15.4383434275715,0.893036694260977,0.980840752245643,0.177185863535294,0.240272126182598,0.172689489421679,0.456724168856311,0.158345327353383,0.0349150840142647,NaN,NaN,NaN,NaN,1.89315516909655,-124.179562229341,2.19078934898413,stable,stable,1,0.516869596855097,0.188403281430515,0.196114064091262,0.896683745438372,0.323249115812587
116,1.65663304316958,2.51720404624939,-1.00700857935069,-1.29550886140725,1.65663304316958,0.00495928568989052,-0.000116426306332214,0.00496065213845509,-0.0561001334196567,-0.0895815675977897,0.109118412546242,0.00704641499932845,0.137964581866691,0.138833671016467,15.4034073065937,1.99638127477028,2.00652328433815,0.0203240350980328,0.0528040557719399,0.135076934951671,0.492250329133515,0.000346608966914765,0.00685406709722825,NaN,NaN,NaN,NaN,1.69700248239393,-126.66944677606,2.22591981600511,stable,stable,1,0.46953554571518,0.194537928585008,0.1193691936161,0.95838658948656,0.339965806688146
117,1.61585820201259,2.39008593559265,-0.962300489413379,-1.27829306857938,1.61585820201259,-0.0506768502461116,0.0124919660767464,0.0521937962532848,-0.0511069961457592,-0.0878747460962231,0.104871687131831,0.00676381805413966,0.140614354570929,0.142194337899254,15.4280926231199,0.815680388373009,0.871486537286171,0.176043750513526,0.240188203801038,0.119712667372753,0.392938302695897,0.155209991543345,0.0412450301064973,NaN,NaN,NaN,NaN,1.6721231422542,-125.43586516234,1.96674117168924,stable,stable,1,0.459334388116542,0.183770102701949,0.194242472850877,0.898721813184486,0.346794370056554
118,1.76855905471223,2.56853675842285,-1.1017797682025,-1.36167032933185,1.76855905471223,-0.064871069493679,0.0147696853707448,0.0665311901532245,-0.0669370410833403,-0.0991668882801425,0.123612473500422,0.00797118382144404,0.139493439195328,0.140992658198002,15.476658827881,0.613051695149277,0.780165939399419,0.181756490359857,0.240780644676061,0.21226488651179,0.427337907269225,0.135451420017182,0.00496421152855792,NaN,NaN,NaN,NaN,1.78141492798702,-127.597402747289,1.71754577258442,stable,stable,1,0.499814279562862,0.192192368196314,0.177321219865103,0.898175044834332,0.305660050439205
119,2.39758640100525,3,-0.342954900757358,-2.34470554744471,2.39758640100525,-0.0339198616924708,0.0155354790521814,0.0373082849594713,-0.0136541482137989,-0.307055465482804,0.307744118977139,0.019851209129162,0.203664167465919,0.205378580005322,15.4405190961062,1.05522114061468,0.919851249473532,0.0224889673879426,0.0725582883714531,0.265215045432489,0.679746805705629,0.0324122199126695,0.0109069746105916,NaN,NaN,NaN,NaN,2.88139783872518,-96.8469577847742,1.78841151096597,stable,stable,1,0.680432089602463,0.142382912016389,0.103801350867801,0.973237090383907,0.282126646474449
120,1.69867211660823,2.26781368255615,-1.00608276405624,-1.35501054058841,1.69867211660823,-0.0449337448378154,9.10078101909588e-05,0.044933837000321,-0.0547078846529345,-0.0968028205635648,0.113477139475125,0.0073202316940168,0.106604700287029,0.108443606439571,15.3820030944328,0.999648619852797,0.997271885941341,0.175353201276946,0.240203043606185,0.145740641481546,0.446580373233688,0.156466474973431,0.0419004223517035,NaN,NaN,NaN,NaN,1.76744363452008,-125.864521808831,1.99782815292285,stable,stable,1,0.474667952383443,0.136294722455007,0.166554006235553,0.896633309673144,0.335226381563757
121,1.70106279369969,2.45609831809998,-0.986195155581886,-1.35664649838125,1.70106279369969,-0.0760777524605347,0.0046882087627688,0.0762220684634686,-0.0571696860833534,-0.101808866737183,0.121811230058066,0.00785667019702082,0.172052698478044,0.17390231803262,15.437687412963,0.702714961126877,1.02855357039784,0.175445201021811,0.240211723948951,0.166903117059999,0.43554624047971,0.156276543010305,0.0402712934302552,NaN,NaN,NaN,NaN,1.76448514358837,-124.664357217421,2.22578055163049,stable,stable,1,0.488397208593107,0.183857038875034,0.194414571364845,0.898674575312829,0.325820836862223
122,2.63302203883295,3,-0.386369698872182,-2.57246902902369,2.63302203883295,0.00553122552002414,0.000909620958894597,0.00560552103218127,-0.0160092323254126,-0.344169342696344,0.345029101639442,0.0222815019520083,0.19916718130684,0.202057482461059,15.3970980210665,1.99032370489789,1.88788140836703,0.0282328473051014,0.051422197991527,0.127764817225221,0.460193725694721,0.020115336138638,0.00632187692225262,NaN,NaN,NaN,NaN,3,-97.1526305433791,1.54246498594027,stable,stable,1,0.742550706847666,0.0835977201184851,0.0613976458014059,0.955411964743225,0.343215636788791
123,1.60842139408892,2.45394396781921,-0.929732479357984,-1.28731698401184,1.60842139408892,-0.0625628147279032,0.0188547117285654,0.0653422217333115,-0.0508196308958135,-0.0919075513683118,0.109157719872159,0.00703998496269267,0.161476330665818,0.163115792904521,15.4698401618504,0.836665528648932,0.763864042141624,0.175326751822231,0.240192878616322,0.125394318377811,0.367207788018386,0.155937569825571,0.0421080479573352,NaN,NaN,NaN,NaN,1.66518818535526,-124.488998271363,2.06836494075218,stable,stable,1,0.461535530337951,0.202221986407089,0.205950795872427,0.899761034604102,0.344269191832084
124,2.64622639723533,3,-0.545974558173903,-2.55645760580888,2.64622639723533,-0.0236273174122799,0.00362348016074435,0.0239035507106357,-0.0237026927094147,-0.344084802714533,0.345818576493099,0.0223191977052541,0.198960699367481,0.20106486459095,15.4020828029362,1.64870800160628,1.31959046005845,0.0629222347885728,0.240628665087078,0.129631612837038,0.430962665614839,0.0018762319134489,0.00995240804697051,NaN,NaN,NaN,NaN,3,-100.530616564359,2.01992641775248,unstable,unstable,0,0.745873345514278,0.0839813782523338,0.0548417652734476,0.945216537549776,0.342385949850205
125,1.55454362002579,2.21890377998352,-0.799252647563307,-1.31521596304044,1.55454362002579,-0.0482590276745313,0.00740189291220251,0.0488233732015199,-0.0363555860689851,-0.0930560623294847,0.102224733216753,0.00659423467272063,0.127598328346237,0.129185231804944,15.4289691505576,0.988583041250555,0.938604997111049,0.176814678393681,0.240190043122187,0.142559129037011,0.458919180156744,0.157678745235224,0.0354509436688527,NaN,NaN,NaN,NaN,1.59718321662841,-120.692341177793,1.78919444921893,stable,stable,1,0.440382011701199,0.158431987744101,0.178029887216446,0.896450469073176,0.336640387094662
126,1.56113348537464,2.24995517730713,-0.864834152722097,-1.28767918576345,1.56113348537464,0.00197091540686968,-0.0002145652746661,0.00198256041474877,-0.0408594672078841,-0.0876630275635891,0.0983826249523283,0.00635303723111566,0.116658510400346,0.117409808343721,15.4317859828231,1.87205762478564,2.09899487875168,0.0277827353103163,0.0541247714411896,0.141714114405656,0.439893917764396,0.0196680760009415,0.00793170092240315,NaN,NaN,NaN,NaN,1.57811714801433,-123.111297136965,1.80032123882083,stable,stable,1,0.439784224435316,0.15534835009418,0.104834632048911,0.954907505531334,0.337015949153042
127,1.46360943621437,2.15622067451477,-0.736954302958656,-1.24810448128642,1.46360943621437,-0.0594141300340127,-0.00825004684465882,0.0599841822536378,-0.0313511341186498,-0.0848161832391017,0.0922522282852496,0.00594897023063165,0.130779759676667,0.132170061006303,15.478634831275,0.717266479969729,0.620373739596591,0.176842516274661,0.240168799510303,0.135276514003748,0.368814403548146,0.158039791760374,0.0371231207595316,NaN,NaN,NaN,NaN,1.53181850141805,-119.504479623187,1.56259160311743,stable,stable,1,0.416729861858426,0.166834628697424,0.183840001307339,0.901068711566077,0.339877104887223
128,1.63769941521971,2.24749779701233,-0.885150911082098,-1.36452396092192,1.63769941521971,-0.0424797385097559,0.0182215390174788,0.0462228587175517,-0.0427516472862984,-0.0986776456139673,0.109417491871375,0.0070576929506319,0.114401266131357,0.116118243730928,15.4391912860259,0.910220654166325,0.918649300020962,0.175639877373052,0.240202122859196,0.154665742042464,0.433127625408328,0.155477778156581,0.0398625463463297,NaN,NaN,NaN,NaN,1.67347133841587,-121.814224359451,1.91711378576573,stable,stable,1,0.459943492804775,0.145678826668224,0.171004002135858,0.897810368816288,0.331259670203349
129,2.60931907130723,3,-0.51169851116252,-2.52422762078644,2.60931907130723,0.00533338263939987,0.00715952044184349,0.00892769305786364,-0.0230674087079025,-0.332660310872503,0.334307559457365,0.0215984586362232,0.20079622055385,0.203461883589925,15.3876445684163,2.23171751676963,2.29842654041138,0.0172454990916118,0.0493276361681248,0.153595325332664,0.418101195379643,0.000203868311563782,0.0131523287739304,NaN,NaN,NaN,NaN,2.98812679975473,-100.15154225882,2.38041434278186,stable,stable,1,0.736510795733246,0.0895399526831482,0.0585972447570637,0.955783261433486,0.33173541096326
130,1.65788455750491,2.40140390396118,-0.938281214282705,-1.34757702709308,1.65788455750491,-0.0543955584199716,0.0121632759688616,0.0557388738504396,-0.0492146459367337,-0.0968829762367053,0.111656080018354,0.00720250952015541,0.126957286606725,0.128691675183553,15.3725031064276,0.870016060910407,1.06797844080336,0.177765707522463,0.240184466865267,0.156128944898073,0.453492066898691,0.1579255967686,0.0340626178254963,NaN,NaN,NaN,NaN,1.67291748571223,-123.514973806059,1.63301942496946,stable,stable,1,0.467840883704687,0.177510646491908,0.189081948496521,0.895890046582446,0.330609357823078
131,1.500558237369,2.27122282981873,-0.749226060497724,-1.27654368144627,1.500558237369,-0.0659904391298828,-0.00722463533437672,0.0663847377961944,-0.0334837594071982,-0.089483312694667,0.0981446662192474,0.0063303967978803,0.151772784313338,0.15330689324691,15.4526184947289,0.885493024787434,0.8499206721473,0.176721480368605,0.240190719842415,0.149498943694534,0.427214492077961,0.157716345204477,0.0373495039937341,NaN,NaN,NaN,NaN,1.54515709711904,-119.107877075441,2.22230661370809,stable,stable,1,0.430810241947781,0.185570068563825,0.19501983237841,0.898003866482639,0.333556025024652
132,2.62454981229776,3,-0.446232819117382,-2.55377485169709,2.62454981229776,0.00832214065397339,0.00460919345249176,0.00951329014311082,-0.0191767067620608,-0.33894994157793,0.340141002054981,0.0219646613029477,0.195995860896129,0.198776563965775,15.4183103144728,2.01390972670033,1.83493122108132,0.0190548928499576,0.0520657419546915,0.134901894085043,0.455353439932118,2.37319064393248e-05,0.00828851210938703,NaN,NaN,NaN,NaN,3,-98.8062245222683,2.29934573974373,stable,stable,1,0.739635262739223,0.0862203954259083,0.0547567891729315,0.96023166041388,0.34004360262887
133,1.62053377356305,2.44105982780457,-0.845792334249409,-1.36938380391858,1.62053377356305,-0.0484747031347846,-0.000882264253594824,0.0484827312990787,-0.0401362265095325,-0.0990711730530313,0.108649486594648,0.00700814127661104,0.126011274756795,0.127839300905515,15.4579214550705,0.879172955761956,0.904865944281602,0.175329566633801,0.240185303467873,0.162289821860973,0.3923698464936,0.155136787306074,0.0399255176932551,NaN,NaN,NaN,NaN,1.68330103474598,-120.509023497779,1.9460772112386,stable,stable,1,0.457710199797917,0.193506862942505,0.199572171082922,0.898317768182757,0.327871190284012
134,2.67224400947635,3,-0.631420274874745,-2.56034690202739,2.67224400947635,-0.0269425323608189,-0.00690991969603869,0.0278145113244773,-0.0292903377272273,-0.337504883178893,0.340109804250293,0.0219583539108687,0.204597417522661,0.206569093549014,15.3891656942308,1.83433809250319,1.49532189695636,0.0632787324017768,0.240263700938755,0.132688915637014,0.465358225113873,0.00192676112460715,0.0085988492658308,NaN,NaN,NaN,NaN,3,-102.269542710179,1.89032874810051,unstable,unstable,0,0.75391222123683,0.0788444249439747,0.0512898475224719,0.942199019596215,0.341027148605772
135,1.65975349174963,2.38583898544312,-0.85612039094201,-1.40893643925166,1.65975349174963,-0.03992618663396,0.00421951580654496,0.0401485328844217,-0.0403001226023867,-0.104958575184546,0.114122636222228,0.00736201842833514,0.108972368096361,0.11080102476254,15.3755891263087,1.02140192231334,0.968829899249555,0.1761839418194,0.240210281765511,0.151197373526834,0.421708936202292,0.158335264288856,0.036558543786578,NaN,NaN,NaN,NaN,1.71044333906111,-120.370167332204,1.77569818187473,stable,stable,1,0.464761136085744,0.170729800443177,0.186103124761123,0.896270493349449,0.332801167321407
136,1.64010666824105,2.33506202697754,-0.754107415829345,-1.44463119371476,1.64010666824105,0.00212550204607639,-0.000829598874659991,0.00228166457673166,-0.0314834952875326,-0.10962572393054,0.115209771680511,0.0074369125554659,0.113546381025244,0.11443736069549,15.4459843289393,1.77188443189293,1.82007773304193,0.0264073398483637,0.048523738829241,0.126166341232383,0.381683007284157,0.0210283725136592,0.00536562855468134,NaN,NaN,NaN,NaN,1.66149639163359,-116.91481150861,1.55392769557909,stable,stable,1,0.460249250336711,0.156783260888111,0.105367037528519,0.958573770208473,0.343926070563386
137,1.46563066652157,2.30059003829956,-0.703420035341652,-1.26044007286292,1.46563066652157,-0.0551204382057802,0.0122130562851866,0.0564572533145421,-0.0303147686026105,-0.0870040172723412,0.0948362739474874,0.006116506294696,0.147655565661353,0.149026714439283,15.4090231354208,0.846846981500021,0.830601665098752,0.176875161836875,0.240172868069333,0.14816392818003,0.458891272395581,0.155523614445242,0.0390485579737513,NaN,NaN,NaN,NaN,1.50463962214456,-118.009747287404,1.93185058333324,stable,stable,1,0.420640187293609,0.198216355091047,0.202250895101554,0.898382465429715,0.33414936525332
138,1.58185176641349,2.2834780216217,-0.719683754912262,-1.39611144820018,1.58185176641349,-0.0440113070696843,-0.00603914277365454,0.0444237143361811,-0.0291525175812771,-0.102637123893733,0.107890900534939,0.00695966120909681,0.103724091648064,0.105503945304229,15.4461250104857,0.829715967546604,0.939004678345766,0.175446242745081,0.240167887471517,0.162969481912579,0.429077822124457,0.15532989835645,0.0383343908355822,NaN,NaN,NaN,NaN,1.62198882751374,-116.427624599585,1.5564122240847,stable,stable,1,0.44292792677111,0.166010255050148,0.182581441896399,0.898379787838305,0.327569119149965
139,2.63461878507034,3,-0.528092820597802,-2.54987036806176,2.63461878507034,0.00605389102122895,0.00704477768993577,0.00928862149070212,-0.0231512157277274,-0.337999935921217,0.33958177806236,0.0219300543905665,0.195625170805075,0.198361784865852,15.3622422121473,2.0350668797541,1.85887413280634,0.0284567726701164,0.0708846342756272,0.132688822296814,0.488566960581095,0.0218942276507434,0.00640911935643246,NaN,NaN,NaN,NaN,3,-100.33835635475,1.68204352199088,stable,stable,1,0.74223736632526,0.0839136872991364,0.0624095690811412,0.955176362851967,0.341027190090305
140,1.56569798975377,2.51178121566772,-0.750318537657269,-1.3465888798821,1.56569798975377,-0.0683059604725304,0.00200809948319287,0.0683354717522992,-0.0342768740795368,-0.0998654349910105,0.108641357652811,0.00700861426137591,0.162742683509328,0.164440942742751,15.4275242164768,0.996759895513425,0.896860436520647,0.176797612337624,0.240193211056861,0.166647162656738,0.397859837358478,0.159512135806508,0.0364434013150996,NaN,NaN,NaN,NaN,1.62484937329115,-117.662804067615,2.28541748672097,stable,stable,1,0.45040765248289,0.225396895651894,0.21938456590457,0.896722748365206,0.325934594374783
141,1.46442479271638,2.23072719573975,-0.765514062841262,-1.2317224740605,1.46442479271638,-0.0504472249188612,-0.0216909516945986,0.0549128390035662,-0.0354426278168423,-0.0860023120567033,0.0950016728916756,0.00612856481369627,0.137181511568622,0.13797050009756,15.3669217368624,0.71761533150256,1.04348164290472,0.166582746630337,0.245182150865984,0.250846550907863,0.500541743780552,0.155981750647139,0.00488314653022749,NaN,NaN,NaN,NaN,1.58700801541868,-119.377240163094,1.93792952787655,stable,stable,1,0.418107378077213,0.182485394497578,0.180592148855742,0.902871436171631,0.28851264404095
142,2.50251572837635,3,-0.605082392277592,-2.39829962275498,2.50251572837635,-0.0290949103405961,0.0183268205506945,0.0343858424242403,-0.0282519117008294,-0.314201699032584,0.316510705657377,0.0204180077469997,0.186399482533694,0.188086157383275,15.4659957856508,1.14653006215181,1.07530580718037,0.0231441671800991,0.0554804330593071,0.24612859158696,0.659990608355143,0.0197903492799132,0.00570455277349611,NaN,NaN,NaN,NaN,3,-102.460692774955,1.71993933499911,stable,stable,1,0.704954759043682,0.118238032226432,0.0818129129536576,0.970970634579483,0.29060951485024
143,1.48162541921074,2.07744193077087,-0.65372509435878,-1.31412021751731,1.48162541921074,-0.0489699467999938,0.00251363633210696,0.0490344170680586,-0.0250495140379548,-0.0924348411568897,0.0971427237715778,0.00626531444338401,0.119173444835259,0.120674178570911,15.4101008590473,0.887641388484812,0.769093117618731,0.176840580763689,0.240163902915471,0.130649162296784,0.468606975620176,0.15772914328441,0.035475854504157,NaN,NaN,NaN,NaN,1.50542716708844,-115.316950545559,1.77686053443126,stable,stable,1,0.419234947503714,0.143048358230174,0.168831167126626,0.898562509927342,0.341933705645874
144,2.67309018552015,3,-0.558096538061889,-2.58164212208424,2.67309018552015,-0.023881593559807,-0.00968691425293942,0.0257714341607062,-0.0247440428246145,-0.34055267524562,0.342394870807379,0.0221033078218446,0.203172865749949,0.205213124437377,15.4040549255522,1.71005773830389,1.43683051493847,0.0627594930764389,0.240237636772513,0.125027921420857,0.394342334879901,0.00182472683450351,0.00922203641043783,NaN,NaN,NaN,NaN,3,-100.955060334027,1.86870721683232,unstable,unstable,0,0.753866674359516,0.0782794711874282,0.0511321402022945,0.943894702900591,0.344432034924064
145,1.609804555371,2.52993750572205,-0.743624332741775,-1.40025397761903,1.609804555371,-0.0695332891560018,-0.00688580512998613,0.0698734041902947,-0.03436501919493,-0.108880986560548,0.117261431423853,0.0075635829251953,0.17401554805016,0.175689826495445,15.4349787797376,0.90223807712522,0.943753416521081,0.17642789302365,0.240218930954192,0.147370608065257,0.464524252140018,0.158155263545102,0.0342890424560594,NaN,NaN,NaN,NaN,1.68254359450145,-116.590495520199,1.5,stable,stable,1,0.464419180064689,0.219840037930539,0.214663993711885,0.897281834609525,0.334501951970997
146,1.73027564191499,2.56648659706116,-0.815188133468959,-1.50036595851526,1.73027564191499,0.00661322919214831,0.00710399221633357,0.00970574601757178,-0.0401835553075763,-0.122306079061789,0.131804139482187,0.00851207626097508,0.184519623117637,0.185542484438617,15.3737531725792,1.99820680667799,2.06913270817985,0.0268542546652451,0.0681797194361107,0.133317216711825,0.46538535066662,0.0128880428816986,0.00679603330783158,NaN,NaN,NaN,NaN,1.779143412243,-117.297381887505,1.92353110475812,stable,stable,1,0.498515334731721,0.189926851677775,0.122155414904409,0.954615205050637,0.340747903683633
147,1.46679517326739,2.21842861175537,-0.732427931670285,-1.25339354431721,1.46679517326739,-0.0588064986298437,0.0013483119041356,0.0588219536065629,-0.0308080446579479,-0.0840735236395313,0.0914621934955513,0.00589899363388171,0.122456127397014,0.123884037064902,15.4695246075192,0.824207239770262,0.800313675912096,0.176043416525075,0.240139246167167,0.138837256320942,0.367452635172818,0.156096813247483,0.0402438046736263,NaN,NaN,NaN,NaN,1.48754464037965,-118.732441752547,1.96265517134269,stable,stable,1,0.415922186950951,0.179901548487666,0.191951401326335,0.89921419882853,0.338294552746248
148,1.72461872366635,2.39193820953369,-0.784948179615649,-1.51612756269307,1.72461872366635,-0.0554886328411399,-0.00559104697477129,0.0557695990738048,-0.0359230173931157,-0.122279721165773,0.129534280061202,0.0083557358568006,0.136653598940725,0.13880275947366,15.4400045994703,0.949150570952359,0.876673839239196,0.176140905004532,0.240228299549318,0.145841136679576,0.370184255557422,0.159306071110817,0.0359398385866411,NaN,NaN,NaN,NaN,1.75445964810256,-115.915142708198,1.90355484559139,stable,stable,1,0.487658878205757,0.160371310817017,0.180094516975008,0.8975837842748,0.3351817170313
149,2.56861162026192,3,-0.601688951766355,-2.46530957885902,2.56861162026192,0.00465188565967083,0.00340743563340602,0.0057663383343727,-0.02778116407035,-0.31763690950973,0.319935460125338,0.0206578806669844,0.204400031584668,0.206899570144978,15.3638317027342,1.8347501767342,1.94790887135704,0.0263598797715008,0.0638543925499803,0.130128596192521,0.416823249370906,0.0160832317960433,0.00795316369026195,NaN,NaN,NaN,NaN,2.89228411426449,-102.374592577792,1.90950189445195,stable,stable,1,0.726343012765507,0.0981195474690372,0.0689118910256176,0.957099167593533,0.34216506835888
150,1.52324024406639,2.17746663093567,-0.651587418451704,-1.366580779237,1.52324024406639,-0.0407946441381884,-0.0079300316436872,0.0415582529978259,-0.0238446817432193,-0.0987012887060302,0.102349925085779,0.00660259715288921,0.109272105487348,0.11084178275307,15.3829521077333,1.04768465342729,0.948180025089242,0.17715583498902,0.240176460958164,0.138562776689152,0.450983537850307,0.158109932761926,0.0351754645642245,NaN,NaN,NaN,NaN,1.57055207434036,-114.528428258895,2.12375611089772,stable,stable,1,0.428365754968319,0.154819950095189,0.17595412930799,0.89574028860286,0.33841654369371
151,1.46978888600259,2.30924916267395,-0.646346682727238,-1.30975427396242,1.46978888600259,-0.0417740759870786,-0.00554030118358314,0.0421398666559237,-0.0238234887869939,-0.0918855210146372,0.0957755985289273,0.00617759764111507,0.114996368175183,0.116564869657848,15.4049990053814,0.850754771269447,0.885649900538597,0.176645314619694,0.240153257443158,0.122811659396556,0.485348279068505,0.156374947031158,0.0349846225711711,NaN,NaN,NaN,NaN,1.53043490962982,-115.371127707452,2.48897775031937,stable,stable,1,0.415256676865594,0.196604204471308,0.200184180076049,0.898034163125947,0.345417040268197
152,2.61912555997587,3,-0.65509327682328,-2.50499538228912,2.61912555997587,0.00550068566503677,0.00359293509576405,0.00657013891694186,-0.030872544147532,-0.326358647534124,0.329088900027826,0.0212583420105277,0.19372109155779,0.196319074027881,15.4003659915788,2.28837489832935,2.1936655423561,0.0245802925356441,0.0454660585365121,0.145062530127314,0.391812511509704,0.00852348555360283,0.00994443717523738,NaN,NaN,NaN,NaN,3,-103.235441300153,2.04584907338771,stable,stable,1,0.737697297465808,0.0869012744735354,0.0595451394585361,0.952493821698221,0.335527764387861
153,1.51429649687453,2.28668355941772,-0.723442743348888,-1.31409600468334,1.51429649687453,-0.0588594135486186,0.00359008138153171,0.0589687989331081,-0.0301166756153126,-0.0920844264691723,0.0985920082373484,0.00635841039442235,0.119818230451274,0.121410838361871,15.4693668046509,0.697644400139831,0.774960318233363,0.176649798658621,0.240166882289761,0.139491487313215,0.374824811851737,0.158131001111537,0.0357095917190221,NaN,NaN,NaN,NaN,1.53053947457772,-117.277382087191,1.64868263609634,stable,stable,1,0.428094566838917,0.184598035543288,0.194024572344078,0.900104635026328,0.338003783416349
154,2.68852332335163,3,-0.667980154048649,-2.57085952422848,2.68852332335163,-0.025149430989546,-0.0127951608972577,0.0282171937209328,-0.0311974335015436,-0.338151535336934,0.340936244208351,0.0220064859527576,0.197656142196765,0.199634961751111,15.4003363192461,1.64322600821484,1.49271811823152,0.0630372416043551,0.240336314111819,0.131424705418697,0.505937925320247,0.00183827573240014,0.00948274912550016,NaN,NaN,NaN,NaN,3,-102.931426400997,1.73870001963953,unstable,unstable,0,0.756866545243991,0.0752554044280533,0.049418526502727,0.943841818204315,0.341589019813913
155,1.65170526104485,2.36679220199585,-0.784647441219326,-1.44103718041273,1.65170526104485,-0.0552402952801877,-0.00950596089604422,0.0560522391631187,-0.0345317278072953,-0.110401553127589,0.117062011081345,0.00755124363921316,0.116869545004893,0.118661555978346,15.4255695789771,1.00017739155132,0.922180637909997,0.176486396103889,0.240207613160928,0.148206444281049,0.416590232679029,0.155341095552118,0.0425694138025942,NaN,NaN,NaN,NaN,1.68981233095603,-117.495671617653,2.27324639358615,stable,stable,1,0.464187047474297,0.171170805560546,0.187222757085687,0.896652560288002,0.334130469208423
156,1.62259381371597,2.27916240692139,-0.710270867552015,-1.43997848120814,1.62259381371597,0.00343384530528808,0.00149098491555291,0.00374357177025568,-0.0293914475583062,-0.109649653864629,0.115168782453236,0.00744038537025707,0.132136167147301,0.133033750991988,15.3643841646245,2.05958438059992,2.35144981264857,0.0244463675935866,0.062200377408595,0.148569344994519,0.482312287218112,0.00662738238460974,0.00481995231533853,NaN,NaN,NaN,NaN,1.64682358488304,-115.230680905002,2.03485700307744,stable,stable,1,0.45929843385599,0.148414254962432,0.0937467661923585,0.953118690399111,0.333969180002436
157,1.66950211371924,2.29457330703735,-0.739099739019454,-1.48519456753689,1.66950211371924,-0.0399988458515031,-0.000213833980157756,0.0399994174260498,-0.0308850024010581,-0.117575262622965,0.122700845496531,0.00791485146720627,0.118846253049582,0.120792172853744,15.4290166294077,0.921842794388782,0.859212988269534,0.176356934207259,0.240186530067976,0.137583837978775,0.404305006319266,0.158169560435758,0.0327966264587276,NaN,NaN,NaN,NaN,1.69535374865113,-115.407012304463,2.31303950933032,stable,stable,1,0.469358998229214,0.147974245024684,0.171008175415695,0.897827523175484,0.338851627564989
158,1.60500500331054,2.27257776260376,-0.745828574314165,-1.40800735757655,1.60500500331054,-0.0454974011851116,-0.00596701134707133,0.0458870214659338,-0.0314373321415392,-0.10492040153592,0.110886865354457,0.00715228106691649,0.118058130160971,0.119782714049238,15.4519702464567,0.940006366360926,0.855928220789457,0.176457927933706,0.240174807306172,0.137392087840906,0.461637572129863,0.159145264368142,0.037008563532042,NaN,NaN,NaN,NaN,1.65925020896733,-117.23842078182,1.94774138639355,stable,stable,1,0.451957877025991,0.158616491443063,0.179358782940098,0.897660121419823,0.338936849848486
159,2.57685755048707,3,-0.737354507985157,-2.43713649927649,2.57685755048707,0.00698097554409468,0.00394082817243119,0.00801649214007445,-0.0371457270680947,-0.311105296802048,0.315023085350529,0.0203448388132538,0.202008392409,0.204414022512399,15.3733365211037,2.07168684312487,1.85359919854848,0.028637295050165,0.0694967338913703,0.130312911746567,0.471203269380267,0.0210392109861952,0.00690402461849119,NaN,NaN,NaN,NaN,2.88835322200788,-105.56852442763,1.78099251963077,stable,stable,1,0.728044817965699,0.0966767413660891,0.0698673596646865,0.954839819290341,0.342083150334859
160,1.52905099903977,2.31061124801636,-0.672842051211465,-1.36253293232882,1.52905099903977,-0.0467462571941983,-0.0107321120655164,0.0479623893384487,-0.0253538571522314,-0.0987007223112409,0.102751961433133,0.00662928247120229,0.11091771328668,0.112552733431558,15.3786530631961,0.975451093439787,0.981051291070862,0.176273955694203,0.240177093128918,0.164435996124555,0.406867173963273,0.156143647354449,0.0410082412208776,NaN,NaN,NaN,NaN,1.56544004446909,-115.546181583882,2.3421168732509,stable,stable,1,0.430257479763584,0.184644160731781,0.195095760757728,0.896490503417458,0.326917335055753
161,1.62662585789725,2.38101148605347,-0.751750256111064,-1.42492853291116,1.62662585789725,-0.0569901718049748,-0.00413044735534379,0.057139655911773,-0.0328850598584237,-0.10923953008977,0.115850570023001,0.00747174743916891,0.130474328519165,0.132268962289542,15.4391272800418,0.836958029260286,0.763201363096432,0.175046445454998,0.240191574098882,0.149103873984959,0.455659172980999,0.154869012080287,0.0404697640124665,NaN,NaN,NaN,NaN,1.70136515468512,-117.053321105748,2.33130170169836,stable,stable,1,0.460220687897176,0.180212369918973,0.191674371809782,0.899904096332555,0.333731611562241
162,2.5694811388003,3,-0.730529535578736,-2.42622655711128,2.5694811388003,0.00920117439959612,0.0090739375697925,0.0129227687958995,-0.0378596663696645,-0.30810191800904,0.312355966228747,0.0201592656029622,0.212256822296042,0.214623910003047,15.4237307029724,1.68248386135523,1.51631083129423,0.0268950343692587,0.0460174020118522,0.116854631910095,0.402920839138834,0.0204955210634117,0.00902844172587777,NaN,NaN,NaN,NaN,2.85921158454158,-105.062668776886,1.58671229100249,stable,stable,1,0.728119752347356,0.099235918049181,0.071933741020637,0.961419095944553,0.348064608039958
163,1.69814835448523,2.35920310020447,-0.775955385018839,-1.49789226657553,1.69814835448523,-0.0427986526482521,0.00141321921522709,0.0428219786681562,-0.0334723553694077,-0.118534455635578,0.124417164732742,0.00802983540844347,0.109506984365538,0.111575297117675,15.3381478423358,1.23601743311403,1.17077769791226,0.177799977041038,0.24116796726163,0.153583882076042,0.474877857510148,0.157022309692847,0.0364921661521004,NaN,NaN,NaN,NaN,1.71874998102098,-116.787170824054,1.83782912183108,stable,stable,1,0.475154620619596,0.156588013875991,0.177010380123179,0.892189478307132,0.331740496855093
164,2.41389230494538,3,-0.735085637138516,-2.26495172065895,2.41389230494538,-0.0153551087714598,0.000871928386674338,0.0153798447487239,-0.0379621738665712,-0.27772666446377,0.282414971809289,0.0182187705545484,0.223364329960086,0.224347067142675,15.4425472891134,1.1730927249418,0.945719861735626,0.0781917293974943,0.25214301181069,0.364101232798751,0.737727059596816,0.0751648469096123,0.12258757955023,NaN,NaN,NaN,NaN,2.64390369362176,-106.697557678757,1.80650481164739,unstable,unstable,0,0.688574028080635,0.134693869591223,0.158800222035857,0.944256322120216,0.238177229867222
165,1.58588152036474,2.57054090499878,-0.692636605881556,-1.39983987032543,1.58588152036474,-0.0689196701947984,-0.0047955934321394,0.0690863130882388,-0.030962975565402,-0.108376299985937,0.115280036026708,0.00743530192190492,0.170512183265385,0.172269313210733,15.4367045967835,0.933039873878666,0.758751319529985,0.176033241867576,0.240201089331219,0.112080414600583,0.435749013855363,0.159784166068619,0.0363471037179926,NaN,NaN,NaN,NaN,1.65443912380199,-114.70021335318,1.99208680236507,stable,stable,1,0.457355601406076,0.234214185608837,0.224760824909413,0.898690733975144,0.350186482399741
166,1.67003254826651,2.37300133705139,-0.72805676013774,-1.48509270818222,1.67003254826651,0.00560063288332536,0.00735033426104028,0.00924091458908738,-0.0308707434272043,-0.116877875530623,0.122538135763694,0.00791327389567489,0.140528287113338,0.141506427210002,15.37096767509,1.87992628361385,2.16834253608023,0.0278479896544091,0.0524902809961387,0.133317410176736,0.403447080115486,0.0211380913794781,0.00757419383006623,NaN,NaN,NaN,NaN,1.6985678915868,-115.061450151433,1.7618360458044,stable,stable,1,0.47364329831307,0.159862145151264,0.108066246672369,0.954268178732342,0.340747817699228
167,1.45344506974188,2.2898097038269,-0.688159156262564,-1.25820919962835,1.45344506974188,-0.0636962035489741,0.000937958085513943,0.0637031091228876,-0.0291406434852372,-0.0871022324585716,0.0940890671503941,0.00606890087756487,0.148282727506706,0.149784928575745,15.3953938137079,0.81027621553755,0.983844886869116,0.176690690430391,0.240159872995798,0.133855389038697,0.431185686815779,0.155145973576403,0.0414035879411163,NaN,NaN,NaN,NaN,1.53242316823457,-117.234742424214,1.76666820058407,stable,stable,1,0.417542337646318,0.199860946008326,0.203926183799358,0.897557988980181,0.340508715982801
168,1.69532755581108,2.35791897773743,-0.843495368584232,-1.45638137053888,1.69532755581108,-0.0477881874275081,0.00704433774252642,0.048304591415697,-0.039737708114338,-0.113153100405309,0.121674248248171,0.0078504158119017,0.12820649566185,0.130113255194536,15.3995191424735,1.01562933500255,1.08847856474515,0.176420507280458,0.241906405225891,0.167037278665175,0.462357448601574,0.156941900385651,0.0393162770235326,NaN,NaN,NaN,NaN,1.76822611766951,-118.998443980142,1.7450047266989,stable,stable,1,0.478109999255196,0.157938911692972,0.178812130751296,0.89525747000461,0.325761209482144
169,2.47644425833903,3,-0.766237798115595,-2.31913226350217,2.47644425833903,0.00730721496294193,0.0061403012665384,0.00954456338228709,-0.0402645020118659,-0.283941525126084,0.289026726247756,0.0186575737524924,0.222162914503502,0.224318202265984,15.3763767650587,1.72506483151441,1.78794201596905,0.0273108981123221,0.0636610475405437,0.121778581759327,0.490940267697454,0.0204405149124827,0.00588285287126862,NaN,NaN,NaN,NaN,2.66549340284327,-107.193726307889,1.644167966879,stable,stable,1,0.705248776010271,0.119549878493804,0.0829538196166351,0.95874235428504,0.345876185884744
170,1.74187386275938,2.43530631065369,-0.765149578953903,-1.55149045129106,1.74187386275938,-0.0513451349408488,-0.0087806417742895,0.0520905226702744,-0.033257430068569,-0.128241165554427,0.133748100286217,0.00862578829001382,0.126631226015784,0.128707143433466,15.4477666737535,0.842440490669701,0.768400388922888,0.17572123901548,0.240210412743045,0.155111683247043,0.40407565819442,0.155663820603062,0.0396629492787892,NaN,NaN,NaN,NaN,1.77840570795084,-115.675983280215,1.90074382455857,stable,stable,1,0.490241125422528,0.165572229932436,0.182950148874322,0.899482773581175,0.331061474112425
171,1.6592757229837,2.23987650871277,-0.813514136989725,-1.43465912678456,1.6592757229837,-0.0528165934409417,0.00354064967107103,0.0529351371283667,-0.0367323506940951,-0.108560167275228,0.115970864894189,0.00748202563944599,0.109324722866755,0.111144162426599,15.422328702713,1.00641059805022,1.07291362859786,0.176262649013955,0.240201998409241,0.190247627154661,0.432826267951373,0.155582111822061,0.0403906986682478,NaN,NaN,NaN,NaN,1.68221562017466,-118.331726157389,2.43134231799407,stable,stable,1,0.464702358614306,0.140339951929241,0.168039103200248,0.89553112799793,0.315445499042373
172,2.42035407685117,3,-0.85186240476714,-2.23226382855215,2.42035407685117,0.0069832197573754,0.0059969224193945,0.00920480508669437,-0.0471103363015701,-0.264663199773975,0.27163065518065,0.0175494031896593,0.221746253679996,0.223843896718789,15.3548203740967,2.23110035086886,2.47380251827017,0.0151055898903955,0.0455953440593705,0.156862558667775,0.434355671752567,1.32401451745826e-08,0.010312597255954,NaN,NaN,NaN,NaN,2.5789773418386,-109.450212225276,2.49166128751285,stable,stable,1,0.690196533170737,0.132107880307714,0.0830147694349386,0.955480111082996,0.330283307258767
173,1.5490116328001,2.44758558273315,-0.731150344116546,-1.34195295740838,1.5490116328001,-0.0658389504047191,-0.00897020010718311,0.0664472112308558,-0.0324071330324914,-0.0982942502517494,0.106012102513807,0.00683822651324945,0.147560154610996,0.149155747176596,15.4125995933418,0.935130943579317,0.976793532958178,0.176467259345437,0.2402253188337,0.163796179672289,0.439801938894458,0.159090721929498,0.0359615618466987,NaN,NaN,NaN,NaN,1.60572032516396,-117.151648626796,2.18233525978548,stable,stable,1,0.442900918182013,0.214361127460594,0.212400595581195,0.896744106583058,0.327201697923427
174,2.3027314737653,3,-0.747436940703924,-2.14566859555643,2.3027314737653,-0.0207740413014947,-0.00287207739725052,0.0209716384808628,-0.0380261141526494,-0.248982538660369,0.254228301384361,0.0164121852487541,0.237679263756658,0.239095148680621,15.3976452889182,1.61792438259095,1.58043940577597,0.0620210268865765,0.240344802696785,0.136504082963991,0.475720947860815,0.0018923581753956,0.00961542284699264,NaN,NaN,NaN,NaN,2.36078838964489,-107.709824257803,2.05050792600482,unstable,unstable,0,0.661880756073539,0.160730218790965,0.100775696751439,0.9438594853624,0.339331518682671
175,1.65444570618707,2.28867602348328,-0.803327381524968,-1.43471065526641,1.65444570618707,-0.039707611090432,0.00402888398254421,0.0399114806121472,-0.0354158640711022,-0.108980855183988,0.115935631029229,0.00747779874800608,0.11323899378181,0.115063772060564,15.4516270101707,0.786263190810602,0.917507840877144,0.176177822516228,0.240186698553465,0.145408687875464,0.404914810060565,0.158639551314805,0.0375355008938517,NaN,NaN,NaN,NaN,1.70036876942666,-118.357386427334,1.69913541623165,stable,stable,1,0.464198276061998,0.150018926170541,0.174167096005658,0.898524316350054,0.335373916499794
176,1.74169790146742,2.64195251464844,-0.886186565884263,-1.47229326118375,1.74169790146742,0.00293195990682612,0.00174953718258128,0.0034142743370254,-0.0467146431772972,-0.117564823339834,0.130224137384275,0.00841050084748318,0.177774006926937,0.1787551376146,15.3872427553079,1.99228448848014,1.90768155246051,0.0271428502261996,0.0522169371679153,0.135227974093694,0.436281554366937,0.019410426099615,0.00530976846954263,NaN,NaN,NaN,NaN,1.79740384781532,-119.424856454763,1.65518686145345,stable,stable,1,0.500203801247564,0.203183238260851,0.1324676238988,0.955785984565224,0.339898678180581
177,1.95216067365352,2.80236315727234,-0.997559127217909,-1.65232562569022,1.95216067365352,-0.0652502009857697,0.0177971397588371,0.0676337705017169,-0.0568162996600215,-0.14630695664743,0.16088393675047,0.0103777702083619,0.165103472387211,0.167592425155424,15.4457166444261,0.996686276979715,0.950877241029964,0.174850512626884,0.240281455206819,0.153417730791857,0.407928414398458,0.156506663597084,0.0424984618526556,NaN,NaN,NaN,NaN,2.00389774569212,-119.82849383685,2.23543948338352,stable,stable,1,0.554094664672023,0.203695083406216,0.207229553326228,0.897272458902196,0.331814341870286
178,1.84843517396901,2.6136839389801,-0.990667153023681,-1.546142451231,1.84843517396901,-0.0494359140970749,0.00337184777407899,0.0495507715381399,-0.0536811491111233,-0.126422599465971,0.139628010709045,0.0090076784458046,0.127878379599927,0.130162857040175,15.3982448257395,1.06209176785474,0.967415453556612,0.176905914540433,0.240220914512402,0.161932761748936,0.43418332032331,0.158190795757398,0.0368623411559898,NaN,NaN,NaN,NaN,1.88108853169074,-121.75609313085,2.4159182560027,stable,stable,1,0.518948617799771,0.181265280242821,0.192470676175401,0.895600914561552,0.32802988366714
179,2.51047127980452,3,-0.657574506246491,-2.39142460467039,2.51047127980452,0.00799060155564105,0.00928140618742023,0.0122472125006834,-0.0313714436397005,-0.300758989190898,0.303804612384142,0.0196182257068821,0.213207612593673,0.215552325210461,15.4048562474825,2.07509583520396,1.98210331255008,0.0194380545665539,0.0713350892449515,0.137330450949248,0.483194838160212,0.000189030603869101,0.00502797924958576,NaN,NaN,NaN,NaN,2.73243854491602,-104.018907315581,2.25664026085753,stable,stable,1,0.712569472989965,0.112389284335774,0.0693459402939426,0.958402979412941,0.338964244022556
180,1.81495919083589,2.54630517959595,-0.927815548775868,-1.53952373893553,1.81495919083589,-0.0763336779329159,-0.0132710805300115,0.0774787194344368,-0.0489722238076823,-0.125672283661493,0.137654332416206,0.00887869177916642,0.132326245849556,0.134420985893614,15.455329887542,0.966850856252402,0.907155168000102,0.176157473062403,0.240212132252472,0.17354569947693,0.398697484802163,0.155804205506432,0.03912408284023,NaN,NaN,NaN,NaN,1.85620598441334,-119.444845846151,1.50186177562958,stable,stable,1,0.51087331473496,0.178757279367327,0.190727620393439,0.8971969304211,0.322868578010253
181,1.85824121736191,2.54859066009521,-0.913456210350595,-1.60346469934997,1.85824121736191,-0.0451662597856767,0.00996982572166682,0.0462535236273697,-0.0463635207922621,-0.135513444722937,0.145180063674702,0.00936551416727158,0.125648997478637,0.128039225658243,15.4079905678834,1.05297300137463,1.00069599186418,0.177023646632377,0.240254901719516,0.165728924334777,0.491125193011502,0.15776718730953,0.0369204791297884,NaN,NaN,NaN,NaN,1.8944468966032,-118.434379956689,1.98750200442077,stable,stable,1,0.521138836428159,0.16380843728001,0.181829441057821,0.895352206022649,0.326342700295655
182,2.43114578285345,3,-0.451368848083695,-2.35798800932903,2.43114578285345,0.00833604838987133,0.00652861072625742,0.0105883171832582,-0.0190131632906441,-0.294387236011384,0.295672383569194,0.0190941196968027,0.220427012153678,0.222773953975199,15.361475943846,2.08080710080379,2.06873801753339,0.0246430112579079,0.0560597765565646,0.141612286289104,0.473758745557297,0.00783141697000125,0.00610326356753751,NaN,NaN,NaN,NaN,2.61222307005049,-99.3162222201901,2.01371529006186,stable,stable,1,0.692860332889293,0.129933390341571,0.0836600325394015,0.955074925584111,0.337061206093731
183,1.83445363109176,2.50329184532166,-0.970465725487787,-1.54339723075626,1.83445363109176,-0.047975043406757,0.00339034154531073,0.048094689994573,-0.0518002235257522,-0.125696521372193,0.137930160204902,0.00889870512903478,0.120685957349734,0.122929835888135,15.4370125666515,1.10035058484931,1.00134083413248,0.176426346794472,0.240237920605683,0.182090154128921,0.411236788231436,0.15934942863161,0.0359109208670977,NaN,NaN,NaN,NaN,1.87171872539055,-121.350351106356,2.4230274149051,stable,stable,1,0.51377360213543,0.159305958034064,0.179464059780099,0.895273536882193,0.319071042609368
184,2.54077636820352,3,-0.284258311780501,-2.49150188172489,2.54077636820352,-0.0259648523537415,-0.0146952823345706,0.029834960711292,-0.0103068200626286,-0.321313585695943,0.321824352848762,0.02077570792986,0.223090847249681,0.225076493171673,15.3779052165506,1.7277498039558,1.46427663695111,0.0632482004290558,0.240284407122471,0.12323163071102,0.43465726037526,0.00189504553719115,0.00973406899784114,NaN,NaN,NaN,NaN,2.70378156394852,-95.0700514349474,1.57508121140932,unstable,unstable,0,0.722555663488607,0.108795059951278,0.069658939885501,0.943295692035489,0.345230386350658
185,2.06391121809547,2.81661462783813,-1.18480003995748,-1.67498716093615,2.06391121809547,-0.0585525400198872,0.00088468700525145,0.0585592231324643,-0.0766994198217724,-0.149150303256968,0.170615386803574,0.0110055502743419,0.131011783650231,0.133787894948072,15.4187112161907,1.05625696533493,0.960353683543702,0.177107778858934,0.240273729607094,0.150589682711054,0.412008463744363,0.159108942545971,0.0358627253864646,NaN,NaN,NaN,NaN,2.15708888634091,-124.745911655981,1.81230036851872,stable,stable,1,0.577133903815073,0.180094124766385,0.191812551485441,0.895601312615058,0.33307125212842
186,1.96424310011406,2.76857352256775,-1.04550710665455,-1.64896678831547,1.96424310011406,-0.00344197705075172,0.00179354298683045,0.00388123723360351,-0.062845723490474,-0.151952426126619,0.166890501315708,0.0107657928592574,0.152520067341522,0.15348218765569,15.4496427019332,0.894472169070298,1.08221968151939,0.0264676348158329,0.101767174718324,0.324812932054593,0.679685071895698,0.0129946964580646,0.0125334591344518,NaN,NaN,NaN,NaN,2.10837557196529,-122.363616262261,1.91801331176604,stable,stable,1,0.554494597561555,0.181685905211573,0.119344585278409,0.97123503233745,0.255638696864625
187,1.76869245475491,2.78317666053772,-1.01653090926759,-1.43437167841731,1.76869245475491,0.0249030326580779,-0.00291357602946668,0.0250728929493343,-0.0671571443517475,-0.127689178458099,0.146659095122679,0.00945818170411871,0.147110103676695,0.148570589976449,15.4743946362243,0.558336284988677,0.825251329362416,0.134409479597499,0.247452778636162,0.231731991703625,0.437129913732413,0.203995765959793,0.0484040139798974,NaN,NaN,NaN,NaN,2.09849345512064,-122.244984043751,1.72125079338251,stable,stable,1,0.501365439263266,0.232855643341843,0.247979630505179,0.92192421465992,0.297008003687278
188,2.02194243750057,2.88452053070068,-1.13600864605538,-1.64590607119194,2.02194243750057,-0.0736192161705394,0.0111297637569581,0.0744557629122845,-0.072366093647331,-0.14430755576366,0.166501171276227,0.0107392321727226,0.152484785631765,0.155090733826259,15.4453232556673,0.841719188317452,1.00730984267203,0.175933901603057,0.240280215754632,0.14686582549031,0.488689795835945,0.158616426418588,0.0354535713835798,NaN,NaN,NaN,NaN,2.08252249604559,-123.526280590972,1.7173322264111,stable,stable,1,0.570202796765403,0.207730294170612,0.208026573797587,0.897504963954982,0.334726299782084
189,2.48764704661226,3,-0.770467424176236,-2.3327796137182,2.48764704661226,0.00702744401660322,0.00130450824635965,0.00714749684654094,-0.0400904724039366,-0.2874908353647,0.292298088211729,0.0188717697727319,0.216321409115471,0.21857077634694,15.4096845603441,1.79567472726098,2.00220851423283,0.0266260825167905,0.0659208966601052,0.127043627524712,0.53039118741942,0.0176311905880622,0.00578773476114292,NaN,NaN,NaN,NaN,2.71977714743149,-106.924123588306,1.50956924447388,stable,stable,1,0.707086701032657,0.116589788934108,0.0798945888885039,0.956846447558439,0.343536165544572
190,2.00673323225331,2.99161195755005,-1.08718529679872,-1.66448622521785,2.00673323225331,-0.0725040648115436,0.00155078599646991,0.0725206477591269,-0.0662843922669299,-0.148780606412167,0.166754184108662,0.0107577790436346,0.169371714189717,0.172080265434142,15.3669694655644,1.00615792529898,1.14512889915435,0.176758351760095,0.240274225994291,0.160321238532892,0.460035929521151,0.159529083024029,0.0361470934545729,NaN,NaN,NaN,NaN,2.06580628279313,-122.281189709167,2.23118467628215,stable,stable,1,0.569544915021043,0.23489316528094,0.224982111465755,0.894717856213533,0.328746116207603
191,2.02840498009244,2.80943322181702,-1.01245856939428,-1.73216213786106,2.02840498009244,-0.0655533455062966,0.0017712436972407,0.0655772705386776,-0.0589389582404353,-0.160990041470798,0.175193532118569,0.0113020002243687,0.171775411459297,0.174476195170098,15.3751487568572,1.1140447593624,1.03715575746608,0.17684517274421,0.240295473653922,0.161025519273977,0.472541101387442,0.158881195862283,0.0365482965747862,NaN,NaN,NaN,NaN,2.07634549688122,-118.754548572983,1.96160964712929,stable,stable,1,0.575803233725336,0.187753853986788,0.196556466883313,0.894675123852814,0.328433102544899
192,2.47027267460839,3,-0.953796362927018,-2.24189231307424,2.47027267460839,0.00573581294162469,0.00542856763787032,0.0078973980968571,-0.0570951246646245,-0.266346898131622,0.276152543831183,0.0178358717132208,0.224503336460099,0.226621475758342,15.3924757858554,2.09414052034449,2.09538481711393,0.0245105565646758,0.0541347791890659,0.140373798943665,0.476743504568616,0.00844319644710988,0.00531340540698739,NaN,NaN,NaN,NaN,2.68099720733185,-111.612146549017,2.02717041415194,stable,stable,1,0.704063675047239,0.120636504530869,0.0780665818935154,0.954827022637632,0.337611644913927
193,2.03599288334718,3,-1.0551613619663,-1.70639459933654,2.03599288334718,-0.0817905401198437,0.0035667839730063,0.0818682746917623,-0.0669331302283838,-0.159804466881216,0.179306379747711,0.0115667635911882,0.214330509932262,0.217090720392332,15.409591379023,1.03062750773861,1.07001222375996,0.17713918762402,0.24034794292026,0.160915684207498,0.48939311903693,0.15884769705357,0.0358402593713943,NaN,NaN,NaN,NaN,2.11900443077325,-120.570247299149,1.77090977081581,stable,stable,1,0.586349579637713,0.231910784940375,0.222778269022076,0.894925379726216,0.328481918130001
194,2.46065555385181,3,-0.954463037425753,-2.23401469353025,2.46065555385181,-0.0139813033046459,0.00679507522833358,0.0155450921340214,-0.0578477189296656,-0.269249288258971,0.279235222578819,0.0180227278819518,0.225975534338905,0.227585299058546,15.4027485384546,1.64389914073997,1.44370160292149,0.0623729751716257,0.240318322196834,0.129906076914698,0.482561501140582,0.0019224081700405,0.00970603879792919,NaN,NaN,NaN,NaN,2.61715863552686,-112.220792726245,2.11119975098295,unstable,unstable,0,0.701691874172192,0.124202433941247,0.0789053326496697,0.944553792285419,0.34226396581569
195,2.02317100643312,2.83495831489563,-1.02923603729734,-1.71904275635046,2.02317100643312,-0.0679003844127239,0.00468132994609065,0.0680615681090279,-0.0605096453379272,-0.157479123051012,0.172265138564481,0.0111124135304545,0.165298506835949,0.168073088506502,15.4189334737793,1.06365970640468,0.870701499760587,0.175297159143033,0.240298498273708,0.160343449728854,0.411253756661212,0.154938548040185,0.0409206427331851,NaN,NaN,NaN,NaN,2.08957514186263,-119.371133784789,2.39170147457603,stable,stable,1,0.573126886083465,0.195130098557387,0.200819869762339,0.897152868094328,0.328736244564954
196,1.95102499839055,2.78721809387207,-0.92488379556319,-1.69665918379675,1.95102499839055,0.00673772600347799,0.00278485386835837,0.00729056669718164,-0.0487464354682651,-0.152055512217842,0.162499704425016,0.0104946462877778,0.156243777777953,0.157476834619519,15.3876591593263,2.02838013748312,2.08055988463064,0.021796449732983,0.0558092716285421,0.141007990907424,0.446897154678504,0.00295130167955695,0.00704761344604567,NaN,NaN,NaN,NaN,1.98818975952798,-117.123132335998,2.15315058845044,stable,stable,1,0.551768699828052,0.189480050377824,0.117562488387888,0.956817246388329,0.337329781818922
197,1.93446689164078,2.63192749023438,-0.861292084146935,-1.71790335947288,1.93446689164078,-0.0515288327821958,-0.00181126810840842,0.0515606565130433,-0.0415835040339351,-0.155696180117355,0.162738056344714,0.0104972856232533,0.124810503155395,0.12738878913542,15.4267138498023,0.960083462423751,0.931658207496773,0.176279686315781,0.240239307183338,0.137631745796665,0.468738608251399,0.155093962989371,0.0400773084366346,NaN,NaN,NaN,NaN,1.96491164649544,-115.571452830696,1.67766061948962,stable,stable,1,0.54133559559796,0.166381421710949,0.183333069948299,0.896996472292734,0.338830335201482
198,1.81550119307217,2.44722175598145,-0.790789205904999,-1.6194115464519,1.81550119307217,-0.0595966152999305,-0.00480723557343619,0.0597901837182862,-0.0355508263216887,-0.138827055885681,0.14479103122593,0.00933852426297107,0.127419656295376,0.129755963215552,15.4584859409562,0.850977665050909,0.838003776493824,0.176367958556431,0.240228898995373,0.162926040602012,0.437939242158149,0.155372578772196,0.0406972531986664,NaN,NaN,NaN,NaN,1.88489007794024,-115.359098105949,2.44409775569506,stable,stable,1,0.510084844129023,0.153098660336272,0.175712676819224,0.898545452252504,0.327588426399106
199,2.46007989760625,3,-1.11848066283747,-2.1590570435803,2.46007989760625,0.00733601436286164,0.00297177385334561,0.00791508348455915,-0.0734206589135235,-0.247170956646327,0.262658087209875,0.0169737481989932,0.216652958466991,0.218687268535925,15.3748794040837,2.31369181732888,2.44474845923267,0.0156514020257038,0.0476178248144403,0.149629263926292,0.403000591117586,3.55623773526345e-07,0.00722677462461358,NaN,NaN,NaN,NaN,2.68563096804021,-116.007396076949,2.47240293614795,stable,stable,1,0.699758759735519,0.122933121677429,0.0763879491067818,0.954786553957022,0.333498104921648
200,1.89657628856249,2.64006304740906,-0.821542700518431,-1.68914244062009,1.89657628856249,-0.0672559417915477,-0.00840848440804305,0.0677795272653059,-0.0394226073265142,-0.152266787371761,0.159383432502922,0.010280911515988,0.155521366221504,0.158000216568178,15.4369395529779,1.00822504953989,0.937258532055425,0.176379616335192,0.240286108046651,0.167634318935261,0.405212160035893,0.156988834527978,0.0397479994848,NaN,NaN,NaN,NaN,1.97177383483815,-114.893051128023,1.73315785048155,stable,stable,1,0.537353720263634,0.179710767405783,0.19205309378371,0.896524249405584,0.325495858250995
201,1.83058790258459,2.85180473327637,-0.771222582349819,-1.63122775136058,1.83058790258459,-0.0761976338245704,-0.00488386825660339,0.0763539885638673,-0.037329185741006,-0.145459060144357,0.152976425306408,0.00986855976520102,0.184095266713329,0.186361938360118,15.4033385305869,1.09675210185874,1.04081603298091,0.176412927821248,0.240261576377115,0.172617990438592,0.495048853777157,0.158972325334938,0.0350363710781799,NaN,NaN,NaN,NaN,1.87135485490829,-114.338554000358,1.5175364380844,stable,stable,1,0.525429161694581,0.243772018142359,0.229658076274827,0.894998357887065,0.323280893138404
202,2.33724474069666,3,-0.953061477421163,-2.10015526299353,2.33724474069666,0.00798179502677391,0.00414358230949455,0.00899323780431658,-0.0566078066424898,-0.236632477543169,0.247156487680211,0.0159603988465429,0.230982309152936,0.232823848118766,15.3983825599411,1.91495337511869,2.03369221294678,0.0230825420328203,0.049398375888376,0.134812561788916,0.500035058924195,0.005116485380697,0.00569540056457768,NaN,NaN,NaN,NaN,2.45321237213052,-112.912057666969,2.10696872739651,stable,stable,1,0.669830033809528,0.150768693607377,0.0948062644177139,0.957433656505933,0.340083305871593
