scenario_id,mean_wind_speed,max_wind_speed,wind_velocity_x,wind_velocity_y,wind_velocity,wind_acceleration_x,wind_acceleration_y,wind_acceleration,wind_body_force_x,wind_body_force_y,wind_body_force,mean_wind_body_risk,mean_wind_gust_risk,mean_wind_risk_raw,min_thrust_margin_n,mean_abs_roll_deg,mean_abs_pitch_deg,mean_abs_vz,max_abs_vz,mean_tag_error,max_tag_error,stability_std_z,stability_std_vz,mean_imu_ang_vel,max_imu_ang_vel,mean_imu_lin_acc,max_imu_lin_acc,wind_speed_cmd,wind_dir_cmd,hover_height_cmd,gt_safe_to_land,label,success,onto_wind_condition,onto_gust,onto_temporal_pattern,onto_drone_state,onto_tag_observation
1,2.03253386296383,2.67655253410339,-1.25330169001557,-1.58275618028785,2.03253386296383,-0.0563404858662254,0.0138297444924807,0.0580130345730134,-0.0846116388252604,-0.131936325497739,0.160399794657758,0.0103481126843067,0.125173977761215,0.127772265372351,15.3767499682915,1.10158460077704,1.0129945330572,0.175052999869276,0.240268712623855,0.131726566543301,0.433550283117278,0.156790611037267,0.0421445840896355,,,,,2.0716688985117,-127.374480982322,2.31472368639318,AttemptLanding,AttemptLanding,1,0.567563483198157,0.155539924011455,0.178333973728758,0.895858949728093,0.341454859314088
2,2.29945698340734,3.0,-1.38741538884988,-1.79512687356014,2.29945698340734,0.0108534186511815,0.0061513044871736,0.0124753854975202,-0.10935792829069,-0.174611296659833,0.215314462727179,0.013901787407862,0.228284959791201,0.229996740061384,15.3905030447053,1.91305760547755,1.82971287698897,0.0196601581314992,0.107926973806446,0.124855402756153,0.429055667572892,0.0002509266581236,0.0045164725364773,,,,,2.42882567996652,-126.095851442396,2.28631398682331,AttemptLanding,AttemptLanding,1,0.6591878769209,0.159909332741228,0.0976994762535307,0.960762438572013,0.344508709886154
3,1.81841967556928,2.43635892868042,-1.12395798827445,-1.41494079432807,1.81841967556928,-0.0306549987340028,0.0289723563306565,0.0421796915438252,-0.0682930480278202,-0.106561311542863,0.129347907062162,0.0083433013717098,0.132744077600362,0.134823353726434,15.4490430645539,0.862285150576152,0.944136620853359,0.176290135801491,0.240268390046952,0.163421140862733,0.431405352397198,0.156685162495175,0.0419105969520822,,,,,1.87319628751653,-127.297520073929,1.59833864626127,AttemptLanding,AttemptLanding,1,0.511876584230427,0.146769275399709,0.172939632311165,0.89766161818088,0.327368381838786
4,2.33446584323357,3.0,-0.656090759218157,-2.20916333161205,2.33446584323357,-0.0088168189680144,0.0146084605203331,0.0170629251738636,-0.0327246006790993,-0.266368986005246,0.270076013991011,0.0174272190177321,0.229960777545724,0.231385121698255,15.4366020270657,1.31734526325737,1.23105996067451,0.0619092289633227,0.240435015848247,0.109504145984638,0.427803136479881,0.0019253438565633,0.0078170270875366,,,,,2.46779887999601,-105.553838771394,2.45316151647757,HoldLanding,HoldLanding,0,0.668801249201936,0.152873388220989,0.0954222966178468,0.949022201616017,0.351331490673494
5,1.8378127553836,2.68534684181213,-1.07486493657229,-1.47019567708661,1.8378127553836,-0.0547830738490563,0.0101583908489873,0.0557169461204753,-0.0640993156418508,-0.116367852845715,0.136618237003425,0.0088146393959622,0.149086020322654,0.151280682632024,15.3794492628578,1.18493277976743,0.947616977459182,0.17756656687462,0.240261372328211,0.149603168452605,0.381465143768472,0.158965061448214,0.0379741699517211,,,,,1.88084050141636,-125.058018224367,1.83961941668566,AttemptLanding,AttemptLanding,1,0.520339537962032,0.20090994290184,0.205005893235886,0.894460968470195,0.333509702909953
6,1.86879125018915,2.93948268890381,-1.03108172473398,-1.52701406284009,1.86879125018915,0.004874743612854,0.0022733507908159,0.0053787776593911,-0.0623109932475833,-0.128000545613305,0.147779601941354,0.0095417126405399,0.204926538648247,0.206036500550194,15.4286763549492,1.88999786473072,1.83725886354413,0.0318089709500655,0.0524676974783889,0.138551101456057,0.454397947333088,0.0193668593193645,0.005751692495197,,,,,1.9161886291726,-122.783489357006,1.67580752927549,AttemptLanding,AttemptLanding,1,0.539551633493811,0.241891682948354,0.155834027343549,0.954809925945665,0.338421732686197
7,1.89837597995191,2.88073182106018,-1.07383210751189,-1.53434155003904,1.89837597995191,-0.0757369790599305,0.0078404101823369,0.0761417233122002,-0.0675448215738491,-0.12988847734572,0.152322316226433,0.0098254678118761,0.198589587290147,0.200936328521731,15.4337155423652,0.972493775371729,0.95509997727424,0.176662395628193,0.24030055351912,0.164013653600548,0.447599773385307,0.157062485176643,0.0433904567108743,,,,,1.96867067391655,-123.586570068552,2.20810373770039,AttemptLanding,AttemptLanding,1,0.546420860358189,0.234989380189931,0.226577524976219,0.896523422700828,0.327105042844201
8,1.8973105404828,2.62712550163269,-1.09788480198124,-1.53099109600804,1.8973105404828,-0.0476862013291861,0.0106201628206973,0.048854494732274,-0.0662431497113149,-0.124805786628675,0.144224086784715,0.0093018701729579,0.129214451193661,0.131602017471849,15.4616093682427,0.84243749808539,0.866512798045229,0.177103773949328,0.240217119820484,0.144744913939118,0.453046809915765,0.15672586923538,0.0406923373457721,,,,,1.96461919299708,-125.030810267647,2.31639139587402,AttemptLanding,AttemptLanding,1,0.532269880956451,0.173165023626308,0.188352169638457,0.898020646412881,0.33566892713817
9,2.59796223672337,3.0,-0.814200365098531,-2.43324042220463,2.59796223672337,0.0089265001738036,0.0059061347530506,0.0107034963014012,-0.0435563915732123,-0.309846211449889,0.315094189836156,0.0203464066090603,0.20086145107261,0.20316799320524,15.395406778965,1.9121769192803,1.93062566989336,0.0217466373246611,0.0560911986604493,0.130987867179545,0.434144299009059,0.000287289606125,0.0070703656019217,,,,,2.98365709536118,-106.900241715489,2.19352693177764,AttemptLanding,AttemptLanding,1,0.733423528433948,0.0924208043924978,0.05815120894195,0.958933232422734,0.341783170142424
10,1.90008534055178,2.63272380828857,-1.13960826707494,-1.49727912857968,1.90008534055178,-0.0471255753898009,0.0168866442723031,0.0500597504048823,-0.0714213873963029,-0.120073681442285,0.144209227053131,0.0093022134182131,0.157359756783115,0.159640396835026,15.3967936617937,0.967477101453885,1.03620000603752,0.176548283112353,0.240256964549151,0.15427097134975,0.499068226997373,0.15961582347169,0.0353874607734352,,,,,1.92399487038037,-126.353098118705,1.60822487724565,AttemptLanding,AttemptLanding,1,0.538617503514146,0.174021276148341,0.188221299230399,0.895982681170677,0.331435123844556
11,1.86145169232167,2.54135465621948,-1.15125984037892,-1.44746969388873,1.86145169232167,-0.0296484974695955,0.0218848822889361,0.0368508001949103,-0.0711017494947355,-0.111398046225162,0.135152994393639,0.0087190234225822,0.131617114430707,0.133831202300395,15.4199984822067,0.977339071917234,1.06875530464659,0.176669103595797,0.240261682973532,0.160489071808566,0.516225876541263,0.160001817284583,0.0360580164117284,,,,,1.90759543141243,-127.844704273722,2.46907066439406,AttemptLanding,AttemptLanding,1,0.523153358412525,0.159734146912741,0.180064412908693,0.895588992386243,0.328671523640638
12,2.62113185564677,3.0,-0.781951971701632,-2.46965625826198,2.62113185564677,0.0074631556289792,0.0031345750343874,0.0080947052193745,-0.0404722370838197,-0.317618602424078,0.322099828740601,0.0207988304365708,0.19562233157263,0.198104618544031,15.3846017568006,1.90608521378779,1.88275705034255,0.0279214086036681,0.0637423928224422,0.129159388094127,0.471459087603563,0.0073217854246395,0.0069235941183209,,,,,3.0,-106.299635778902,1.92255695743753,AttemptLanding,AttemptLanding,1,0.738589418547945,0.0867293617696956,0.0578094145056931,0.956269820765713,0.342595827513721
13,1.96807168697824,2.6873574256897,-1.04558271622687,-1.65329629041669,1.96807168697824,-0.0524059493167773,-0.0027238614289072,0.0524766895380847,-0.0603157046934288,-0.144964082154743,0.159269652131945,0.0102735919816143,0.127724168197947,0.130235718342095,15.4107288106533,0.976650284659427,1.02602133027961,0.176362844257921,0.240218405709637,0.15432476548286,0.449964692025253,0.159399695449869,0.0365719464870687,,,,,2.02726066309477,-121.319262228342,1.90343516365814,AttemptLanding,AttemptLanding,1,0.55086626019595,0.171460017625393,0.187019209295728,0.896083300896519,0.331411215340951
14,2.66040267674206,3.0,-0.754552815264347,-2.51306516649893,2.66040267674206,-0.0335044771907037,-0.003938969325812,0.03373522596889,-0.0343491733515754,-0.327463873786293,0.330873090399453,0.0213490938421391,0.202210897372412,0.204216123192871,15.4450191640269,1.4270704358082,1.1814248943029,0.0635763297316783,0.240210776855,0.0996769001755269,0.445418790251769,0.0018587019442271,0.0099687589486758,,,,,2.96211416560549,-104.652706865072,1.60801831516639,HoldLanding,HoldLanding,0,0.750283938436458,0.0825941891606652,0.0540076065034529,0.947716514683288,0.355699155477544
15,1.71665003105086,2.58172249794006,-0.918092073536655,-1.42204070270742,1.71665003105086,-0.0686475708763986,-0.0004348315255168,0.0686489480304378,-0.050082704891615,-0.111507589559678,0.126651226282037,0.0081698345138498,0.179453678706343,0.181368221108339,15.4321139203984,0.986406466094215,1.02166738021793,0.177332006635844,0.240272492704889,0.177384852793386,0.458019750525839,0.159850367387213,0.0353816490467474,,,,,1.78867162897179,-121.8764556945,2.08828058308308,AttemptLanding,AttemptLanding,1,0.49404698583523,0.207226945522318,0.208246829239858,0.895556273603911,0.321162287647384
16,1.76632201830546,2.54289174079895,-1.00444395961535,-1.43261555467732,1.76632201830546,0.0069018907063965,0.0010089983187502,0.0069752543272833,-0.055738112909776,-0.108796696784779,0.125619805915125,0.0081068094352198,0.140435264990921,0.141452996487942,15.4625595063235,1.54212953560033,1.55674379900318,0.0159177065896344,0.049409052429184,0.110265702318674,0.44333306229245,0.000116487565761,0.0058640792382532,,,,,1.79698325918466,-123.928221238646,2.4117879388028,AttemptLanding,AttemptLanding,1,0.499309804179045,0.176006984187704,0.107788355214346,0.967692856219012,0.3509930211917
17,1.85237969740017,2.67565226554871,-1.00581109906963,-1.53968581983716,1.85237969740017,-0.0433171629264692,0.0236495138062824,0.0493525694090168,-0.0552482339437209,-0.12676166457099,0.1408519655388,0.0090852536505279,0.139434679872909,0.141577982499477,15.452737135985,0.986657845651076,0.942091976027947,0.176305878546462,0.240271123412263,0.147836580264239,0.438654490473617,0.157097693645546,0.0417653870765042,,,,,1.90606506718967,-122.683382350962,1.75051649881512,AttemptLanding,AttemptLanding,1,0.522283515806607,0.19428429889174,0.201579189993208,0.896692597842148,0.334294853215894
18,1.82002368508553,2.55322003364563,-1.04032327074775,-1.47771483950347,1.82002368508553,-0.0449399601901573,0.0132908174035121,0.0468641211284968,-0.0592352705286452,-0.115694113901817,0.13267458866605,0.0085595718102113,0.122513321015203,0.124723492957321,15.4172381263553,1.00571813070981,1.10444354592579,0.177364755091811,0.240260682286252,0.177935896360052,0.449913002270052,0.159565936315905,0.0370195063509982,,,,,1.87952489310621,-124.36494621675,2.22361047503494,AttemptLanding,AttemptLanding,1,0.510284347947605,0.173560933966247,0.188516392971018,0.894737780709101,0.320917379395532
19,2.6150015993913,3.0,-0.782667134388206,-2.45942460630576,2.6150015993913,0.0067921962477604,0.0023255404930907,0.0071792804968949,-0.0415079933413169,-0.315305475084281,0.320186094137914,0.0206802853463876,0.199713835726941,0.20218510219726,15.3904921516982,2.09882016629675,2.07155105672132,0.0235245851852593,0.075949880438653,0.134397874654497,0.521583951317382,0.000287956981115,0.0059847506113397,,,,,3.0,-106.031594526481,2.13575255684879,AttemptLanding,AttemptLanding,1,0.737770780277132,0.0879408415613879,0.0550687587669064,0.9554705049408,0.340267611264668
20,1.89622173179575,2.83513498306274,-1.01176718499097,-1.57022581720235,1.89622173179575,-0.0795823723401916,-0.0041851698635057,0.0796923436352533,-0.0607290038248256,-0.135590889427128,0.154149476524457,0.0099428032283115,0.188930248822923,0.191342226066815,15.4486338087621,1.00495248015409,0.917195221224235,0.177101576865987,0.242350681416823,0.135500415186956,0.414579902748089,0.159089746310578,0.0361000471280458,,,,,1.95533603544456,-121.682915799118,1.56123111741224,AttemptLanding,AttemptLanding,1,0.543927573692228,0.225865744534871,0.219353290501479,0.896346622484748,0.339777593250242
21,1.94046443378603,2.78451585769653,-1.0646747933756,-1.60662743629757,1.94046443378603,-0.0486813829743979,-0.0118023149292886,0.0500916328940283,-0.0620370704927337,-0.136919903786656,0.152979885796258,0.0098668680289897,0.130473505908061,0.132792181507396,15.4195711435544,0.865234477094103,0.862618852526158,0.174992031548555,0.240251936935298,0.114065645024845,0.490722567038019,0.156483013856415,0.0394140607638505,,,,,2.01006102178809,-122.843348050567,2.45660082079852,AttemptLanding,AttemptLanding,1,0.544015618644421,0.199095036410435,0.203337413736977,0.898927993778706,0.349304157766735
22,2.63019067525864,3.0,-0.738171058314068,-2.49204640576545,2.63019067525864,0.0062492758877227,0.0063424406456336,0.0089039318542011,-0.0371985116059344,-0.323417618867114,0.32722366033796,0.0211242399383979,0.195432103066303,0.197987294548034,15.4254824626181,1.7855599529979,1.8406811206397,0.0254309369843159,0.0586626917864056,0.118593144233941,0.481007972250124,0.0010473189038908,0.0081035496191184,,,,,3.0,-105.373889448931,2.02465168372852,AttemptLanding,AttemptLanding,1,0.740981638978577,0.0848394855734104,0.0543159117284852,0.958792637357832,0.347291935896026
23,1.67319457141721,2.38630557060242,-0.812696310109758,-1.45203373378088,1.67319457141721,-0.0314760716431791,0.0071939063620264,0.0322876969576981,-0.036336479061276,-0.112316022215521,0.119261346991736,0.007692827243165,0.115962217619073,0.117890459189717,15.3929721223399,0.968828378488205,0.900905339520852,0.176330102062749,0.240209352432149,0.147604240326047,0.434966464622102,0.159386314778729,0.0358783414040809,,,,,1.75191981509009,-118.497538474994,2.01391520696696,AttemptLanding,AttemptLanding,1,0.469763310882532,0.166369385925584,0.183706663280714,0.897144184041411,0.334398115410646
24,2.60317761112662,3.0,-0.58157358495204,-2.50600327371265,2.60317761112662,-0.0158013168571959,0.0130435915747191,0.0204894337547328,-0.0271666135065717,-0.336004388844522,0.338162728937217,0.0218177875264163,0.200773638400824,0.202722235234539,15.3756806274877,1.34196104695454,1.05026565543616,0.0621458000394451,0.240445154692679,0.116231962457527,0.441414588031789,0.0018899278759492,0.007764590842537,,,,,3.0,-102.185830974197,2.23398732061928,HoldLanding,HoldLanding,0,0.73472514334734,0.0930414336848784,0.0594883157348977,0.950131033032922,0.348341350018877
25,1.76184019742423,2.36891078948975,-0.958176095697381,-1.46343139976671,1.76184019742423,-0.0669640702370835,-0.0064730636056124,0.0672762012539305,-0.0502072044648527,-0.113598525228642,0.126509970117387,0.0081582731306698,0.122598518907745,0.124440666897522,15.4716842342374,0.745515849806257,0.683095579834342,0.174735116780994,0.240224750890912,0.146978443661415,0.41595716577051,0.155660022222105,0.0384040697932241,,,,,1.79680657025774,-122.144595008979,1.85640349504752,AttemptLanding,AttemptLanding,1,0.494712186025965,0.148924853444629,0.172502260453936,0.90140763751947,0.334676247261593
26,1.85517318248749,2.72623372077942,-1.0345906802282,-1.52425842644104,1.85517318248749,0.0063571900525449,0.0015262191520673,0.0065378291706279,-0.0584293389004368,-0.122393378387519,0.138258226217621,0.0089251994006946,0.134591388283486,0.135657958184453,15.3513963131812,1.79980923327568,1.70245220663233,0.0306466403822921,0.0780832525728523,0.118035082197658,0.508336311485359,0.0124161639389225,0.0061548011727957,,,,,1.89015622586425,-123.159855511628,1.79666643710861,AttemptLanding,AttemptLanding,1,0.521844440300221,0.1971872231303,0.126068738479526,0.957158911352434,0.347539963467708
27,1.70924367385657,2.53937530517578,-0.825808815213033,-1.474479063504,1.70924367385657,-0.0514501233092732,0.0055665053753581,0.0517503736279585,-0.0398866625152073,-0.116353230023104,0.125714929922419,0.0081102385091292,0.138543399635648,0.14057929925534,15.3899836707799,1.01794722291034,1.02677643964187,0.176502116287622,0.240198300794767,0.148826185325673,0.458161441992451,0.158861591053457,0.0374662227259568,,,,,1.77620387229689,-117.832865156267,2.07165102993762,AttemptLanding,AttemptLanding,1,0.483914172879486,0.196267185545282,0.201989543897741,0.895683255936136,0.333855028744146
28,1.70978291261764,2.38861775398254,-0.963791521737553,-1.39125021816751,1.70978291261764,-0.0658308030981973,-0.0094962157455978,0.0665122000090252,-0.052037404268511,-0.103785559268881,0.119501081851422,0.0077076017944111,0.129736729099299,0.131598487159572,15.4663832130562,0.843011295542376,0.900801747443307,0.176324446994786,0.240201511964778,0.151221543559386,0.427965236811844,0.159685836713102,0.0371474813279922,,,,,1.77693740749085,-123.63065316624,1.6713585263859,AttemptLanding,AttemptLanding,1,0.482261807463285,0.164931742642092,0.183438703597217,0.898136388307719,0.332790425084718
29,2.62291630784671,3.0,-0.519313715501848,-2.53971667344323,2.62291630784671,0.0082918754998784,0.0057997576162635,0.010118912377963,-0.0228589387941374,-0.335655147589508,0.337231761837337,0.0217733017055408,0.1971459929652,0.199863076744634,15.3889838442626,1.86620208208624,1.72104894229352,0.0319600617893295,0.0746180516685017,0.124679878433387,0.509141888574667,0.0181554224482785,0.0054926555925704,,,,,3.0,-100.208461528465,1.70918807075,AttemptLanding,AttemptLanding,1,0.739416964108048,0.0866989646704512,0.0620857847523393,0.955834425342351,0.344586720696273
30,1.84816829768979,2.62061190605164,-0.930056149187954,-1.58352865901337,1.84816829768979,-0.044976393327605,-0.0063527832772248,0.0454228335986079,-0.047628945596616,-0.132732394874573,0.142977555859669,0.0092266757989989,0.126240391557543,0.128541433939148,15.3441830300959,1.22542639880679,1.23181780020151,0.177488082832667,0.240259096570028,0.164757355596082,0.456510358264761,0.159516387374211,0.0378138843443816,,,,,1.90894849737311,-119.745808657761,1.53243475666817,AttemptLanding,AttemptLanding,1,0.518553166171773,0.182127331374494,0.193923074388969,0.891949039877173,0.326774508623964
31,1.89602533895142,2.62971639633179,-0.946939043345909,-1.62243439801263,1.89602533895142,-0.0588713422182399,-0.0039098150172874,0.0590010303981763,-0.0509634924031883,-0.140709435728652,0.152517494821068,0.0098412012873433,0.15308459900503,0.155560199556866,15.3486915804437,1.12993616063865,1.15956061221063,0.177133580063766,0.240244453053646,0.16763704892747,0.499038585761941,0.159174475265073,0.037008574287064,,,,,1.95935225919259,-119.13516242978,1.99852546789504,AttemptLanding,AttemptLanding,1,0.536718796965086,0.175897343483581,0.189740280696184,0.893444306752873,0.325494644921124
32,2.61836386164029,3.0,-0.639179441272875,-2.50745818306387,2.61836386164029,0.0095389920351906,0.0014923320863673,0.0096550206682032,-0.0299541305383202,-0.328227797410023,0.330766303881739,0.0213554509225522,0.197734561573679,0.200238768240437,15.3974141526245,1.73790309094671,1.83273289321364,0.0320246457112664,0.0538053694310564,0.120245317738991,0.443760761795871,0.0124433687400391,0.0059857898771648,,,,,3.0,-103.01941117063,1.7461334892266,AttemptLanding,AttemptLanding,1,0.738278116752166,0.0876382182534377,0.0602899679231703,0.955932680125964,0.346557636560448
33,1.87105971453141,2.88499546051025,-0.824125855352989,-1.65017197390587,1.87105971453141,-0.0733901685089163,-0.007273980395324,0.0737497635559511,-0.0425834122416744,-0.14815975100504,0.157534260987644,0.0101601263444688,0.188023226967479,0.190501307802153,15.4721560073717,0.851064403131792,0.810841578736326,0.176944292235247,0.240291751382787,0.155858077905671,0.385851707155766,0.159171602931527,0.0354336776765982,,,,,1.93692079365451,-115.089103932968,2.020797701046,AttemptLanding,AttemptLanding,1,0.537049518768807,0.241656332830497,0.228621708035114,0.898470021167698,0.330729743153035
34,2.67860364087737,3.0,-0.583964505928125,-2.57838978446133,2.67860364087737,-0.0247918753032559,-0.0086495131158414,0.0262574019696028,-0.0247275496414666,-0.340591781196164,0.342528643749775,0.0221046058742828,0.197565074475412,0.19965904283152,15.3813673343827,1.49674527029013,1.21227848032551,0.063227821139711,0.240315247000666,0.112364888604713,0.483215871513243,0.0018503217074348,0.0105227027573434,,,,,3.0,-101.157933097739,1.52690540915262,HoldLanding,HoldLanding,0,0.754226112800271,0.0771280378303513,0.0509256252678219,0.947100902818165,0.350060049509017
35,1.78924613582845,2.53675127029419,-0.787059272572318,-1.59260679442175,1.78924613582845,-0.0498368919697419,0.0019925229737754,0.0498767074795916,-0.0351561790455305,-0.134717897153499,0.140645074786898,0.0090715972904246,0.131241067052547,0.133635105761698,15.4292199975402,0.904191591468873,0.880859911226849,0.177056916450869,0.24023925452079,0.162048905486878,0.473466191327383,0.159474414019928,0.0348125490066061,,,,,1.86137587595629,-115.841095627455,1.51298525311042,AttemptLanding,AttemptLanding,1,0.503859324039925,0.177332718292717,0.189936257047495,0.897446137110528,0.327978264228054
36,1.96829081257184,2.77244687080383,-0.889736718396831,-1.73537833886983,1.96829081257184,0.0075989022009077,0.0070358865111903,0.0103560134056166,-0.0454219736024527,-0.158774968331632,0.167488695631216,0.0108126025960359,0.157765577169501,0.159055398934656,15.4290281828601,1.72049677090135,1.87608595252711,0.0167274090501858,0.0503655933579491,0.125929235439268,0.42448726559237,0.000283216782674,0.0057328372678251,,,,,2.00134863438598,-116.022448666907,2.37463398157796,AttemptLanding,AttemptLanding,1,0.55668862980609,0.182833715559894,0.11191077155896,0.963377431219398,0.344031450915881
37,1.80008809015053,2.48623561859131,-0.804804244706945,-1.59519366404406,1.80008809015053,-0.0466173336814809,0.0095163553987299,0.047578743359251,-0.0367568577491917,-0.134614647707971,0.141151608808015,0.0091053880523381,0.119922459428189,0.122182699348226,15.4280905624275,1.0191855605092,0.87407737855848,0.177205718641368,0.24021017762349,0.145613473348703,0.410607722784338,0.159202351033968,0.0377657462375117,,,,,1.84847057739295,-116.145839673518,2.35893785529944,AttemptLanding,AttemptLanding,1,0.504460030576454,0.163105963515037,0.182353177200386,0.896521503300927,0.33528290073391
38,1.95109627928053,2.71755027770996,-0.760947980423097,-1.78223493209793,1.95109627928053,-0.0446926444609773,0.0107822579791707,0.045974879619687,-0.0329603025329964,-0.168005731682666,0.172356141358734,0.0111156099665281,0.139703952744081,0.142553438471756,15.4589651154956,0.914919231684917,0.696639667859669,0.176245635422984,0.240280009538362,0.147647455716892,0.446373840116852,0.159338121635683,0.0365730384700578,,,,,1.9993932608471,-112.620106358339,1.63559039227735,AttemptLanding,AttemptLanding,1,0.548803028835825,0.180880877576899,0.192644756211716,0.899214933792086,0.33437890857027
39,2.63057009538015,3.0,-0.627080250228102,-2.52122412457576,2.63057009538015,0.004738239680256,0.0021530983007017,0.0052044930166191,-0.029781149161728,-0.330657879261258,0.333222733546847,0.0215121393139177,0.196564434064223,0.199259270383809,15.4013497548487,1.83031182883203,1.70994375428895,0.0300804282917905,0.0734160023723919,0.117439901074319,0.49567611006258,0.0076986599507449,0.0059369585481275,,,,,2.9987372183553,-102.731971335258,1.842207315735,AttemptLanding,AttemptLanding,1,0.741337212844801,0.0840758855925137,0.0560260520177847,0.957143491986726,0.347804488411414
40,1.87348870963466,3.0,-0.299906725505974,-1.82387351326593,1.87348870963466,-0.0662094269681415,-0.0234690107039839,0.0702458730664896,-0.0101027208645505,-0.182006048858411,0.182614526756312,0.0117781435688959,0.194838116882367,0.197777179733094,15.4551795720316,0.965365820846676,0.689547163891905,0.176460173180533,0.240302676519328,0.157063813163619,0.433425878557441,0.1595639928072,0.0364587778320841,,,,,1.96262077332345,-97.9255988407311,2.27459894747663,AttemptLanding,AttemptLanding,1,0.539152425182529,0.26634345039439,0.243981137766653,0.898767025672502,0.330193860816169
41,1.89720039789369,2.64811563491821,-0.255798628086094,-1.8668561701864,1.89720039789369,-0.0511195725410461,-0.0185719849519326,0.0543886874435676,-0.0060471892496367,-0.183415099822228,0.183634587033799,0.0118446011405857,0.131846191353743,0.134901342976201,15.4583107421756,1.04970011865231,0.696263389967146,0.176886821277319,0.24021852199665,0.151545505088785,0.408248348210076,0.156700708106356,0.0400161607870043,,,,,1.94919332297993,-97.076725643542,1.94481349431917,AttemptLanding,AttemptLanding,1,0.532900374700223,0.178927187695173,0.191552402970758,0.897838304650759,0.332646442182762
42,2.61496574600538,3.0,-0.629496688059054,-2.50530381058781,2.61496574600538,0.0056914837252721,0.0024651235665377,0.006202404468699,-0.0296844852589231,-0.326982400375736,0.32951894567198,0.0212662152651303,0.196226425123151,0.198803359317736,15.3773336168082,1.65424098133498,1.4774755643308,0.0206078412533538,0.0729965568163943,0.102740628857163,0.460778098061104,0.0001339506829841,0.0048992844514276,,,,,2.97766096785849,-102.83550377438,2.23096904206786,AttemptLanding,AttemptLanding,1,0.737084870798314,0.0877698146347185,0.0545029804000503,0.965089735085949,0.354337498285705
43,1.8441375421018,2.47978758811951,-0.263030971780298,-1.81476382310156,1.8441375421018,-0.0401031452590287,-0.0170706871043845,0.0435852109996333,-0.0058779239917256,-0.173323361172691,0.173523775216058,0.0111936557537191,0.11700032441667,0.119976235313371,15.3837313947324,1.0818980868345,0.758486169451822,0.176467920867704,0.240253543899625,0.141471173328252,0.446380395888347,0.159573973514248,0.0374651556890906,,,,,1.87761184680711,-96.9149867627548,1.76972010581376,AttemptLanding,AttemptLanding,1,0.515765258289821,0.151011882370583,0.175152588406533,0.89730587755247,0.337123922965221
44,2.50623527324595,3.0,-0.608355133968655,-2.39699716430759,2.50623527324595,-0.0228248757517807,0.0042543138353439,0.0232179701803114,-0.0280631694749876,-0.30682800902834,0.309400741605324,0.0199639662119724,0.220805729339588,0.222574240979019,15.4358608835142,1.42232918598588,1.18005603699011,0.0626872077597596,0.240287256666543,0.101750613871567,0.442143654817212,0.0019003114325441,0.0089839624119225,,,,,2.70268226585959,-102.84402520654,2.14691064804432,HoldLanding,HoldLanding,0,0.712844254394724,0.115353691386051,0.0733236931130566,0.94820908365388,0.35477750494597
45,1.69384079685017,2.43532061576843,-0.238140831998579,-1.66049718035782,1.69384079685017,-0.05016820409238,-0.0110065100580276,0.0513613859383891,-0.0059317261616006,-0.147548432029513,0.147817307207806,0.0095334583463237,0.144716854363469,0.14712307878205,15.460700421883,0.953180979727931,0.568420619255924,0.175835582471806,0.240211131361753,0.127523933146865,0.391778001810792,0.159588755142538,0.0361088958385638,,,,,1.74484723470437,-96.8322370152764,1.69193699306475,AttemptLanding,AttemptLanding,1,0.481115494916454,0.176249213345315,0.189808371203754,0.900126767629224,0.343322696379171
46,1.65959589560827,2.35594248771667,-0.222976373361756,-1.6327236358895,1.65959589560827,0.0028832281153024,0.00371888205386,0.0047056442805839,-0.0047414269187569,-0.140086937145621,0.140266019382421,0.009052737941761,0.118959259010083,0.120042428193253,15.4330181681202,1.6534164679388,1.45176327309988,0.0258608336607312,0.0529354404966277,0.113811938652197,0.418973380109335,0.0004960731722817,0.0056919232413645,,,,,1.71876069037497,-96.5690723186371,1.99067566355803,AttemptLanding,AttemptLanding,1,0.466567391134188,0.157540684675832,0.0968146780405451,0.962671742347188,0.349416916154579
47,1.78423964247412,2.46411728858948,-0.136653908108768,-1.76115404759734,1.78423964247412,-0.0508509094502789,-0.0190397116675804,0.0542984862800526,-0.003242829758545,-0.164991059813945,0.165115539463361,0.0106500340297678,0.139695201607356,0.142527609422089,15.4427517585615,0.994011952093164,0.709006522251839,0.17681935715948,0.240272559283153,0.154505250093113,0.397588143300049,0.159675211575562,0.0373439693602826,,,,,1.8330973949862,-93.5355183886098,2.07441309933693,AttemptLanding,AttemptLanding,1,0.504302759877515,0.162927192860633,0.18230270163855,0.898209461978978,0.331330999958616
48,1.68672620682489,2.57719993591309,-0.187975178076415,-1.65479284231824,1.68672620682489,-0.0492727261063761,-0.0134393413017136,0.051072668156049,-0.0049761372889872,-0.149415153645172,0.149654804510764,0.0096513979417728,0.174661877452549,0.177085399355792,15.440043694927,0.878189458056148,0.645253768313538,0.176499936155408,0.240251003927227,0.140400912038729,0.398736041070961,0.159977891442152,0.0381160890054375,,,,,1.76093856199151,-95.8152911333806,1.5,AttemptLanding,AttemptLanding,1,0.485210735024463,0.209719911540119,0.21079362801145,0.899780120857963,0.337599594649454
49,2.60484859576592,3.0,-0.677844344653735,-2.48276910019282,2.60484859576592,0.0013308505333646,0.000761639140687,0.0015333810103113,-0.0327532687065935,-0.321453292441738,0.324491104407479,0.0209450307965854,0.193988571501638,0.19649186570811,15.4149442525724,1.72534396490632,1.52014729557794,0.0154149880953437,0.0466094511388167,0.122344484265713,0.420658620682445,0.0011675310522776,0.0069118214033987,,,,,3.0,-103.690253195533,2.44775108811687,AttemptLanding,AttemptLanding,1,0.733924665345867,0.0891901858045583,0.056546403773872,0.966792217477095,0.345624673659683
50,1.68221859003873,2.36903929710388,-0.182578283183835,-1.65813596306057,1.68221859003873,-0.0489478169936842,-0.0284655959475233,0.0566231307955932,-0.0039390641198416,-0.14492334727934,0.145064476615804,0.0093568837116297,0.11517510821161,0.117518503493138,15.4066095053244,1.03460771276905,0.678024967877806,0.175738767257663,0.240213788685156,0.128085789032856,0.417619840389704,0.159854770632558,0.0335026362581642,,,,,1.72627812567413,-94.411640590645,2.41197536491235,AttemptLanding,AttemptLanding,1,0.472095324708957,0.164915566402184,0.182178681388042,0.898674216737514,0.343072982652064
51,1.59812356095736,2.20969796180725,-0.135909667039524,-1.57756791792387,1.59812356095736,-0.0475265141770804,-0.0165832045021015,0.0503365892903238,-0.0028159321647256,-0.132046002347431,0.132143087038149,0.008522490084069,0.130801712573726,0.132993204192266,15.4523316650742,0.80800157627615,0.699010130349774,0.176867134243395,0.240187917894408,0.139781167065381,0.397948431418142,0.159532843272416,0.0357586615018738,,,,,1.64198518080473,-93.7945426045898,1.56874381330987,AttemptLanding,AttemptLanding,1,0.452764923760415,0.146832614894452,0.172006204472568,0.899725626611956,0.337875036859831
52,2.61162202636401,3.0,-0.623107246049663,-2.50229025296749,2.61162202636401,0.006946161589468,0.0035308273293757,0.0077920409686338,-0.0295777586934965,-0.326783292891719,0.329319428811102,0.0212578410060749,0.194227011088546,0.196670866795731,15.4258571823189,1.85510046262606,1.61779414898367,0.0175132072949247,0.0514474365497485,0.113053900042265,0.387323436427199,0.0001974773739594,0.0049712075341612,,,,,3.0,-102.899260755177,2.33779061756927,AttemptLanding,AttemptLanding,1,0.735766713722882,0.0888135849123476,0.0551836304997724,0.963956367261318,0.349753822203438
53,1.71560391520156,2.53995561599731,-0.13120157385613,-1.70009346325708,1.71560391520156,-0.033059697219054,-0.0066025968817749,0.0337125772642607,-0.0024289531732274,-0.152040038914,0.152097160820307,0.0098110032521667,0.109500332256749,0.112073396222462,15.4203308011442,1.05552384990894,0.718150226037033,0.176598034436722,0.240189014389017,0.130188838884023,0.413591456781391,0.156617321077809,0.0404251774965436,,,,,1.76767167051157,-93.7767495596924,1.64985241097248,AttemptLanding,AttemptLanding,1,0.479909056631576,0.191659771844158,0.199303625907497,0.897764972184921,0.342138293829323
54,2.62036753881652,3.0,-0.552587047949618,-2.52590750022955,2.62036753881652,-0.0197093541569921,0.0111731678494832,0.0226560879473591,-0.0262250757594284,-0.340225707533977,0.342349192605721,0.0220927900007188,0.202431816655799,0.204529586288888,15.3735912960532,1.53576910129382,1.17031290851577,0.0623902072170205,0.240306018093857,0.105818003856341,0.383863903454614,0.0019067628725749,0.0076312325647565,,,,,3.0,-101.106544404973,2.19214325767074,HoldLanding,HoldLanding,0,0.739670594275518,0.0895709198899646,0.0573649957594791,0.947542823457272,0.352969776063848
55,1.66675173100971,2.34577083587646,-0.15562598363132,-1.64406074798322,1.66675173100971,-0.0511710159349245,-0.02905763261749,0.0588457210436351,-0.0035972047573336,-0.143937343057799,0.144065973344882,0.0092925291804907,0.137345457070574,0.139683956336544,15.4196543632874,0.999986780446086,0.741659498060968,0.176597639662444,0.24021158218993,0.146979391055388,0.435055538036956,0.15953960944004,0.03675068055836,,,,,1.6954412846166,-94.4207914550518,1.55070831292407,AttemptLanding,AttemptLanding,1,0.472403919536565,0.163567680786353,0.182410985395677,0.898016816551937,0.334675826197605
56,1.69649802684784,2.40821266174316,-0.0872860769015836,-1.68317187559677,1.69649802684784,0.0013701901390745,0.0030035269474662,0.0033013020372836,-0.0015584874600936,-0.148063334428541,0.148104330957307,0.0095642862853012,0.112554385681158,0.113781617249073,15.4188803641505,1.97907959467101,2.17514521333312,0.0196457891476194,0.0598013608701627,0.141527105900655,0.434680300016985,0.0003317062589166,0.0093051083234127,,,,,1.73280982852964,-92.1431804697514,2.27199745415693,AttemptLanding,AttemptLanding,1,0.475155797275905,0.160741031558283,0.0999757196929013,0.957536767649015,0.337099064044153
57,1.61480365602338,2.22142195701599,-0.18409269460706,-1.59445428175117,1.61480365602338,-0.0404176600939257,-0.0184489707128638,0.0444291769880134,-0.0034637803100621,-0.134414070093797,0.134514419209354,0.0086773729064139,0.11003347817626,0.112318243970376,15.4149487654467,1.0438395072069,0.754603793441897,0.17723499551917,0.240167097779099,0.132980073135189,0.412862496541535,0.159537096626954,0.0373791889029523,,,,,1.65239533729994,-95.8334835366937,1.70525215496782,AttemptLanding,AttemptLanding,1,0.453077957066975,0.144634466837808,0.171278488709677,0.897251876306746,0.34089774527325
58,1.60174528514447,2.19484901428223,-0.0874207782198286,-1.58967207474861,1.60174528514447,-0.0328173101237817,-0.0197031180593769,0.0382777834392512,-0.001415633740753,-0.133008100263708,0.133041482365538,0.0085842594241969,0.109981622458255,0.11230625626506,15.366618252262,1.04644950171236,0.941946034507048,0.177301581645229,0.240188158179545,0.144063901031938,0.437234456670869,0.159654656035279,0.0381555349810901,,,,,1.68060545220575,-92.4282145747537,2.00555992390926,AttemptLanding,AttemptLanding,1,0.449593327291537,0.140465932686525,0.169111924509607,0.895726101392804,0.335971599541361
59,2.52124294439952,3.0,-0.509773124367467,-2.43510947788139,2.52124294439952,0.0061994421455433,0.0029996086274189,0.0068869975195018,-0.0229845772974754,-0.311672105066046,0.313376172377599,0.0202230774762539,0.215522576440997,0.217959813357009,15.4222886674882,1.52647489417468,1.31420344742425,0.0309985312835397,0.0537697604776709,0.0973152743050746,0.410962515918537,0.0112519607712015,0.0054175365133946,,,,,2.78982386220964,-100.41262924442,1.80582622511342,AttemptLanding,AttemptLanding,1,0.715923414511273,0.108982953722018,0.0723606569646759,0.962181118817096,0.356748766975522
60,1.65453987421633,2.26494550704956,-0.0821235747033719,-1.64221800222583,1.65453987421633,-0.0373364853281741,-0.0247251569773254,0.0447810956120364,-0.0014320449735395,-0.142018256056569,0.142054643039872,0.0091611139233079,0.119604723353111,0.122098908419737,15.4705608049189,0.889343229442738,0.501101916346598,0.176841081289523,0.240173256024456,0.137495905474779,0.394267450835739,0.159892078724832,0.0372909340146392,,,,,1.72864210057146,-91.9462754292346,1.55636470313918,AttemptLanding,AttemptLanding,1,0.465630414808301,0.145551134916351,0.171954166691423,0.900654533209751,0.338890708677876
61,1.61087981373274,2.33795094490051,-0.186193020250468,-1.58567204974979,1.61087981373274,-0.0454302550195579,-0.0207355429710213,0.0499386705214019,-0.0040495854797649,-0.133848291044335,0.13399117946912,0.008646148937382,0.123472002339809,0.125802265949388,15.3383056828279,1.17036831706557,0.959324987241723,0.177176668110485,0.240189211784221,0.14474322479283,0.459098836804418,0.156896802351907,0.0407100226119551,,,,,1.6541677253945,-95.777639022521,2.41121114908427,AttemptLanding,AttemptLanding,1,0.454728403518609,0.172746427441672,0.188183413207572,0.894678361410915,0.335669677869853
62,2.60373684565226,3.0,-0.531737680564913,-2.5150719956493,2.60373684565226,0.0054943985860225,0.0035106923739438,0.0065202282756475,-0.0242187923051329,-0.329738063258368,0.331545776419408,0.021403168021151,0.196783602235933,0.199387469825779,15.4154376108233,1.77748541338039,1.82391569062892,0.031434084479726,0.0553471691500479,0.11679885760917,0.399860400616685,0.0145862991661862,0.0086606857962699,,,,,2.96888331606625,-100.576107342626,1.75474365117593,AttemptLanding,AttemptLanding,1,0.734207319472426,0.0903545849121097,0.0638448908662346,0.955986234800064,0.348089396618147
63,1.54166473620603,2.15172147750854,-0.0809696471571413,-1.52932241518014,1.54166473620603,-0.0318962852599023,-0.0060862782786892,0.0324717692260016,-0.0012536374777646,-0.123635642924722,0.123669103090122,0.0079759096284002,0.108668496578406,0.110690428112072,15.4706779716114,0.827880667125725,0.653184192204955,0.176367194054507,0.24018128800211,0.144221522953929,0.381938084124764,0.159512461515538,0.0353507184439731,,,,,1.60300708299886,-92.1234906695166,1.79881398237495,AttemptLanding,AttemptLanding,1,0.433248681944022,0.1432159244845,0.169678788737838,0.900179464792291,0.335901545353809
64,2.68345746523068,3.0,-0.643303290312196,-2.56511604776064,2.68345746523068,-0.0302548799200216,-0.0045761967964315,0.0305990087436603,-0.0283244061400444,-0.338723570744597,0.341233947722338,0.0220292118608156,0.202865354627715,0.205008743764831,15.3722268324152,1.76615100157726,1.46681182912672,0.0633855393975874,0.240342992682603,0.129774498675287,0.483780480562484,0.0018437717559126,0.0080233530180625,,,,,3.0,-102.201792877698,1.5,HoldLanding,HoldLanding,0,0.756590406147815,0.0768318885927675,0.0498361701850585,0.942905379488532,0.342322445033206
65,1.53006992534715,2.29693746566772,-0.140108127805718,-1.5081438341706,1.53006992534715,-0.0430965726088149,-0.0066335369821978,0.0436041097090749,-0.0030561520694899,-0.122075644537893,0.122208926933233,0.0078817755938308,0.142942350196681,0.144959522900734,15.4519292691554,0.813207191611728,0.64196662478288,0.177306499014464,0.240176073400358,0.130852843629932,0.435733971123704,0.15952041526498,0.0351413323405122,,,,,1.55228808798252,-94.2268777224065,1.87799544418311,AttemptLanding,AttemptLanding,1,0.437010551339388,0.180539283352126,0.192000198656907,0.899913241935382,0.341843180608919
66,1.57727649927139,2.25369739532471,-0.121285234950484,-1.55742597245637,1.57727649927139,0.0038721039861257,0.0026554606783589,0.0046951741920488,-0.0026146616245532,-0.128265618064794,0.128357370621654,0.0082888253943051,0.132675928393207,0.13374811592809,15.3424328875226,1.90205816288035,1.76643235082756,0.0252665106473029,0.0708102450778523,0.116969657180661,0.444684089491744,0.0001720528339015,0.0054221114899675,,,,,1.60696450398557,-93.5145725727472,2.03301647242185,AttemptLanding,AttemptLanding,1,0.447356689657989,0.153055483547205,0.093881434959944,0.958542890640072,0.348013485697484
67,1.6610403000092,2.46510124206543,-0.128567267981703,-1.63169168346818,1.6610403000092,-0.0613161517019725,-0.0236465425108785,0.0657178014867972,-0.0036559579904049,-0.145564890571161,0.145761937930983,0.0094024138999017,0.175696047051827,0.17810380363401,15.4160366872739,1.0582538249216,0.730166610501977,0.176448996590647,0.240237692878462,0.126385585285496,0.379230745802346,0.159423499333697,0.0343135148369121,,,,,1.70472744872138,-93.0615211949791,2.11770427949162,AttemptLanding,AttemptLanding,1,0.478564840729256,0.192961975568564,0.19910971569277,0.89772362685492,0.343828628762002
68,1.57424920878443,2.21227884292603,-0.130622934011342,-1.55842875977275,1.57424920878443,-0.0357463433961171,-0.0016619290588977,0.0357849559785943,-0.0022615616822835,-0.128160456897748,0.128219906005119,0.008269133293421,0.111894042354767,0.114113926596321,15.4514197912072,0.817952536940384,0.552395135384405,0.176249870755118,0.240190691182199,0.115837497549509,0.39001359611129,0.159864272956843,0.0354768730279995,,,,,1.6346567991892,-94.1375227104005,2.29777314525323,AttemptLanding,AttemptLanding,1,0.442622574328445,0.150117242944602,0.174021814848671,0.901108047197032,0.348516667755774
69,2.62197021484375,3.0,-0.3810294433297,-2.56412454723865,2.62197021484375,0.0046032415742166,0.003952448780151,0.0060672633328639,-0.0152025155978764,-0.342061259878243,0.342819052339109,0.0221360317233964,0.196957540751792,0.199700965854057,15.3819339445696,1.93344198617582,1.91296685441615,0.0311263472562048,0.0707754771065728,0.120515612427132,0.452300230551321,0.0102382479046604,0.005113998230215,,,,,2.97762147861884,-97.4745863886534,1.80165154747166,AttemptLanding,AttemptLanding,1,0.739132250462478,0.0861690332711813,0.0581113880848583,0.954215042624389,0.346437505587941
70,1.67600530467066,2.67686939239502,-0.10847849567398,-1.65014831082679,1.67600530467066,-0.0617634629156131,-0.0422775547404286,0.074847291107683,-0.0030806021859875,-0.148676633554178,0.148836128892897,0.0096007120716057,0.172302310447683,0.174896127540356,15.4546400352752,1.06907860057288,0.69245354541853,0.176911041076089,0.240225386577983,0.143024950880138,0.375021138336763,0.159822415818842,0.0344836300779898,,,,,1.74106956136438,-91.9626622500687,1.6713197151116,AttemptLanding,AttemptLanding,1,0.481913973420247,0.238916423107723,0.22692154051955,0.897703869743451,0.336433355164383
71,1.62016411379081,2.36293339729309,-0.200777077759177,-1.59647199491134,1.62016411379081,-0.036812758153232,-0.0138163892432553,0.0393201192084852,-0.0040356734866075,-0.134754794884482,0.134888700986455,0.008701667577396,0.112700480306029,0.114953464936667,15.4242078822309,1.03848280777028,0.784410724031053,0.1767179140105,0.240205239221855,0.133974093966671,0.400197256843234,0.159419125962692,0.0368587299642725,,,,,1.67774962146967,-95.9395937551425,1.9610194536294,AttemptLanding,AttemptLanding,1,0.455034456664883,0.174331777309569,0.188855185790512,0.897318308102025,0.340455958237035
72,2.62183218042056,3.0,-0.599872282448689,-2.51907250940186,2.62183218042056,0.0083242306913776,0.0031900965816847,0.0089145685708142,-0.0278370871950353,-0.330235041589358,0.332498128382522,0.0214577678152908,0.195392524092898,0.197976521097123,15.4195314439722,1.65316979851374,1.30485714198934,0.0324886970190709,0.0537485189690806,0.0988852404931654,0.4333585469221,0.0230297517206151,0.0065825486819107,,,,,3.0,-102.28205700878,1.6361180918391,AttemptLanding,AttemptLanding,1,0.738750552331573,0.0867220969766905,0.0646623574613259,0.960514011243655,0.35605100422526
73,1.6714845064546,2.57732582092285,-0.171513661018075,-1.63999405831377,1.6714845064546,-0.0562434140196793,-0.0239196994353786,0.0611185212653898,-0.0049372427669538,-0.146555801231521,0.146803465925346,0.0094689686048039,0.180074220465975,0.182596081000021,15.4515908358008,0.922159966969545,0.733921555664353,0.176679299441627,0.240206880474649,0.168144352843694,0.403090511796,0.159402727072572,0.0369390765809795,,,,,1.730743683828,-94.7490683234343,2.13687692395763,AttemptLanding,AttemptLanding,1,0.48224841792123,0.215019357987345,0.213289662753099,0.898648281172777,0.325269176513914
74,2.66851558656227,3.0,-0.597295620953651,-2.5642883254792,2.66851558656227,-0.0279547128808019,-0.0104788432653277,0.0298541810878707,-0.0261192468950929,-0.337084141016608,0.339209319979667,0.0218868603579846,0.206167516275952,0.208251613048741,15.4409657436903,1.40241336284468,1.15025918016251,0.0636711003658579,0.240384020549167,0.100663629561039,0.393984823908749,0.0019150017499476,0.0102689474754456,,,,,3.0,-101.440236798872,1.86938894060845,HoldLanding,HoldLanding,0,0.753254479026354,0.0800572595562648,0.0526196303409684,0.948107736979157,0.355260609083983
75,1.65705248573482,2.27918124198914,-0.153926724290112,-1.64089816742531,1.65705248573482,-0.039946205647746,-0.0233778130546587,0.0462841386316153,-0.0027879388469977,-0.144222637585755,0.144286082506013,0.0093078819924372,0.12115772836382,0.123669066729714,15.3959133464877,0.989861835905394,0.802907127351365,0.175685010545182,0.240222332666568,0.141602168906364,0.466332020778476,0.157196199090054,0.0396158779006898,,,,,1.72844746755899,-95.0560971705178,2.26200447678836,AttemptLanding,AttemptLanding,1,0.466614476208563,0.148464395573016,0.173349388499236,0.898071452873249,0.337065702708283
76,1.77067854801814,2.46982669830322,-0.22442204784058,-1.74507524936871,1.77067854801814,0.0023965271716634,0.0027102952096894,0.0036178781914523,-0.0047864159779465,-0.15941604443159,0.159572615153373,0.0102985939959866,0.123525615201406,0.124789227857292,15.4370987271545,1.56614416448835,1.66974158149195,0.0317507504565386,0.0494030549026329,0.111836306509329,0.400854969321332,0.012670411554371,0.0059679695925647,,,,,1.80133462105751,-96.2777836497926,1.76755204518643,AttemptLanding,AttemptLanding,1,0.497138791709628,0.157971611482577,0.102584431674644,0.958699808196171,0.350294974884743
77,1.68491509131023,2.55627489089966,-0.143707531213253,-1.65470376504009,1.68491509131023,-0.060979228898286,-0.025315163285573,0.066025175874092,-0.0040479343563206,-0.149825578371559,0.150037179946852,0.0096815010449175,0.177105832963033,0.179656973879418,15.3489733327235,1.19645205701669,0.951367765831691,0.176932429159965,0.240235805108747,0.140618988049904,0.410508527343876,0.159447576726159,0.0379026421679994,,,,,1.75923009576763,-93.8331549635916,2.36129113379529,AttemptLanding,AttemptLanding,1,0.485242085791945,0.208160570484539,0.209544710916975,0.894658058240494,0.33750267197782
78,1.76947364028619,2.68612551689148,-0.211483656974823,-1.73766459879915,1.76947364028619,-0.0510158910409821,-0.0259736243575393,0.0572472733060005,-0.0054733630349107,-0.160454619426334,0.16069153369173,0.0103667403415459,0.154901427715672,0.157614988254858,15.3671645755459,1.11095483027866,0.870967772441005,0.177392078353035,0.24021038584636,0.139625077876348,0.46463665388019,0.159529854169471,0.0368323126677257,,,,,1.84421771642335,-95.6415120879709,1.62920375264211,AttemptLanding,AttemptLanding,1,0.503382635060623,0.216742005675623,0.214340929056837,0.895731711802114,0.337944409832734
79,2.62791631619136,3.0,-0.413057183193081,-2.56185523803105,2.62791631619136,0.0046746314253396,0.004529247479432,0.0065089370632012,-0.0176393984742301,-0.341028645739264,0.342051813331108,0.0220828084394956,0.197122920357084,0.199887600599444,15.4270360840995,1.95121048105213,1.68141416630877,0.016911978731511,0.0548764302999574,0.119108141221019,0.412682142728063,0.0004129611846135,0.0065505062678879,,,,,3.0,-97.5958361626102,2.37503497749849,AttemptLanding,AttemptLanding,1,0.740755204437584,0.0849121339851986,0.0535128209746238,0.963001959833552,0.347063048346214
80,1.77511381778587,2.49685859680176,-0.222201954125729,-1.74906207123937,1.77511381778587,-0.0377122952228894,-0.0099515012108794,0.039003199706287,-0.0049182254265889,-0.161826566414049,0.161993095747152,0.0104490476000049,0.122140032186844,0.12483545570564,15.4264420997854,0.951123380362074,0.732503479461451,0.176664467467811,0.240221080797168,0.133391679996925,0.361000164228695,0.159564993406037,0.0342801389261671,,,,,1.84269174465958,-96.4089816842801,2.37425768673681,AttemptLanding,AttemptLanding,1,0.498330775884027,0.169543161891393,0.185109177046024,0.898439269510338,0.340714808890255
81,1.83851943616153,2.66828083992004,-0.223574218449143,-1.79715370365152,1.83851943616153,-0.0683653252478779,-0.0202469443617051,0.071300466002924,-0.0072259703904129,-0.175191749334421,0.175611906064898,0.0113265344372113,0.184529257855873,0.187397708764259,15.4365637552889,0.912387972009355,0.756866212924476,0.176695589938107,0.240283046361032,0.140365246207565,0.448308077314108,0.159540887139855,0.0348736899900605,,,,,1.90149022471625,-95.3637271300002,1.50020350728533,AttemptLanding,AttemptLanding,1,0.527751391395928,0.199768067946201,0.203449243533335,0.898536636435038,0.337615446129971
82,2.59991670370102,3.0,-0.401085333975542,-2.53456417175793,2.59991670370102,0.0054982996444644,0.0040659356375726,0.0068383573750719,-0.0171121910676513,-0.334767975562838,0.33574988249436,0.0216683397110258,0.202263730395549,0.204978900900363,15.447708711392,1.58644490832042,1.60257334367992,0.0302364950582048,0.0534008012268612,0.107013596036429,0.425201401993881,0.012088349464385,0.0062909340025849,,,,,2.91783086718893,-97.7855854258006,1.80391955213798,AttemptLanding,AttemptLanding,1,0.734306901167011,0.0912724405193672,0.0624236764381456,0.959825180490895,0.352438401761587
83,1.69760950755429,2.31032276153564,-0.304090585564049,-1.66084947358004,1.69760950755429,-0.0357035347715236,-0.0183853178182408,0.0401592119750764,-0.0065984977944602,-0.145151494585759,0.145428591516511,0.0093787241770234,0.111601904209387,0.114068263003461,15.4687740717102,0.871878952567888,0.519754739443927,0.176695708731,0.240195025699145,0.125565191179944,0.345157906649959,0.156620679851375,0.0414750089719158,,,,,1.75027764965131,-99.5200046041142,1.88826939243445,AttemptLanding,AttemptLanding,1,0.475509521281835,0.145223004341236,0.17182481509413,0.90071788091155,0.34419324836447
84,2.66505639600049,3.0,-0.451440893606479,-2.59267155309347,2.66505639600049,-0.0231002022511021,-0.009423678926931,0.0249484482194726,-0.0176770686169102,-0.343714652520314,0.344779152362223,0.0222432983751661,0.202173937319695,0.204312191660115,15.4479497156255,1.32541344838564,1.04251151747093,0.0636089500178103,0.240292559360463,0.0946443970375766,0.419385311787865,0.0018924950981485,0.0092541187937927,,,,,2.95681470906161,-98.270421652992,1.56464181483122,HoldLanding,HoldLanding,0,0.751544143932154,0.0799361930734595,0.0521679588834199,0.949590400259365,0.357935823538855
85,2.05175299982767,2.89358925819397,-0.450000798565284,-1.98885348888365,2.05175299982767,-0.0462196870641076,-0.0194438609147371,0.0501430274273071,-0.0137312335556689,-0.208184929097427,0.208937151815731,0.0134754277169945,0.139867683128156,0.143425471420176,15.461697630396,0.950496227014211,0.660572248486285,0.175077349733671,0.240275910606899,0.129075296133785,0.424301609439232,0.15681732893982,0.042097243719156,,,,,2.10680641889481,-101.731697741666,2.36328352869939,AttemptLanding,AttemptLanding,1,0.575819227571414,0.198606046494091,0.204168307161522,0.899802929968518,0.342633201718318
86,1.96024708469709,2.74572062492371,-0.543401983495279,-1.86279209626568,1.96024708469709,0.0070618360298458,0.0078635645948185,0.0105690669526365,-0.0199145888991525,-0.182711927247923,0.184618169673642,0.0119175212460855,0.159463207237823,0.160957534784468,15.4284406816588,1.82292186303072,1.73099276243298,0.0207422898622232,0.0527662809201914,0.124700612936349,0.442700540828695,0.0002702885601736,0.0070324452573932,,,,,2.01104491577433,-105.279667622794,2.22350391346948,AttemptLanding,AttemptLanding,1,0.554924062876117,0.178669208825639,0.10987890636522,0.961705240154531,0.344577505361623
87,2.00014620573342,2.68359351158142,-1.12674933283206,-1.63618753286406,2.00014620573342,-0.0441961644382608,0.0036133819722481,0.0443436295349305,-0.0688758991864123,-0.141277514641715,0.160101637307351,0.0103262506952164,0.127793650365475,0.130334004429298,15.4263817485587,0.882598009151955,0.904455992372606,0.176573568295623,0.240239588097811,0.120144446391205,0.414925821870612,0.159576854926958,0.0359544614325884,,,,,2.06469467336038,-124.238920485483,2.45150356003536,AttemptLanding,AttemptLanding,1,0.559439122414772,0.161905309230537,0.181140581784376,0.897672077268781,0.346602468270576
88,1.94468686248169,2.88051819801331,-1.09603001863728,-1.57554669098737,1.94468686248169,-0.0659501987055045,0.006139170018045,0.0662353237918106,-0.0695055208048194,-0.137207190906908,0.159721309798448,0.0103013489054727,0.193889769974673,0.196311913451991,15.455545664033,0.767033439329497,0.978429364754215,0.177117076735241,0.240315879366002,0.149808177378303,0.447241262886213,0.159793351687035,0.0361096421763969,,,,,2.00959748573364,-123.70580417537,1.68043230924776,AttemptLanding,AttemptLanding,1,0.55784554601885,0.222705193189778,0.217773162303562,0.897727111028864,0.333418587831865
89,2.61811669429143,3.0,-0.241205877416331,-2.57652060779172,2.61811669429143,0.0086783214144066,0.0068666338178805,0.0110663418779925,-0.0092643962044373,-0.345590623207122,0.345998648177551,0.0223378181092541,0.198365474273,0.201135477046882,15.384528004241,1.86616928233169,1.8340638560783,0.0178881162561143,0.0663145200291964,0.123515865639251,0.516465122581726,0.00028131571982,0.0088667860951507,,,,,3.0,-94.0907171926139,2.33648860700588,AttemptLanding,AttemptLanding,1,0.738391547220425,0.0879525731287262,0.0561208589388267,0.961982681498721,0.345104059715888
90,1.91459908195444,2.91250276565552,-1.05501015939416,-1.56880327975367,1.91459908195444,-0.0804208478772837,0.0024917330679602,0.0804594401359043,-0.0645049843158781,-0.135055287250048,0.154750803508869,0.0099832226730322,0.187036404950994,0.189429052165706,15.3900537342323,1.05043933625714,1.1002463732426,0.176136681541763,0.240288878344078,0.154101463111512,0.468152681612899,0.156388358878762,0.0404006900011418,,,,,1.99637079272466,-122.311062912018,1.9062853602793,AttemptLanding,AttemptLanding,1,0.548445565620992,0.239279226190991,0.22776463299446,0.895033414368763,0.331510460839328
91,1.88219408437508,2.8662052154541,-1.1351811088148,-1.46927744412507,1.88219408437508,-0.0727094243739042,0.0050284351520005,0.0728830951103365,-0.0744168774751606,-0.119231936487768,0.147034700082858,0.0094851966152677,0.184823771664361,0.187150034514903,15.4272611620454,1.08501746839174,0.979020579364834,0.177243415752899,0.240280635472601,0.188064487530121,0.42875753134461,0.159494734354565,0.0364763958622996,,,,,1.94546366280019,-126.251978914843,1.85048799191681,AttemptLanding,AttemptLanding,1,0.539348429403003,0.234764405263008,0.225009335709761,0.895160850319749,0.316415783319946
92,2.63457850734393,3.0,-0.476026483066004,-2.55903779404859,2.63457850734393,0.0028753989574103,0.0018096105538726,0.0033974416140624,-0.0205674776347406,-0.340161349182631,0.341452916684198,0.0220344215932304,0.193157689363728,0.19591384941025,15.4493090943818,1.5625145121224,1.47371171289779,0.0285575865556219,0.052796552608773,0.101734706895377,0.438150984893747,0.0085671472769056,0.0070815261004693,,,,,3.0,-99.2513675644137,1.91788991382804,AttemptLanding,AttemptLanding,1,0.741737038507097,0.0828427001435276,0.0560883414982453,0.961865143525602,0.354784574713166
93,1.69247370187928,2.42860269546509,-1.02454343520302,-1.33439004547334,1.69247370187928,-0.0481967753320851,0.0014660146141487,0.0482190662628424,-0.0571387734884106,-0.0944144775253645,0.112530820299595,0.0072583794519362,0.109511167192359,0.11133401990622,15.4266003737555,0.839484457649026,0.945613887193297,0.176508724093871,0.243576730132613,0.148081560518202,0.407926099085285,0.156798572468358,0.0413896672445954,,,,,1.74681180591764,-126.657123786368,1.90272730469371,AttemptLanding,AttemptLanding,1,0.473593124482385,0.174469185704994,0.189420553942322,0.897719865243589,0.334185973103021
94,2.63217251006328,3.0,-0.252310847213209,-2.58798427728556,2.63217251006328,-0.0190631291439587,0.0023014167183732,0.019201547116596,-0.0099452533352271,-0.353310619479454,0.353769225529196,0.0228306363618317,0.202208545227118,0.204324245757165,15.4198049955513,1.5351299164287,1.2910075053798,0.0625343929475253,0.240315291703107,0.114821713910009,0.476389297659631,0.0019290952662753,0.0094159519101811,,,,,3.0,-94.2734617915732,2.13066564230971,HoldLanding,HoldLanding,0,0.742777518501641,0.0862814688738046,0.056050239510976,0.946527438069171,0.348968127151107
95,1.81378083326379,2.8463933467865,-1.14831029079087,-1.36895820602573,1.81378083326379,-0.0610454125283385,0.0203970637877083,0.0643628977122291,-0.0750207116226332,-0.103840073757665,0.135333456680946,0.008729350457291,0.17390040743335,0.176026154685482,15.4487459204468,0.865702428613894,1.00689392944898,0.17682596644196,0.240281450419232,0.150818346408206,0.384801030854617,0.15956921721751,0.0374363663127108,,,,,1.86493072097439,-128.583435678336,2.38857105151304,AttemptLanding,AttemptLanding,1,0.518880119807439,0.244137680123186,0.231015484284295,0.896873759679955,0.332969623818575
96,1.73039217273394,2.74566340446472,-1.06363641168346,-1.34353318347989,1.73039217273394,0.0039467072154336,0.002061178981965,0.0044525225030369,-0.0624040477539658,-0.0961834737229337,0.118501209068802,0.0076474314920189,0.144123739878359,0.145067447610249,15.4470692526697,1.57160975126759,1.38728035793259,0.0332544535140155,0.0533222436282287,0.102286154498731,0.451535312960231,0.0238742382514592,0.0054233209681241,,,,,1.76269102467469,-127.19753908103,1.51611187883087,AttemptLanding,AttemptLanding,1,0.490451402251101,0.229252322931649,0.150134283030875,0.960124350956419,0.354539486889453
97,1.75126166651849,2.63828682899475,-1.0780780886933,-1.35956822529537,1.75126166651849,-0.0462469905876558,0.0154772187361468,0.0487681088235053,-0.0645503531144412,-0.0994924386641998,0.122496981064222,0.0079023354233506,0.139639577677071,0.141650331392993,15.4377353719352,0.87929279784125,1.13611631988082,0.177442252857047,0.240237158226236,0.160791754184678,0.425579090541967,0.159339985052801,0.0370431926253919,,,,,1.81622668042125,-127.513201967813,1.52459866346639,AttemptLanding,AttemptLanding,1,0.495333177350196,0.208521481508135,0.209400911903238,0.895443516217946,0.328536998140143
98,1.84711376623232,2.74985504150391,-1.18364003802735,-1.38226001690441,1.84711376623232,-0.0795056746774152,-0.000868023223605,0.0795104129672818,-0.0809386524527416,-0.105141738246703,0.140144731274896,0.0090399957416326,0.184800865547157,0.187039935881897,15.4023001537871,0.94957898614811,1.05995420566275,0.17748120800444,0.240286769804275,0.170296647220839,0.517213234964325,0.159560451819617,0.0371053787382597,,,,,1.91962505408224,-128.853168090004,2.25460166599356,AttemptLanding,AttemptLanding,1,0.529971658171663,0.21769369598011,0.215024838948071,0.895470206633552,0.324312601235183
99,2.62939270893733,3.0,-0.154995495216725,-2.59136525176589,2.62939270893733,0.0052029882639838,0.0087048330329073,0.0101412624956633,-0.0058595502429398,-0.3490385337763,0.349335890210457,0.0225697788297771,0.201124169579493,0.203960185573278,15.3225070542359,2.23097333402089,2.10211992920517,0.0265701197531072,0.0742052899153016,0.134923572575393,0.500973485982581,0.0007947879054256,0.0078031766087189,,,,,3.0,-92.2002194325483,2.00036639697383,AttemptLanding,AttemptLanding,1,0.74196342616461,0.0852458719466396,0.0543382810038688,0.952669207340956,0.34003396774427
100,1.63792343747696,2.39168620109558,-1.03618978585024,-1.25443717541515,1.63792343747696,-0.0402919245112241,0.0178283825066272,0.0440600772085206,-0.0584404662538398,-0.0840933495377432,0.104943302315239,0.0067675648514904,0.114450478182448,0.116145320818545,15.4668710985304,0.738825019707579,0.734432757176531,0.175854664163068,0.240187953703009,0.119582242977653,0.384258492458241,0.15828484894588,0.0344077925996342,,,,,1.68546986904653,-128.540481584722,2.01547858192352,AttemptLanding,AttemptLanding,1,0.460008647490898,0.177674302635752,0.189465327916861,0.900497071100091,0.346852336454376
101,1.66368210715736,2.47226476669312,-1.07190123199046,-1.25349214533671,1.66368210715736,-0.044554482789409,0.0244713613559351,0.0508325630206121,-0.063019747268337,-0.0842282152607114,0.108614388800555,0.0070061588853098,0.121170141821476,0.123003978617819,15.4031578215168,0.852503865242844,0.942162930379412,0.175644719625142,0.240204459735851,0.134880688118945,0.434024684777471,0.157266519110337,0.0348076781037764,,,,,1.69807149429304,-129.55767099295,1.714239762249,AttemptLanding,AttemptLanding,1,0.468249357632192,0.191250401615992,0.197303809177583,0.898076686793254,0.340053027502691
102,2.60961317380269,3.0,-0.14447959839931,-2.57245617061429,2.60961317380269,0.0065635182252587,0.0039338346475893,0.0076521125532677,-0.0053899990103378,-0.345486856597647,0.345765111202134,0.0223333049090475,0.202568521839558,0.205340251715679,15.3152836363844,2.110050618631,1.91967372831596,0.020102590578536,0.0703405604695723,0.136254905860992,0.515787731080184,0.0002085900895893,0.0052794242880375,,,,,3.0,-91.8482151525671,2.25578778615361,AttemptLanding,AttemptLanding,1,0.736964896690521,0.0892399231958264,0.0555564512741755,0.958286584841863,0.339442264061781
103,1.68931246452591,2.64514207839966,-1.06489111888039,-1.27756182609142,1.68931246452591,-0.0655991095286073,0.0117059979817045,0.0666353776885363,-0.0654946100483784,-0.0903406157766484,0.117944066087051,0.0076078382064765,0.177801091662248,0.179745257746867,15.451744415291,0.862268569728565,1.00645120407063,0.176813758418077,0.24024153705833,0.159023329187572,0.382621895227598,0.159492256300309,0.0367078497395782,,,,,1.75398132014352,-128.600052606655,1.78746897256047,AttemptLanding,AttemptLanding,1,0.48643237542295,0.227278149031158,0.220600645659487,0.896910322568253,0.329322964805524
104,2.59593504344716,3.0,-0.333664533980313,-2.54263275519345,2.59593504344716,-0.0148338385510685,0.0148839297547599,0.0210136653419577,-0.0142419812091628,-0.349378772149865,0.350124880843051,0.0225923060289086,0.203485776650355,0.205579858536171,15.433725546987,1.51606180921148,1.1097187905626,0.0626105929907909,0.240347674276412,0.117221947395203,0.451035214946381,0.0019569443090664,0.0079764829172685,,,,,3.0,-96.2939600424606,2.23064098813639,HoldLanding,HoldLanding,0,0.733365316626476,0.0947671205370818,0.0606305645911439,0.948063570220665,0.347901356713243
105,1.70330995524011,2.61077928543091,-1.08727014967433,-1.28466099111841,1.70330995524011,-0.0464357497383403,0.0234717096204144,0.0520307601930514,-0.067107103634374,-0.0915423754213923,0.118622176090579,0.007649606873163,0.169766148223317,0.171677444062358,15.4746101492989,0.608344725647605,0.810195909369437,0.177358405746469,0.240237715487363,0.124953171597152,0.372502691193871,0.159512934293883,0.0367258624404018,,,,,1.78074250763471,-129.221424924807,1.63262889296474,AttemptLanding,AttemptLanding,1,0.4885514768765,0.21371957199499,0.212481239730179,0.900175120708774,0.344465257067933
106,1.85159044305484,2.59475445747375,-1.08149798042864,-1.48786801737409,1.85159044305484,0.0050691853108864,0.0016349142882937,0.0053263105848395,-0.0632015794950594,-0.116719722181367,0.135449978547672,0.0087460481345549,0.128479342859466,0.129561836535616,15.3849757331225,1.90153189522637,1.85991065857351,0.0324519621332422,0.0558380636038792,0.128712446031544,0.442648442478786,0.0172484676023644,0.0039554313789237,,,,,1.88415857146299,-124.959215831678,1.69925167454873,AttemptLanding,AttemptLanding,1,0.519669818788413,0.168188393518144,0.110017360395182,0.954219827439237,0.342794468430425
107,1.69574726438847,2.46164035797119,-1.01675092031736,-1.34453542737474,1.69574726438847,-0.0358384212680775,0.000622005463764,0.0358438185714796,-0.0557974749988924,-0.0954425907276682,0.112737418547726,0.0072708835115792,0.110985640338692,0.11285915796024,15.4634471334409,0.743921862673033,0.865406509687887,0.17668899572316,0.240199679840962,0.135924032850329,0.409549487443731,0.159430389752078,0.0362183419749485,,,,,1.72726488943798,-126.550224489005,2.43947993897421,AttemptLanding,AttemptLanding,1,0.474771102095639,0.178897312794218,0.191366644850163,0.899010779212727,0.339589318733187
108,1.68764124516727,2.41049861907959,-1.02320976108486,-1.32796793134445,1.68764124516727,-0.0380419091540417,0.0082972504153772,0.0389362455372862,-0.0575020713852388,-0.0938472272293075,0.112511268766142,0.0072573268669372,0.116408444549037,0.11833802253284,15.4422489509764,0.885268061013801,0.969422802537851,0.176615983687393,0.240212629152614,0.166040208427896,0.432722297279093,0.159454112237669,0.0347881032303888,,,,,1.72684939224008,-126.925173742408,1.8625791998389,AttemptLanding,AttemptLanding,1,0.473705269884507,0.169781220812107,0.185387446171622,0.897119437085541,0.326204351809824
109,2.62395830074946,3.0,-0.311457481701775,-2.57358923369313,2.62395830074946,0.0055201882233097,0.0029723938633837,0.0062695776013898,-0.0126145432151293,-0.344274973251276,0.344871229046084,0.0222687420235066,0.197961223014459,0.200689344203501,15.4301744530125,2.09932904654153,1.80960810487583,0.0244918119400739,0.0537388873866225,0.126934661548048,0.464026560742762,0.0001036366893698,0.0098657005145521,,,,,3.0,-95.4171668207032,2.10098156671037,AttemptLanding,AttemptLanding,1,0.73986008237389,0.0857588048916261,0.0550888711456438,0.957041016411684,0.343584594867534
110,1.61304786497233,2.27267050743103,-0.931416979209725,-1.3053033347397,1.61304786497233,-0.0341007192828711,0.0107695588669298,0.035760906780973,-0.046769554501744,-0.0902535941758503,0.103470993921249,0.0066769920865491,0.109590780093673,0.111231031256176,15.3581282693253,1.12866588104391,1.21199473507521,0.17691635633822,0.240190928408528,0.163491145199625,0.457665462095759,0.159202129306043,0.0372743763885656,,,,,1.65985778043302,-125.136897277648,2.20031751569271,AttemptLanding,AttemptLanding,1,0.45239230357719,0.154971260796386,0.17729357707838,0.893150916989954,0.327337268800167
111,1.55723993794448,2.25047588348389,-0.940322532802012,-1.21343572353314,1.55723993794448,-0.0669799415285282,0.0027247028377435,0.0670353382382685,-0.0509203001807304,-0.0812911656371178,0.100530249596014,0.0064844971676007,0.15343047579351,0.154961179344138,15.4405300926505,0.883675664860384,0.937081947054439,0.176766846316053,0.240184965584904,0.12138547673336,0.435936247514215,0.159506096849552,0.036904895091469,,,,,1.59306398738573,-126.486183134521,2.08076697070113,AttemptLanding,AttemptLanding,1,0.446256219320688,0.168267899756716,0.185272300305274,0.897310624176929,0.346050899229618
112,2.6199016447862,3.0,-0.246845580929648,-2.57704605332325,2.6199016447862,0.00540785253212,0.0028020943138742,0.0060906979528625,-0.0093279773569075,-0.345486208828628,0.345887987952541,0.0223175213521592,0.197930079623569,0.200689837594397,15.4429897240032,1.48525380791136,1.18166630728522,0.0240773387104953,0.0463563412403642,0.0962612901654199,0.431054602353408,0.0003308187351021,0.0072726580347686,,,,,3.0,-94.1056534981467,2.0846125271467,AttemptLanding,AttemptLanding,1,0.738778406128532,0.08663875788113,0.0547748881993463,0.967006958311065,0.357217204370925
113,1.72942323668473,2.42415857315063,-1.00257554096454,-1.39575920033281,1.72942323668473,-0.0460293895437296,0.0049502529601631,0.0462948129506752,-0.0542469875756144,-0.102761443188441,0.118445204607267,0.0076395846564403,0.103279469938725,0.105209024410241,15.4507851047971,0.853293101870871,0.883007809743194,0.177282906836187,0.240221478278806,0.13682118844995,0.375231803192353,0.159537539249129,0.0343592287761079,,,,,1.77528590773906,-124.910768203071,2.01710686774536,AttemptLanding,AttemptLanding,1,0.482221334664644,0.164802833079118,0.182281537856577,0.897716182276367,0.339190582911133
114,2.69112038298657,3.0,-0.428286267286006,-2.62257894446278,2.69112038298657,-0.0264340798954589,-0.0124559791573755,0.02922177264795,-0.0177823001694265,-0.350455955239503,0.351523811767595,0.0226908427280243,0.204805906243661,0.206988244043382,15.4025376618069,1.7357742514626,1.45981310248302,0.062285807733681,0.240279906217932,0.129221060856905,0.412860871591599,0.0018506393413028,0.0087039130895216,,,,,2.9979851142919,-97.9705526263991,2.05357592999457,HoldLanding,HoldLanding,0,0.759029750938429,0.0748552388134791,0.0489007089672804,0.94374890978073,0.342568417396931
115,1.84482971259526,2.56984925270081,-1.02654943678574,-1.51870921221062,1.84482971259526,-0.0387500963129648,0.0133732537082324,0.0409928515598611,-0.0575118218404634,-0.12245037071689,0.13763038022354,0.0088822281044544,0.133571433822105,0.135828347563825,15.3509307152363,1.23622629561259,1.26534832286884,0.17665934899294,0.240262405782467,0.174814667681424,0.480668701701408,0.15677273086323,0.0417233656367766,,,,,1.89315516909655,-124.179562229341,1.67124913213099,AttemptLanding,AttemptLanding,1,0.519120259538167,0.170644752643056,0.187235753817208,0.892015096358319,0.32230459214159
116,1.65437207857768,2.60911655426025,-1.00437690612313,-1.28574839437365,1.65437207857768,0.0058406005785511,0.002682784990066,0.0064272817287789,-0.0583108957417163,-0.0907853695088501,0.112938667715705,0.0072918334129189,0.179246684732069,0.180094845068654,15.4162937369127,1.90357778605585,1.71499884589566,0.0325096572374619,0.0539515422919211,0.126102381765088,0.433803140620329,0.0155380250833098,0.0065878513373543,,,,,1.69700248239393,-126.66944677606,1.73090195237443,AttemptLanding,AttemptLanding,1,0.477184856634445,0.215995842012189,0.138898876437721,0.955313497844507,0.343954496993294
117,1.60027684362567,2.51006746292114,-0.943141009487681,-1.26671310538233,1.60027684362567,-0.0575580934132657,0.011700404907992,0.0587352840495488,-0.0508291314233552,-0.088462821405489,0.10640872851405,0.0068634952444556,0.16121841845791,0.162911974789745,15.4166421506159,0.835342876872498,1.00572061964745,0.177064681893168,0.240220837786657,0.141189916907482,0.476522836667942,0.159573690638052,0.0350142031223053,,,,,1.6721231422542,-125.43586516234,2.09634150572694,AttemptLanding,AttemptLanding,1,0.459322886591462,0.215471024750565,0.212936692632938,0.897002160152188,0.337248925818897
118,1.69959194968347,2.4365234375,-1.05150525256855,-1.32059121185477,1.69959194968347,-0.0319772316482881,0.0155492790202453,0.0355573258547056,-0.0598670923534228,-0.0937540918862144,0.113924629714368,0.0073479528325238,0.120814164847687,0.122575543616512,15.4524240199852,0.770826484776753,0.990088851046331,0.176536483771532,0.24021839431294,0.138937139629027,0.442749176754779,0.159459840076508,0.0366288898536842,,,,,1.78141492798702,-127.597402747289,1.90844391784607,AttemptLanding,AttemptLanding,1,0.477739628638894,0.172328427832082,0.187587693043684,0.897895994761338,0.338250160164877
119,2.57853445649147,3.0,-0.359058707815065,-2.52098914364537,2.57853445649147,0.0048737963301339,0.0061148615989302,0.0078195538901972,-0.0147022004083797,-0.331941201484778,0.332710492923422,0.0214731979138282,0.20368321267828,0.206311769376534,15.441610726968,1.68795950390377,1.36458957863417,0.0232222185393276,0.0540544599859332,0.109752063528543,0.456370741770383,0.0003162605107474,0.0078212072028326,,,,,2.88139783872518,-96.8469577847742,2.1282242652184,AttemptLanding,AttemptLanding,1,0.728871542273032,0.0962633321692887,0.0607426348750567,0.964404576510395,0.351221305098426
120,1.71048291767536,2.31614947319031,-1.01125461088199,-1.36627851808432,1.71048291767536,-0.051089054276662,0.0049736640616955,0.0513305834866731,-0.0557782559226924,-0.0989006390533782,0.115816462276541,0.0074699608912006,0.1185980157328,0.120518656160826,15.4442114491279,0.879082564392785,0.896345277223883,0.176328884462627,0.240216439188632,0.163024256791362,0.352624177297291,0.1594339425711,0.0350668107262316,,,,,1.76744363452008,-125.864521808831,2.31631635437939,AttemptLanding,AttemptLanding,1,0.480232509278927,0.145685581963421,0.171022446746464,0.897885767584556,0.327544774759395
121,1.71053745876364,2.36328339576721,-0.987783068218797,-1.37626634347043,1.71053745876364,-0.0563270812296324,0.0034344023935695,0.056431686131557,-0.0540973690325434,-0.100842913254413,0.117742213364379,0.0075953028923707,0.129931808983914,0.131826854476301,15.4367639439301,1.01618609564757,0.957603572265375,0.176861673496078,0.24019717305038,0.167913353381232,0.456622267853737,0.159509823940993,0.0349763745661935,,,,,1.76448514358837,-124.664357217421,1.51832916729514,AttemptLanding,AttemptLanding,1,0.482508693232231,0.157213644949922,0.177940123715273,0.896060815861217,0.325371842941675
122,2.62451920350393,3.0,-0.377639170400196,-2.56383656203804,2.62451920350393,0.0069359315691649,0.0060672702183362,0.0092151459366875,-0.0158869913230978,-0.341988186903852,0.342850106335693,0.022139475788777,0.196729150496864,0.199435908827275,15.4102233213002,1.97377475470843,1.90636877610938,0.0136846911717705,0.0485740331246814,0.135219984784542,0.444564213946459,0.0002061759639301,0.0057266200215166,,,,,3.0,-97.1526305433791,2.49711557029006,AttemptLanding,AttemptLanding,1,0.739758969366502,0.0861726226333426,0.0538776146223038,0.962670812386261,0.339902228984648
123,1.59297880510084,2.5867908000946,-0.923215338963089,-1.2730739990081,1.59297880510084,-0.0556362776341342,-0.0013686550427102,0.0556531095771692,-0.0497044814166475,-0.0897235715580765,0.106730894601281,0.006884548465491,0.163553234888785,0.165261177466168,15.3767481241167,0.959585509766338,1.02855584214656,0.176693085996415,0.240210651996087,0.149866710242482,0.453890839766724,0.159478944734573,0.0363539781667318,,,,,1.66518818535526,-124.488998271363,1.75204179535276,AttemptLanding,AttemptLanding,1,0.457846583520123,0.233810768962745,0.224385620795057,0.89603234637962,0.333392573225564
124,2.68745612207666,3.0,-0.529854008689043,-2.60135234633838,2.68745612207666,-0.0202945558076153,-0.0140235792698258,0.0246683961976757,-0.0235890878045261,-0.344272586454153,0.345960782005764,0.0223314014718781,0.202303027026016,0.204378702771122,15.4065524272721,1.82629319294313,1.25572445217746,0.0628083776777332,0.240269240909551,0.129768289434548,0.444917382848667,0.0018913007090494,0.0076702180048036,,,,,3.0,-100.530616564359,2.0006083519128,HoldLanding,HoldLanding,0,0.757530706441332,0.0748449118356598,0.0485366953778717,0.944379958235186,0.342325204695756
125,1.56467831929525,2.2660813331604,-0.817589088255503,-1.32072432628356,1.56467831929525,-0.049083582229978,0.0048451168892824,0.0493221370400536,-0.0376185941195276,-0.0937072753413765,0.10265605038122,0.0066205758726714,0.130048543429846,0.131617680322978,15.4631317205322,0.753322234499144,0.791598490447623,0.175126064581831,0.24020599309225,0.160508288695042,0.41858811402364,0.157824020126321,0.0390919299527498,,,,,1.59718321662841,-120.692341177793,2.23133357025246,AttemptLanding,AttemptLanding,1,0.443571087876662,0.166858069910336,0.184474098146779,0.900298304870217,0.328662982802204
126,1.55384896272002,2.25272345542908,-0.869963258624217,-1.27464811061812,1.55384896272002,0.0029094626489149,0.001036341193595,0.0030885232676755,-0.0413079103560225,-0.086017000639013,0.0972345816681072,0.0062765501477782,0.10838407601545,0.109080454736366,15.3667495202337,1.69691501944211,1.64418403502394,0.0168663636353568,0.0539610551521067,0.119488635106771,0.426143058323847,0.000221629320768,0.0050273328789151,,,,,1.57811714801433,-123.111297136965,2.35726050583032,AttemptLanding,AttemptLanding,1,0.436175814339279,0.157812990125278,0.0966144170423863,0.965315325611517,0.346893939952546
127,1.51065652183935,2.16874146461487,-0.760883576188044,-1.2949701485109,1.51065652183935,-0.0366967578274893,0.0113268640831563,0.0384050762921738,-0.0318729765465155,-0.088574222757122,0.0953049060495751,0.0061463036601621,0.0987359024776609,0.100253292640387,15.4561701111343,0.784448757670457,0.71556878955066,0.176126572436823,0.240182633039899,0.106945828119737,0.38032375691687,0.159614968454533,0.0350360936050793,,,,,1.53181850141805,-119.504479623187,1.61107369013603,AttemptLanding,AttemptLanding,1,0.422892397685237,0.155110042778057,0.176746409321201,0.900150861624851,0.352468520835673
128,1.63417997489981,2.30320692062378,-0.869242248835796,-1.36647851529092,1.63417997489981,-0.0519637888190356,0.0051656924155376,0.0522199169528378,-0.0423411950466138,-0.0998080291454429,0.110847360713021,0.0071508533089833,0.128232931487833,0.129940427359784,15.4354835849801,0.832346029812656,1.13585669218779,0.17750465925925,0.240182095624538,0.155761723184683,0.450647500440649,0.159513993529215,0.0369872523233518,,,,,1.67347133841587,-121.814224359451,2.03717383044193,AttemptLanding,AttemptLanding,1,0.461769412111906,0.160104714229246,0.180407846708519,0.8957832204118,0.330772567473474
129,2.61592288653056,3.0,-0.519323672166914,-2.5294586768865,2.61592288653056,0.0073480139629963,0.0049296427178214,0.0088484284777444,-0.0235327922215479,-0.333154871417994,0.334879904075901,0.0216161917212406,0.198583079121527,0.201273751172969,15.4377216312718,1.76017411698093,1.62837978733637,0.0324117969084099,0.0487198674657556,0.114922253131866,0.439018600628403,0.0243041867179675,0.0053198831108903,,,,,2.98812679975473,-100.15154225882,1.57081417830479,AttemptLanding,AttemptLanding,1,0.737834186642743,0.0880395624182109,0.0655601011638823,0.957169749440445,0.348923443052504
130,1.64172053093813,2.44306945800781,-0.915958460228862,-1.34380677066002,1.64172053093813,-0.0339074787604733,0.0176560642724509,0.038228964431238,-0.0467865251426419,-0.0964625409667778,0.110050985730213,0.00709938242104,0.120512265820797,0.12232434926058,15.4062075040487,0.968879343369608,1.03011151468934,0.177279150983247,0.240201822324513,0.167389531285782,0.396327975952761,0.159772375731353,0.037984977749632,,,,,1.67291748571223,-123.514973806059,1.7586559372115,AttemptLanding,AttemptLanding,1,0.462257011435617,0.187312152069739,0.197209955193018,0.895654067766485,0.325604652761875
131,1.46577465331473,2.26877355575562,-0.735751710707505,-1.2443422377208,1.46577465331473,-0.0584546919637898,-0.0023748904518071,0.058502915459314,-0.0330178340667746,-0.0864395601379468,0.0952657192261754,0.006143486253505,0.158591638364264,0.160110700121496,15.4601268004589,0.632446035870876,0.753681482172321,0.176067866012602,0.240175493675948,0.12641676352368,0.452292446054677,0.15948909883659,0.0379672772597415,,,,,1.54515709711904,-119.107877075441,1.5,AttemptLanding,AttemptLanding,1,0.422895380908228,0.191400287550073,0.199530499097323,0.901075065066217,0.343814771767253
132,2.62609709819158,3.0,-0.442083591409568,-2.55608820356621,2.62609709819158,0.007235237587691,0.0043159720837121,0.0084247420125318,-0.0188776416721158,-0.339537924448495,0.340693907072682,0.0219949060469322,0.19528753035703,0.198071069684408,15.4388867900753,1.92992812437367,1.70809553412072,0.0317630495091109,0.0512650410745161,0.123679965287642,0.439415452110608,0.0228813530018608,0.0062671400682492,,,,,3.0,-98.8062245222683,1.66216202307612,AttemptLanding,AttemptLanding,1,0.739906773454636,0.0856726889425256,0.0638520636133825,0.955534003642989,0.345031126538826
133,1.62346114431109,2.62620186805725,-0.844422538083341,-1.35987747532145,1.62346114431109,-0.0580533751871385,-0.0037507132952191,0.0581744120798965,-0.0430575289744051,-0.101985665669498,0.11434709422282,0.0073756117367707,0.17001954421399,0.171803772796798,15.427332607788,0.8269322388808,1.00727818674735,0.177214715352558,0.240222315558028,0.154266291119844,0.415418180945837,0.159476734877223,0.0368049765831331,,,,,1.68330103474598,-120.509023497779,1.5,AttemptLanding,AttemptLanding,1,0.46728372637565,0.236281971724201,0.226031359717254,0.8969809889795,0.331437203946736
134,2.59359630817591,3.0,-0.589364801806501,-2.49342257626382,2.59359630817591,-0.0093100829089363,0.0158364254835767,0.0183703569880432,-0.0286275884760482,-0.334849185003926,0.337250302475066,0.0217703548700194,0.200174250408537,0.202110446252418,15.4037213064664,1.68010425173696,1.52732953156443,0.0630041793328823,0.240473851350796,0.126961346671625,0.515930087021456,0.0019536957059332,0.0092727852511961,,,,,3.0,-102.269542710179,2.35745122369658,HoldLanding,HoldLanding,0,0.732047771430726,0.094808729441562,0.0611254687771001,0.943296644893334,0.343572734812611
135,1.64814737621619,2.44118046760559,-0.854333130945769,-1.39140305495753,1.64814737621619,-0.0540236468466323,-0.00666231123042,0.0544329019026234,-0.0416988452400712,-0.103824496328171,0.114330897681837,0.0073725562094932,0.136179434477315,0.138074964179856,15.4715978773901,0.616671952828215,0.668989981230872,0.175829267524508,0.240170286236591,0.0998520739802968,0.394339247707692,0.159586034070429,0.0355695525761007,,,,,1.71044333906111,-120.370167332204,2.35424650470897,AttemptLanding,AttemptLanding,1,0.467120959826955,0.18841181091143,0.196908595555328,0.901983736755853,0.355621300453201
136,1.62753843843937,2.32585167884827,-0.761490885323482,-1.42116039036571,1.62753843843937,0.0049220960622652,0.0027865075292322,0.0056561164995635,-0.0331473946692196,-0.107095135770536,0.113940712237723,0.0073549442765994,0.133055984700158,0.133940988081291,15.3652175145029,1.81110508227673,1.54608282241778,0.0257174059163054,0.0717906123537929,0.114840704540867,0.473915564677725,0.0017673302466216,0.0092359255606927,,,,,1.66149639163359,-116.91481150861,2.03904479065789,AttemptLanding,AttemptLanding,1,0.460798447866757,0.158157433783589,0.0990384587654692,0.96076339207639,0.348959686870726
137,1.47089073447143,2.39235329627991,-0.702748551325796,-1.26690836730345,1.47089073447143,-0.0559180363071792,-0.0039856281273156,0.0560598966822118,-0.0300208695780082,-0.0882436755177316,0.0957807031309279,0.0061796563730348,0.15508886968649,0.156536208564415,15.3705203336028,1.03508810968588,1.09596061261231,0.176966869731968,0.240176980330705,0.138331935320315,0.455281381344138,0.159458695756541,0.036316665754049,,,,,1.50463962214456,-118.009747287404,2.30507074360535,AttemptLanding,AttemptLanding,1,0.423544770905265,0.217606724131979,0.214640626200739,0.894772610887387,0.338519139857638
138,1.56757436560936,2.13634300231934,-0.707327113104246,-1.38777289522426,1.56757436560936,-0.0367099094984135,0.0120759607036543,0.0386451327116095,-0.0281676378854361,-0.102452932250105,0.10726367742316,0.0069177716866605,0.107518181526307,0.109279977175458,15.4648155129452,0.757926769431918,0.759162203411989,0.175749660443081,0.240178417057002,0.131717289394739,0.435325680412346,0.159403481638902,0.0368274716628462,,,,,1.62198882751374,-116.427624599585,1.50852562032506,AttemptLanding,AttemptLanding,1,0.439875826264254,0.135057884256874,0.165272530271035,0.900205184991829,0.341458982491227
139,2.6256644252936,3.0,-0.516736579593593,-2.54080606728666,2.6256644252936,0.0076111828948433,0.0033493757888133,0.0083155530924554,-0.0231013964260484,-0.335475302699395,0.337112252363085,0.0217631476113263,0.19562394197809,0.198368607134368,15.434688492003,1.76439119801841,1.7814760191001,0.0158720051868856,0.0443813300108843,0.125042212230249,0.411204121121226,0.0002213549687942,0.0066321864169424,,,,,3.0,-100.33835635475,2.41139982107974,AttemptLanding,AttemptLanding,1,0.739850901505168,0.0857500223758892,0.0539600975632798,0.964203612129197,0.344425683453223
140,1.57587012527762,2.36689019203186,-0.745205335273736,-1.36477469349629,1.57587012527762,-0.058860976475693,-0.0007576200973682,0.0588658520696339,-0.033671162997676,-0.101480607771297,0.109449405777397,0.0070581235951996,0.159803637805496,0.161567479223157,15.4674533333136,0.729608635446731,0.645976322070422,0.176525085023629,0.240202230430627,0.0977949060980383,0.377090378056243,0.156709411722277,0.0411411499087584,,,,,1.62484937329115,-117.662804067615,1.87154759386352,AttemptLanding,AttemptLanding,1,0.452545529251997,0.188771587899136,0.197871998320244,0.900929289964837,0.356535597289761
141,1.53473784850568,2.30625700950623,-0.766554022619106,-1.3117316038369,1.53473784850568,-0.0537866603318825,0.002947458482373,0.053867358772847,-0.0337032996784407,-0.0925978005677954,0.100608378943923,0.0064899813325753,0.128292745281438,0.129879840042632,15.3972972571974,0.799539648562933,1.05946119289127,0.177382644371745,0.240178252189769,0.162414756021909,0.519348226727552,0.159436333992253,0.0357602715875805,,,,,1.58700801541868,-119.377240163094,2.18842958493603,AttemptLanding,AttemptLanding,1,0.435239394276708,0.183467493666811,0.193944824208289,0.896702242631273,0.327815663990263
142,2.62883165876071,3.0,-0.620753265586444,-2.52301420153105,2.62883165876071,0.0076850396643283,0.0004931509537011,0.0077008462200875,-0.0287608341362762,-0.331417728105694,0.333787544696572,0.0215638800895829,0.196050220566384,0.198691443015356,15.3366365519499,2.33813976081938,2.07426044881178,0.022243873493576,0.0724869885514024,0.138406030717833,0.520388654391451,0.0002482387071204,0.0048981344155152,,,,,3.0,-102.460692774955,2.15288116455412,AttemptLanding,AttemptLanding,1,0.740760064272593,0.084924698585857,0.0528462872532501,0.954209204463253,0.338486208569852
143,1.44921472364542,2.10192823410034,-0.63237013251155,-1.29463907659896,1.44921472364542,-0.0412634078696378,-0.0121399669205179,0.0430121799708798,-0.0225455761915457,-0.0889135921592715,0.0924788594175684,0.0059653284175151,0.103629319906132,0.105138052257978,15.4325594406827,0.904892565844527,0.918336797235033,0.177890519892929,0.240137086101799,0.153973183664092,0.43927789639706,0.159564496126255,0.0358175162990579,,,,,1.50542716708844,-115.316950545559,2.29132451945831,AttemptLanding,AttemptLanding,1,0.407484870090375,0.154746106180351,0.176789768923577,0.896729366486482,0.33156747392707
144,2.68669471340458,3.0,-0.589617159417585,-2.58352242269565,2.68669471340458,-0.0301473509808118,-0.0061377102621384,0.0307657968923643,-0.0253516101535393,-0.343326849390588,0.345307758880446,0.0222825773744345,0.203317691750956,0.205395719100094,15.4161711712736,1.53850074487773,1.21537415078933,0.0627897703997908,0.240447205575104,0.112562794477013,0.454684423869073,0.0018915991513614,0.0108573066065331,,,,,3.0,-100.955060334027,1.88317295086694,HoldLanding,HoldLanding,0,0.757531067394573,0.0761340855809032,0.0504692735757651,0.946967526334149,0.34997209134355
145,1.65070942875479,2.29146003723145,-0.754825397783727,-1.45611983109819,1.65070942875479,-0.0470252358685508,-0.0053002904425231,0.0473229953327972,-0.0316927690855101,-0.111853752541113,0.117443939340914,0.0075756268121847,0.109232721803993,0.11119819359086,15.4608814002857,0.881024955047517,0.932978116150033,0.176084356023684,0.240184676814687,0.178234596083045,0.426397773542157,0.159579293489123,0.035856487903556,,,,,1.68254359450145,-116.590495520199,1.79744146049461,AttemptLanding,AttemptLanding,1,0.46242881971945,0.152844769384926,0.175669714944586,0.897704940714463,0.320784623963091
146,1.73038357814153,2.5924825668335,-0.820086864771673,-1.50271863393758,1.73038357814153,0.0060270319585732,0.0034656136444069,0.0069523803234549,-0.038789103434015,-0.119589208129584,0.128138756394034,0.008267842779078,0.143971195248011,0.144957584564752,15.4518129686782,1.38328776312142,1.30284732362939,0.0270883162490693,0.0493393258031032,0.0945809186703947,0.437896607799512,0.0071606481811849,0.0070874829144228,,,,,1.779143412243,-117.297381887505,1.97389308275023,AttemptLanding,AttemptLanding,1,0.490427137750692,0.195246875514992,0.12290790212608,0.96535049476528,0.357964036146491
147,1.46284361599254,2.08603644371033,-0.719953238990723,-1.26089307470949,1.46284361599254,-0.0444057928795209,0.0016262337039887,0.0444355609542503,-0.0291042303622779,-0.0835584742448593,0.0897986266419309,0.0057926464534667,0.096771417273426,0.0982416250535942,15.4056993624727,0.96784651773018,0.876502654469117,0.176697718323527,0.240138984404771,0.128929048660539,0.398332859050199,0.159516572425245,0.0351976436761842,,,,,1.48754464037965,-118.732441752547,1.54903486661484,AttemptLanding,AttemptLanding,1,0.409739955942063,0.148364905744781,0.172714341013065,0.897159825913814,0.342698200595316
148,1.68586814241344,2.47835254669189,-0.753427220686805,-1.4954016660578,1.68586814241344,-0.0448114683349453,0.001963048376514,0.0448544451895499,-0.0316959114533909,-0.118449711024245,0.123878714637627,0.0079944235087864,0.125824317414024,0.12785637443124,15.3566850758723,1.18665230740381,1.17123479552557,0.177092535178593,0.240203442509472,0.161587536083289,0.471263377772335,0.156668734131989,0.0409276695879259,,,,,1.75445964810256,-115.915142708198,1.54943473599376,AttemptLanding,AttemptLanding,1,0.475136112863167,0.186532305914069,0.196432720992612,0.892927476601972,0.328183317296316
149,2.58122763514519,3.0,-0.617925290536002,-2.47396978832774,2.58122763514519,0.0057655737527607,0.0056705107947816,0.0080868123121696,-0.0289567286238623,-0.319845916833001,0.322346793743101,0.0208098025927795,0.203580273935832,0.206142754337105,15.427811738191,1.89264521011286,1.712753646103,0.0195810167267763,0.0470763647988707,0.123098012301675,0.452461890460457,0.0002151121940466,0.0091453209321555,,,,,2.89228411426449,-102.374592577792,2.27657479215563,AttemptLanding,AttemptLanding,1,0.729555920239471,0.095706364349564,0.0608449952773712,0.961881357766344,0.345289772310367
150,1.49418300830278,2.24659061431885,-0.630207501727116,-1.34412401972532,1.49418300830278,-0.0380878731018288,0.0004263675252277,0.0380902594725684,-0.0227342073230434,-0.09576377000633,0.0992201130283938,0.0063992106550117,0.103179199098491,0.104801417325086,15.4207121811839,0.806433539460412,0.781672568293917,0.176514910963375,0.240141273852759,0.122522207086625,0.416397088585644,0.157054216701028,0.0406128949579117,,,,,1.57055207434036,-114.528428258895,1.59451266799476,AttemptLanding,AttemptLanding,1,0.419409085679091,0.176274925590253,0.190335154882738,0.899264567957385,0.345545685739278
151,1.49287098046117,2.20195293426514,-0.672378070489817,-1.30988877522286,1.49287098046117,-0.0645884593456487,0.0042611661729012,0.0647288700488244,-0.028060397031198,-0.0937971925471814,0.0999990932772538,0.0064491002968631,0.149417286615352,0.150913883727939,15.4588541231654,0.704184806822261,0.695051574856633,0.174038864497016,0.240183872633006,0.123906010233876,0.431059861166509,0.159338223740329,0.0345873355685746,,,,,1.53043490962982,-115.371127707452,2.38901696840469,AttemptLanding,AttemptLanding,1,0.428281704868567,0.171410399114843,0.186240440731968,0.901986567609729,0.344930662118277
152,2.62021989862124,3.0,-0.654966094570102,-2.50374470484618,2.62021989862124,0.0066872016831996,0.0023338974910644,0.0070827779755252,-0.0316681044336601,-0.326065695775037,0.32896373761773,0.0212522972525207,0.198223950597233,0.200825177495061,15.358403324387,2.32345683696437,2.18630480686621,0.0237695056239589,0.0713686974940098,0.142578528277087,0.495536449751078,0.0003415610411935,0.0114479107894383,,,,,3.0,-103.235441300153,2.11902113592191,AttemptLanding,AttemptLanding,1,0.73889034179801,0.0867490321057337,0.0563641008213422,0.95268140570078,0.336631765210184
153,1.46213457414082,2.21546244621277,-0.692966072997143,-1.26210278370132,1.46213457414082,-0.0549732694352099,0.0084082553288662,0.0556125805018216,-0.0295840451544068,-0.0888605906584139,0.0962854522549577,0.0062109249962061,0.165154214378948,0.16660491641763,15.4130071616904,0.916508720915821,0.877144916289814,0.176871152736546,0.240154792484103,0.140897966537365,0.364465111905449,0.159438528377136,0.0366408875957976,,,,,1.53053947457772,-117.277382087191,1.83859029620957,AttemptLanding,AttemptLanding,1,0.423223536387745,0.179694410974855,0.192002173878274,0.897471430767968,0.337378681538949
154,2.67911791079847,3.0,-0.655761523725012,-2.55982364536509,2.67911791079847,-0.025902866652236,-0.0112861096665627,0.0282548185662057,-0.0311766517868332,-0.334835317019477,0.337798610615435,0.021795752253956,0.205280824996361,0.207274558048064,15.4427792432929,1.3915909091479,1.13917213066735,0.0623549073990881,0.240311836542882,0.10648799797614,0.44040925525581,0.0018516000010663,0.0086024331472507,,,,,3.0,-102.931426400997,1.9292279831056,HoldLanding,HoldLanding,0,0.755886354489204,0.0773785201408159,0.050378202926388,0.94893797955905,0.352672000899494
155,1.6092085367119,2.41869282722473,-0.765934335965917,-1.38861491037605,1.6092085367119,-0.0612909807032035,-0.0003336930002346,0.0612918890766051,-0.0357141496086045,-0.106887422142844,0.115605936008742,0.007455725871477,0.163996039485728,0.165665584895345,15.4534910351397,0.806874864057696,0.749977234715564,0.176057339190129,0.240223618633487,0.141900683865367,0.410988346806382,0.156677740451677,0.0400345277310925,,,,,1.68981233095603,-117.495671617653,1.76335979719175,AttemptLanding,AttemptLanding,1,0.462255393435575,0.193370811696098,0.200215048413549,0.899738921057432,0.33693302939317
156,1.60947864452998,2.49795389175415,-0.714689154492023,-1.41696178538982,1.60947864452998,0.0047191582567747,0.0035920052109756,0.0059306792265441,-0.0317417373694065,-0.10897216643244,0.115892859851517,0.0074800095534476,0.172809100193463,0.173705919458209,15.4328751196395,1.74348777512716,1.64614792073344,0.0314900293976343,0.047281087643256,0.122126791873665,0.370457472564545,0.0249137567729124,0.0052250112464626,,,,,1.64682358488304,-115.230680905002,1.61491856938612,AttemptLanding,AttemptLanding,1,0.463935489099636,0.200994221816972,0.133569317967767,0.957622133405135,0.345721425833927
157,1.66478295715488,2.38147974014282,-0.718724274987394,-1.48960131543838,1.66478295715488,-0.0368777022419095,-0.0068416152775726,0.0375069676493482,-0.0290144481375575,-0.117698843969921,0.122321535641472,0.0078889770625691,0.117057146373878,0.118966155526208,15.4402949198959,0.771889124758379,0.805365869222819,0.177019388929089,0.240215892184554,0.11529887229865,0.431029669246392,0.159537397388096,0.0357010963307894,,,,,1.69535374865113,-115.407012304463,1.5112876978912,AttemptLanding,AttemptLanding,1,0.467735353013209,0.168133053574668,0.184767558942625,0.899097587725603,0.348756056756156
158,1.63798767530999,2.29083395004272,-0.760345405523877,-1.43932077992073,1.63798767530999,-0.0463575265259755,-0.0094226008345022,0.0473054507651379,-0.0322604120048605,-0.110037298494997,0.115891398980218,0.0074744370262811,0.126144605224115,0.127927611325862,15.4614325950263,0.807062470527058,0.826369949479631,0.176679720233213,0.240188832493961,0.135151485521778,0.413519047211795,0.159453241570201,0.0348238433008179,,,,,1.65925020896733,-117.23842078182,1.56487876371986,AttemptLanding,AttemptLanding,1,0.46238223568117,0.155563077788473,0.17686916978337,0.898826028011912,0.339932673101432
159,2.58342512130737,3.0,-0.736702726139718,-2.44272795443857,2.58342512130737,0.0033941619748734,0.0031343468125809,0.0046200070836756,-0.0373370457519477,-0.311718082598312,0.315712294863941,0.0203779425726337,0.205933142807133,0.208345233479421,15.4038123816323,1.69590535367543,1.65632440144407,0.0211180173720973,0.052845811214636,0.113300359405063,0.423501885805225,0.000297313504249,0.0094477426627948,,,,,2.88835322200788,-105.56852442763,2.20859217674318,AttemptLanding,AttemptLanding,1,0.73058241237785,0.0945763490045149,0.0603134915244016,0.963102043238012,0.349644284708861
160,1.5117291195863,2.26885795593262,-0.668446976310744,-1.34174203794822,1.5117291195863,-0.0523660193330476,-0.0186991741044456,0.0556044880650608,-0.025867501799433,-0.0965569114463715,0.101147421991446,0.0065244356416871,0.124142981479092,0.125768394901677,15.4098705423416,0.95662686745204,0.913809537177046,0.176487598761205,0.240173027301509,0.170388023336365,0.431022589498251,0.159454351002908,0.0346251637621494,,,,,1.56544004446909,-115.546181583882,1.89002347387177,AttemptLanding,AttemptLanding,1,0.428281444203348,0.180548144323183,0.191788455680429,0.897059914583026,0.324271989628282
161,1.66469055253106,2.38823866844177,-0.777325345601963,-1.46187779334735,1.66469055253106,-0.0417819920698942,-0.0074096851272838,0.0424339285833187,-0.0336170854408896,-0.112857091160221,0.118861844395316,0.0076669645501909,0.108741348780232,0.110633024674426,15.4353258526583,0.838856630564466,0.956310737626377,0.175572880640377,0.240169671872801,0.171131327735408,0.452322219710659,0.156686434165638,0.0402156649889115,,,,,1.70136515468512,-117.053321105748,1.7128884957257,AttemptLanding,AttemptLanding,1,0.466044085609835,0.170577879653518,0.186609021154625,0.898108673215455,0.323941632117596
162,2.56699251492818,3.0,-0.718673117579575,-2.43302928020745,2.56699251492818,0.0067384509965604,0.0032634905308412,0.0074871284400587,-0.0354377316788369,-0.309924845465902,0.313555466838353,0.0202372938351787,0.203094424683171,0.205467474827691,15.4353762182106,1.65859788273495,1.46513850284776,0.0273208376001897,0.0506723101524289,0.114721492010556,0.418094221691102,0.0083903326862219,0.0056184428186114,,,,,2.85921158454158,-105.062668776886,1.94683200102231,AttemptLanding,AttemptLanding,1,0.72562483227972,0.0987993243551699,0.0650517014783926,0.961795938170327,0.349012670217531
163,1.69728070294776,2.3572895526886,-0.780382802605328,-1.49488159723296,1.69728070294776,-0.0296921368614026,-0.0005791094298292,0.0296977837410131,-0.0337120845226154,-0.118360533925798,0.124344661195665,0.0080191521809596,0.118622030129623,0.120593388056115,15.4682742204709,0.83886444139327,0.72699677513562,0.177400958737708,0.240215758314477,0.164342376676858,0.991158967275173,0.159052744172802,0.0385502011962769,,,,,1.71874998102098,-116.787170824054,2.1234204561168,HoldLanding,HoldLanding,0,0.476726865063959,0.153946584877541,0.177076314428235,0.898996325358419,0.326958943699174
164,2.52851427893333,3.0,-0.788242698670851,-2.36275118789965,2.52851427893333,-0.0309796381664462,-0.0109827934815292,0.0328688261667778,-0.0386026327995481,-0.2886926105445,0.293617500029842,0.0189517228738639,0.227749854244631,0.229462664878776,15.3978622201608,1.63558897804946,1.28881108070106,0.0634700282851398,0.240290851472209,0.121168622425178,0.487174125129388,0.0018884415850757,0.0113861603252998,,,,,2.64390369362176,-106.697557678757,1.63284909497781,HoldLanding,HoldLanding,0,0.720163007357977,0.112110238703909,0.0722458725299631,0.94528755682439,0.346147278922143
165,1.60603975519842,2.42506194114685,-0.688054207765989,-1.43318488953927,1.60603975519842,-0.0562114832623827,-0.0136358643591546,0.0578417465795976,-0.0282473631074267,-0.109671598502138,0.114773397953534,0.0074032623452923,0.12850292403849,0.130374174740517,15.4465009835245,0.940758215712192,0.875326488199704,0.177399254184615,0.240169713230176,0.158169726652519,0.47436508411545,0.159636484749454,0.035583084369856,,,,,1.65443912380199,-114.70021335318,1.99137393897655,AttemptLanding,AttemptLanding,1,0.454352103001015,0.194884312044656,0.200819439411549,0.897031135948385,0.329702343709991
166,1.66227580308914,2.40645599365234,-0.724673403186557,-1.48490696188003,1.66227580308914,0.0036010647335837,-0.0018035634665775,0.004027469229359,-0.0292108642239873,-0.115739540140536,0.120374374250874,0.0077689260513916,0.115569485214472,0.116470974796138,15.4406507361328,1.54758161821865,1.68931109107309,0.0224320645721504,0.0501563911775978,0.110722712306227,0.441187040572775,0.0002784886667699,0.0058026536754242,,,,,1.6985678915868,-115.061450151433,2.13922798763973,AttemptLanding,AttemptLanding,1,0.466567742449665,0.168178912235436,0.103141175964021,0.963351239283775,0.350789905641677
167,1.50157348882584,2.03317379951477,-0.690896612188518,-1.32195287543377,1.50157348882584,-0.0357892341597939,0.0086883069267162,0.0368287382216304,-0.0264607905532034,-0.0928728827838051,0.0975980180310905,0.0062947285156183,0.113100591452871,0.114617173154925,15.4621025534541,0.833281571058085,0.805472923819754,0.176750564601941,0.240153222499843,0.144091237536027,0.395967682782612,0.159501683107499,0.0368238357937677,,,,,1.53242316823457,-117.234742424214,1.83447152241743,AttemptLanding,AttemptLanding,1,0.42334303165121,0.126362005245641,0.160097325827239,0.898748789524989,0.335959449983988
168,1.70457818962279,2.56710743904114,-0.853316364781649,-1.4559573504168,1.70457818962279,-0.0456724689805271,0.019817851800128,0.0497867620231428,-0.0414673818433281,-0.113596138740841,0.123362258999031,0.0079560625674537,0.140763120380853,0.142679211928751,15.459760610369,0.826739053033179,0.800100986942353,0.17636523452983,0.240220781099176,0.137989660816813,0.42592157756381,0.159554807474767,0.0383589506685381,,,,,1.76822611766951,-118.998443980142,1.86709386338219,AttemptLanding,AttemptLanding,1,0.48309002628516,0.203196654156705,0.2067799495946,0.899035068135277,0.338671261859194
169,2.44542303641637,3.0,-0.777861821050089,-2.28259359519894,2.44542303641637,0.008849821746882,0.007355432064773,0.0115074639174354,-0.0414201954678532,-0.276514330673068,0.281966786800115,0.0182120579931711,0.227855051508157,0.229908219329071,15.2914864187742,1.96158344639189,2.08874988033786,0.0323271495732511,0.0767769633716716,0.136016053821208,0.476164074908151,0.0246715705087764,0.0049223097915898,,,,,2.66549340284327,-107.193726307889,1.5,AttemptLanding,AttemptLanding,1,0.698094453576847,0.126889518524513,0.0888887843963582,0.952012377646212,0.339548420523907
170,1.74077213864748,2.45140075683594,-0.770571616228958,-1.54371846116356,1.74077213864748,-0.0462905996965463,0.0002700504639605,0.0462913874011028,-0.034293678672208,-0.126905263258644,0.133216490855308,0.008593122558902,0.135426426598968,0.137568136653242,15.4552065566646,0.971902490266569,0.915571461673206,0.175726770848557,0.24021218760195,0.169090666051859,0.405766321045486,0.156714913752945,0.0421813105237333,,,,,1.77840570795084,-115.675983280215,2.2118895306243,AttemptLanding,AttemptLanding,1,0.491719530969977,0.168378193449271,0.186016647220916,0.897306462096195,0.324848592865841
171,1.65507238819486,2.40470671653748,-0.802048767927408,-1.42911544469626,1.65507238819486,-0.0462234319416756,0.0049314996125428,0.0464857542575704,-0.0370340388925045,-0.109569587518663,0.117807205166655,0.0075985412007529,0.134024047027277,0.135906899257259,15.429887053251,0.774301445386306,0.970320732640039,0.176992835144067,0.240209578942338,0.146705451859277,0.491418685652906,0.159559942078977,0.0362410725633042,,,,,1.68221562017466,-118.331726157389,2.24329209424415,AttemptLanding,AttemptLanding,1,0.468534016703413,0.177190112157644,0.190408168948667,0.897795836743474,0.334797576951432
172,2.4246156223615,3.0,-0.849193303138572,-2.23724780633988,2.4246156223615,0.0037327497830356,0.0052775307861987,0.0064641899834416,-0.0469355395888645,-0.265588428739431,0.272488528425169,0.0176035141298962,0.220085644659371,0.222137441461866,15.3387820289018,2.14476844648703,2.05944997809766,0.0301062878520064,0.0774575198080838,0.124534063322158,0.502973822254088,0.0163635039826286,0.0052062430573716,,,,,2.5789773418386,-109.450212225276,1.76339243137706,AttemptLanding,AttemptLanding,1,0.69099165425544,0.130646586465627,0.0875537996096894,0.951913711309403,0.944651527412374
173,1.54085019859327,2.43510603904724,-0.717656765321731,-1.33863793514027,1.54085019859327,-0.0576988243206202,0.0046844552349109,0.0578886728888276,-0.0314085937652499,-0.0980411972334981,0.105489323324473,0.0068034534042895,0.150555242433246,0.152173804246276,15.4699848169714,0.866159410577304,0.722889465063948,0.176407667921633,0.240162658747702,0.148372549866048,0.411372673491013,0.159256160018755,0.0366015752708202,,,,,1.60572032516396,-117.151648626796,1.63280290814572,AttemptLanding,AttemptLanding,1,0.441328147140794,0.211820487465095,0.211182471777792,0.899310782016288,0.334056644503979
174,2.24105321586547,3.0,-0.715708807393691,-2.09229485125372,2.24105321586547,-0.0080519641982021,0.0237632356664383,0.0250903466852854,-0.0372865216078438,-0.248720362519657,0.253738774576672,0.0163810112747588,0.233486539901573,0.234914811912472,15.3602562418889,1.74471081328721,1.546115301076,0.0631367047288237,0.240372183913063,0.130748367723045,0.483754039407348,0.0019992751484533,0.0101974685842837,,,,,2.36078838964489,-107.709824257803,2.35680392453131,HoldLanding,HoldLanding,0,0.644597153279953,0.175362923322572,0.109814491120474,0.94257515673702,0.341889614345313
175,1.62265326672752,2.28897857666016,-0.787910546449261,-1.40006224435697,1.62265326672752,-0.0615084711269692,0.0081241979744558,0.0620426837999885,-0.0355717980134898,-0.104198441387028,0.112218225916894,0.007237711472411,0.126085654542635,0.12777873735555,15.4173774691362,0.801407015245101,0.825540616902488,0.175113342601812,0.240166455768757,0.148258839591662,0.431767839878923,0.157631202131623,0.0387543511042988,,,,,1.70036876942666,-118.357386427334,2.36383519298475,AttemptLanding,AttemptLanding,1,0.458263285265117,0.16129768676484,0.180929415428057,0.89966016873222,0.334107182403706
176,1.74446842193604,2.61694622039795,-0.881029880384268,-1.48630023747741,1.74446842193604,0.0073465681359631,0.0054410858839133,0.0091420719190164,-0.0439170820638603,-0.117347511850999,0.127881206511791,0.0082587118990467,0.146350643645021,0.147336791526844,15.3489192680989,1.94699147962013,1.99479231965545,0.0306419409420837,0.0684649462514616,0.127269272075706,0.502976743777219,0.0159174693399816,0.0073891937359951,,,,,1.79740384781532,-119.424856454763,1.76242602840049,AttemptLanding,AttemptLanding,1,0.494658937488312,0.197983551172417,0.128551541061582,0.953707871106079,0.343435879077464
177,1.91056731606827,2.82385110855103,-0.965579626358175,-1.62611909945526,1.91056731606827,-0.0528195991346043,0.0089761238637209,0.0535768686315013,-0.0528494693037939,-0.141562942864672,0.154345850616916,0.0099597335845741,0.148034924513963,0.150482743323171,15.3559781668072,1.16961322358268,1.24868227271138,0.176818376597411,0.240277125528196,0.171732757334654,0.465880168093595,0.156663392640523,0.0416411419734596,,,,,2.00389774569212,-119.82849383685,1.62925753822283,AttemptLanding,AttemptLanding,1,0.53958116628284,0.215311279224395,0.21395717548643,0.892589918516127,0.323674330073487
178,1.81623974057282,2.54518175125122,-0.965081101738837,-1.52575959862746,1.81623974057282,-0.0462115306689484,0.0086268966181592,0.0470098810041843,-0.0513278180149673,-0.123470750870649,0.135713509563391,0.0087578702625215,0.130670408097032,0.13292106790635,15.3616933592704,1.15862181647934,1.21707493656143,0.177076692110434,0.240207193466486,0.166709034054034,0.500743575415395,0.15961260023863,0.0364884408760213,,,,,1.88108853169074,-121.75609313085,1.90752181243344,AttemptLanding,AttemptLanding,1,0.510914811067355,0.172630430586741,0.187785715746352,0.892795465170891,0.325907095975985
179,2.49794078191121,3.0,-0.648942420446737,-2.37845180096055,2.49794078191121,0.0065005325383401,0.007718408239535,0.0100911222881373,-0.0314392385644716,-0.298159925317269,0.301306233680701,0.0194599958220079,0.219440650068177,0.221788700420336,15.3980130694468,2.16391658585223,2.1226889080114,0.014601367540051,0.0669512383047033,0.142546989944231,0.472964211516166,0.0001065015287203,0.0061621118302983,,,,,2.73243854491602,-104.018907315581,2.48262057619562,AttemptLanding,AttemptLanding,1,0.710475281927058,0.114813363156135,0.0711761198447361,0.959018844492475,0.336645782247008
180,1.78806466066918,2.45439529418945,-0.883273452117329,-1.53544829670687,1.78806466066918,-0.0475825243079228,0.0129966242900372,0.0493255396569612,-0.0442212611032446,-0.126948103245855,0.136909361416099,0.0088301695593596,0.145182930955247,0.147336513459631,15.4636151785306,0.826311933759894,0.887403488280149,0.176341862074147,0.240270255280417,0.151052480531691,0.426287480604848,0.159552737065819,0.0359225277877575,,,,,1.85620598441334,-119.444845846151,2.27121776963922,AttemptLanding,AttemptLanding,1,0.506284545537042,0.158967408145837,0.179355509849677,0.898364162075469,0.332865564208137
181,1.8272785767406,2.55797743797302,-0.890678059786536,-1.58217896830348,1.8272785767406,-0.0444961571923695,0.0070488717230328,0.045051022157725,-0.0442615371107921,-0.133788942506839,0.142628608367326,0.009200966796134,0.136727218891619,0.139004529761499,15.4266603726577,1.01976001739717,0.959707276857621,0.176322484052421,0.240260816840654,0.158654537268117,0.434850321649108,0.15937135214488,0.0370560007534169,,,,,1.8944468966032,-118.434379956689,2.41554839006212,AttemptLanding,AttemptLanding,1,0.515075193083127,0.172666597839544,0.187906580132996,0.896285800661788,0.329486872325281
182,2.44381725351016,3.0,-0.443221492052705,-2.37333535196043,2.44381725351016,0.0052119144552205,0.006348572650545,0.0082139166655004,-0.0183240838523059,-0.297906815241543,0.299069702021757,0.0193201076065907,0.213282965984458,0.215562884200124,15.3258177842937,2.09904118934948,2.1238720767368,0.0192759690534562,0.0700594168897892,0.137686872853338,0.510388400430411,0.0002167968418824,0.0047727675344884,,,,,2.61222307005049,-99.3162222201901,2.27746976072801,AttemptLanding,AttemptLanding,1,0.694797177776067,0.126647002682223,0.0778201075920046,0.957181982668308,0.938805834287405
183,1.81816333248502,2.62360024452209,-0.982593230424649,-1.50832913213263,1.81816333248502,-0.0550712583963207,0.0045816755326181,0.0552615169176572,-0.0544478322635936,-0.121580581297394,0.136687323108884,0.0088166499899193,0.14638440117658,0.148587983035621,15.425649532146,0.941202965043094,0.977871324344731,0.17688321528242,0.240255800506302,0.156821432669244,0.445587700336984,0.159609634821675,0.0355966967071336,,,,,1.87171872539055,-121.350351106356,2.19293315119586,AttemptLanding,AttemptLanding,1,0.514561151936462,0.191354583309913,0.198694618810296,0.8964799515136,0.330301585480336
184,2.56165384167855,3.0,-0.287679762760206,-2.51128422955035,2.56165384167855,-0.026860390413644,-0.017815455518505,0.0322315222802959,-0.0103142125362622,-0.322691621023402,0.323221714241318,0.020859005279324,0.221768271789022,0.223733990491069,15.4359035668952,1.56574043544917,1.23492442824842,0.063119734685473,0.240289720056257,0.114391503566549,0.463711375633247,0.0018497081303126,0.0081022566159418,,,,,2.70378156394852,-95.0700514349474,1.78308931282797,HoldLanding,HoldLanding,0,0.727854489212495,0.10453699804038,0.0664905664596587,0.946434908728211,0.349159331748201
185,2.08001587342243,3.0,-1.19785860670175,-1.66465564888878,2.08001587342243,-0.0869121310645431,0.0065788556147794,0.0871607702316841,-0.0832735402000946,-0.153000210238569,0.181655157765086,0.0117192777820189,0.209753694028711,0.212542791663336,15.3744628141613,1.1934701874178,1.14051351901458,0.177674552604173,0.240363835946491,0.176938614540257,0.517152805559571,0.159517526219069,0.0379521460538441,,,,,2.15708888634091,-124.745911655981,1.6565916954981,AttemptLanding,AttemptLanding,1,0.597179457911981,0.222975903022429,0.21848300051626,0.892824280290231,0.321360615759886
186,2.06915089130402,2.8522412776947,-1.12431343837787,-1.72071764366294,2.06915089130402,0.0020464761169672,0.0026379767016175,0.0033387101664556,-0.0685893872950171,-0.15546379666544,0.172818483357233,0.0111630704305967,0.141478362558905,0.142882396370918,15.3940951882884,2.05454875293813,2.37466345101953,0.0172423878844309,0.0769306377758584,0.151523651796779,0.552062325130554,0.0006546593817433,0.0078354573787903,,,,,2.10837557196529,-122.363616262261,2.3831756905635,AttemptLanding,AttemptLanding,1,0.580350050288588,0.176807433801755,0.109224677234923,0.956577853026689,0.332656154756987
187,2.02654538105945,2.7706093788147,-1.10406958758916,-1.68492645684778,2.02654538105945,-0.0379990530498561,0.0043748112945876,0.0382500589090922,-0.0665035000959011,-0.150230915150493,0.166810922798899,0.0107625044838398,0.130504634854019,0.133163103104225,15.368306586207,1.15083647875765,1.16311084878401,0.178286534772156,0.24032657919281,0.127279667789877,0.490448723748976,0.159534596718437,0.0346037708900687,,,,,2.09849345512064,-122.244984043751,2.09211623754005,AttemptLanding,AttemptLanding,1,0.567044722236699,0.17442691029493,0.188143600799723,0.892675717897523,0.343431258760054
188,1.9850898259351,3.0,-1.11937120561141,-1.607881358187,1.9850898259351,-0.0757528996167732,0.0066415448993489,0.0760434870255105,-0.0739258378186447,-0.143388717629237,0.167375309592306,0.0107987082706922,0.210705878977048,0.213347342813077,15.3710328476066,1.10006457848293,1.23747469614326,0.177338091708737,0.240365263047432,0.159145377745218,0.495533670590682,0.159473936411521,0.0358034416617624,,,,,2.08252249604559,-123.526280590972,2.3182591258835,AttemptLanding,AttemptLanding,1,0.572026755478643,0.242296095119278,0.229274395474904,0.892964574130712,0.329268721002125
189,2.49555055181185,3.0,-0.765915372221463,-2.34364374959797,2.49555055181185,0.0075156766053964,0.0079784521037438,0.0109608892343933,-0.0391553174969995,-0.289329384875836,0.293943097235043,0.0189748271337351,0.211218727602516,0.213495996306074,15.389584398817,1.77983529380335,1.7623133474305,0.0252625082660831,0.0688829384540172,0.115271016492476,0.541031514989611,0.0024935243513833,0.0079976786695022,,,,,2.71977714743149,-106.924123588306,2.02919124748126,AttemptLanding,AttemptLanding,1,0.708179346411043,0.115510622201972,0.0733228531551521,0.95953757797155,0.348768437114455
190,2.00023078837362,2.71312260627747,-1.0787672664573,-1.66847398107308,2.00023078837362,-0.0459209791487371,0.0038157970866594,0.0460792429775632,-0.0635599449705538,-0.146990841128116,0.162908600075548,0.0105116891952032,0.131607969011132,0.134198431977059,15.3882221561899,1.23626165791895,1.15928630123838,0.176576903172474,0.240271998366315,0.174027671118953,0.485301462253139,0.156827358033931,0.0400228594196221,,,,,2.06580628279313,-122.281189709167,1.74406960754172,AttemptLanding,AttemptLanding,1,0.560234563295045,0.168848520240918,0.185563927221312,0.892889385877527,0.322654368391576
191,2.04050924096789,2.68800950050354,-0.999243290918591,-1.76466695070558,2.04050924096789,-0.0419584222931171,0.013563704412294,0.0440962955214112,-0.0548815504133251,-0.163940880613727,0.174974527456512,0.0112866050986086,0.131608490041907,0.13442492599497,15.4499137580489,0.984006214484658,0.996571785462027,0.176844408889415,0.240275493750483,0.170188414761319,0.457652697112664,0.159590021172634,0.0353156356792177,,,,,2.07634549688122,-118.754548572983,1.50691324058823,AttemptLanding,AttemptLanding,1,0.57102078279043,0.153771879241114,0.176034075181514,0.896016111269997,0.324360704550525
192,2.45995241244634,3.0,-0.939715425006121,-2.24011307738564,2.45995241244634,0.0077325429425598,0.0063779740425267,0.0100235110238717,-0.0547855444774451,-0.265789429304097,0.274659486858304,0.0177305608801757,0.219623530027592,0.221680978321959,15.3550672553747,1.80461646307235,1.65873911104495,0.0207582302859301,0.0515235960268926,0.116390058056687,0.444419090579796,0.0001344736693792,0.0118164004650427,,,,,2.68099720733185,-111.612146549017,2.23712127155351,AttemptLanding,AttemptLanding,1,0.700323505650083,0.123348350887283,0.0783656495040288,0.962408805346113,0.348271085308139
193,2.05012924087291,2.92911648750305,-1.05229661591968,-1.74245372473038,2.05012924087291,-0.0627177692170712,-0.0062232469669606,0.06302576757468,-0.0610033975452176,-0.159836883987697,0.173764959526688,0.01121404919477,0.129657032948527,0.132443463978113,15.3589915012977,1.2566667044327,1.26732720958347,0.176935837380966,0.243242382590808,0.165294120952316,0.506211944247534,0.156785016934989,0.0406927376642439,,,,,2.11900443077325,-120.570247299149,2.39543378469223,AttemptLanding,AttemptLanding,1,0.573189823695065,0.20932685454714,0.210075701627802,0.891700700556533,0.326535946243415
194,2.43960846281947,3.0,-0.958685123727496,-2.21185724903248,2.43960846281947,-0.0103576515902044,0.0129561534851609,0.0165874307713736,-0.0581988777018657,-0.266504766688721,0.276532721497503,0.0178475098540202,0.21819865372944,0.219735095664409,15.4156946019793,1.57340463044825,1.41618465130698,0.0625801215652989,0.240465480940974,0.128611645469407,0.479704665562967,0.001913232671044,0.009992488140085,,,,,2.61715863552686,-112.220792726245,2.24195911897322,HoldLanding,HoldLanding,0,0.694509275884741,0.129129124840371,0.0819614325867377,0.945220309146417,0.342839268680264
195,2.03055899240533,3.0,-1.02534507630689,-1.72998430502173,2.03055899240533,-0.0626373218518373,0.0001208735292872,0.0626374384787623,-0.0591477915463269,-0.160021082326267,0.174183980056695,0.0112355982054163,0.164528095628191,0.167190532331975,15.3811508354512,1.01606060177951,0.985336435778176,0.176665822007124,0.240298432325246,0.137398791699872,0.485650381651426,0.159530460941255,0.0374267046924797,,,,,2.08957514186263,-119.371133784789,1.99968808656661,AttemptLanding,AttemptLanding,1,0.574920504441149,0.229607757096575,0.222276792140212,0.895941826558485,0.338933870355612
196,1.93706142584483,2.80305027961731,-0.908005785812208,-1.69717062109162,1.93706142584483,0.0065858952167051,0.0028785762309145,0.0071875042207017,-0.0456599707880427,-0.151814778260611,0.160214030631929,0.0103420682693665,0.140142991271111,0.141387303361693,15.4206926888609,1.67640900836353,1.58421803026922,0.0271484658159802,0.047906941019422,0.115463900146708,0.428318385226515,0.0085543592726026,0.0050026273071452,,,,,1.98818975952798,-117.123132335998,1.91788850220312,AttemptLanding,AttemptLanding,1,0.544827174230959,0.196165201205937,0.123320195380651,0.96080655464561,0.348682711045907
197,1.8752937154705,2.78583002090454,-0.820785273664379,-1.66656565277806,1.8752937154705,-0.0602359433078247,-0.0072402042150582,0.0606695098320335,-0.0388328411279842,-0.148657100010909,0.155624448867945,0.0100413865802628,0.152344677730099,0.154856945213979,15.3512825412606,1.16950686140126,1.11411611787429,0.176758120512108,0.240270021851482,0.14357231973647,0.473198569393399,0.159604221823445,0.034369132944224,,,,,1.96491164649544,-115.571452830696,2.48873570681656,AttemptLanding,AttemptLanding,1,0.531049713168263,0.215993412191865,0.2130291235396,0.893678187763924,0.336190080117125
198,1.84745317656978,2.60190534591675,-0.818888188293556,-1.63776731498286,1.84745317656978,-0.0460521685931008,0.0165646586397471,0.0489406798888075,-0.0383924568120083,-0.143113505103114,0.150067548582995,0.0096814128783835,0.141335692369796,0.143662628206427,15.3723037509961,0.948287664382626,1.14192068636076,0.177238052927978,0.240283989830566,0.17368002211657,0.513840961764391,0.159612776257014,0.0367356256457973,,,,,1.88489007794024,-115.359098105949,1.73730059328373,AttemptLanding,AttemptLanding,1,0.521386706059892,0.178724196082683,0.191531938645139,0.894957907923027,0.322808879059302
199,2.48372339763769,3.0,-1.13736721863132,-2.17175625390874,2.48372339763769,0.007660684224582,0.005884900976279,0.0096601315875804,-0.076545552315917,-0.24973661687132,0.266741034837719,0.0172313178193338,0.220746063292988,0.222768971648557,15.3857174873223,2.3558686651512,1.99951334478671,0.0210180416723113,0.0551722437111241,0.161157502589396,0.488616013022876,0.0111894870149329,0.0105851115790033,,,,,2.68563096804021,-116.007396076949,2.11757661032082,AttemptLanding,AttemptLanding,1,0.706880033699762,0.11793325965591,0.0795821926167899,0.955270120514332,0.328374443293602
200,1.91142511847835,2.80641746520996,-0.829994245038383,-1.70749319729951,1.91142511847835,-0.0489574017995106,0.0134824064027995,0.0507799416440091,-0.0387094077558354,-0.154058651686777,0.160386212604202,0.0103438642045202,0.133151623064712,0.135573505377883,15.463951365293,0.856069340491404,0.680235536699637,0.175073578958036,0.240256802450141,0.105509911614811,0.368969093053281,0.159081683112814,0.0348245923260955,,,,,1.97177383483815,-114.893051128023,2.07837911772507,AttemptLanding,AttemptLanding,1,0.536828066003137,0.21068293398268,0.20977621878055,0.900392243628767,0.353106705948973
201,1.83673453168804,2.52855658531189,-0.789031713731971,-1.63783695410892,1.83673453168804,-0.054247876368328,-0.0025349416893676,0.0543070715454432,-0.036489447538603,-0.142034533152711,0.148638778073811,0.0095869947508555,0.139567436449491,0.142017185801108,15.4465804052633,0.929999048432932,0.815199428554477,0.176583198484436,0.240238929434009,0.152847539990004,0.450639547109787,0.159542863030061,0.0365055261203053,,,,,1.87135485490829,-114.338554000358,1.65498465762283,AttemptLanding,AttemptLanding,1,0.518199312277033,0.165616258515364,0.18355243100471,0.897996127010024,0.332067760004443
