scenario_id,mean_wind_speed,max_wind_speed,wind_velocity_x,wind_velocity_y,wind_velocity,wind_acceleration_x,wind_acceleration_y,wind_acceleration,wind_body_force_x,wind_body_force_y,wind_body_force,mean_wind_body_risk,mean_wind_gust_risk,mean_wind_risk_raw,min_thrust_margin_n,mean_estimation_uncertainty,gps_dropout_enabled,gps_dropout_start_sec,gps_dropout_duration_sec,moving_pad_enabled,moving_pad_amp_u,moving_pad_amp_v,moving_pad_freq_hz,mean_abs_roll_deg,mean_abs_pitch_deg,mean_abs_vz,max_abs_vz,mean_tag_error,max_tag_error,stability_std_z,stability_std_vz,mean_imu_ang_vel,max_imu_ang_vel,mean_imu_lin_acc,max_imu_lin_acc,wind_speed_cmd,wind_dir_cmd,hover_height_cmd,gt_safe_to_land,label,success,onto_wind_condition,onto_gust,onto_temporal_pattern,onto_drone_state,onto_tag_observation
1,2.11029890125666,2.79916381835938,-1.29440082938739,-1.64737086474404,2.11029890125666,-0.0004016517866541,0.0020614859809133,0.0021002496535471,-0.0892250398458912,-0.144742710948767,0.174323568481335,0.0112489875456127,0.145116683409641,0.146031869458713,15.268247503955,0.320265888713854,1,14.9605102736682,7.42651472357787,1,0.0717747328300573,0.112032227880748,0.270226572149888,1.11497946589961,1.43623025491667,0.0697087726714461,0.284811276732189,0.134725857131131,0.486227233778542,0.0428032056048926,0.123494203247416,,,,,2.1396688985117,-127.709262372896,2.31472368639318,HoldLanding,HoldLanding,0,0.591952747560185,0.155379652117928,0.157158421205325,0.945100394429292,0.340121841275053
2,2.2144184104299,3.0,-0.652538403423723,-2.08347046403914,2.2144184104299,0.0007237991282089,0.0038517168512841,0.0039191335624678,-0.0319946504480182,-0.245871436332551,0.249867206327583,0.0161134888134754,0.231812196540172,0.23300126694169,15.4706413054388,0.193432746167482,1,12.0806267717215,7.94095619578874,0,0.114365271687864,0.0435164955427277,0.0899401041954743,0.890235173573953,0.514471386562009,0.0485154032986765,0.45531556014276,0.249359510184271,0.2719025574489,0.0058676959446208,0.0176794543443164,,,,,2.4078142646114,-106.948920050051,1.53084545464623,AttemptLanding,AttemptLanding,1,0.637111829502979,0.177474365473057,0.115521376636953,0.964705318235308,0.289173551029213
3,1.80012456509664,2.66979551315308,-1.14819034014457,-1.36481721347589,1.80012456509664,0.0066525872175664,-0.0028580433428654,0.0072405337121669,-0.0765714388253965,-0.103867471935709,0.133426776347625,0.0086089611805195,0.151786471424424,0.15212651275996,15.3392079198435,0.143017819648548,0,8.41717134264289,3.41266790233208,1,0.14721637274726,0.0935289069065192,0.252889591565255,0.949007134301599,1.10310776449388,0.172390462009336,0.974910045156589,0.266706966421589,0.391872402407453,0.0016196394981688,0.0046124846020153,,,,,1.93938346389085,-129.159046213467,1.89844817303249,HoldLanding,HoldLanding,0,0.510458519911095,0.197003394493262,0.120599143600927,0.897681009076225,0.281463570479294
4,2.5453945863096,3.0,-0.781861190897002,-2.3865379752022,2.5453945863096,-0.0199966799749714,-0.0105334324138634,0.0226013364303718,-0.0371336049991115,-0.2941833078866,0.298625275993843,0.0192686952976474,0.220955627690421,0.222777925372857,15.3741106851711,0.330269522168127,1,9.37064591823074,8.96592334958051,0,0.162944670885645,0.12386578002465,0.268217072658078,0.99617434076257,1.18378287905923,0.0578785807663143,0.252386783960569,0.226263728989297,0.37336015734731,0.0246503152002043,0.0162039766741026,,,,,2.6973243686687,-107.092406890338,1.63447057909256,HoldLanding,HoldLanding,0,0.723327474757132,0.106429796425908,0.080705928654299,0.953932474318243,0.299438342671424
5,1.98494670358497,2.99411368370056,-1.12315337900453,-1.60017911489627,1.98494670358497,-0.0022805277742258,0.0039017554365466,0.0045193475652617,-0.0754015932989606,-0.136063149410829,0.162818862474373,0.0105025814871124,0.21270462749788,0.213659941072164,15.3928995608747,0.294308254379306,0,15.6153114335105,6.96540461970674,0,0.0378886669531116,0.0685312201005783,0.233350663284208,0.648321611222648,0.983838927133506,0.0480386772407605,0.263501294301989,0.240433909051335,0.327135252087635,0.0253748683517658,0.0174094222113522,,,,,2.00200400724988,-124.398868862931,1.5,HoldLanding,HoldLanding,0,0.572051109170425,0.227891117579639,0.154343088801181,0.963156542863964,0.293140484866073
6,1.96735800229586,2.66050815582275,-1.16938886576765,-1.56564992126866,1.96735800229586,-0.0009354201038347,-0.0003739608968032,0.0010074013713491,-0.0734754674337401,-0.12892668973784,0.151597051964442,0.0097808758361104,0.127283576929789,0.128489429545128,15.3809907536322,0.209593860008212,0,7.9408018830799,4.04286933674023,0,0.167206195626134,0.167295420718902,0.277069285486704,0.631062136935152,1.32414918011244,0.0289221500603964,0.111427419354456,0.114454924753539,0.395474773137261,0.0031267035835003,0.0049385180281845,,,,,1.99661919299708,-125.85580820349,1.79733512877173,AttemptLanding,AttemptLanding,1,0.550326686521255,0.156143474794965,0.0968715556516119,0.970176550335856,0.349131144553983
7,1.8659644895725,2.63182377815247,-1.09308161988183,-1.48756044303757,1.8659644895725,-0.0005705092430509,-0.0039093222437201,0.0039507317299016,-0.0671197027969263,-0.112454869911321,0.135312377938999,0.0087282908145244,0.155583274261472,0.156337466761226,15.3982471099218,0.167747757322781,0,13.4927043551308,6.3656869640819,0,0.145502710729671,0.0886314913808979,0.140926098928162,0.608977920159788,0.996125996715869,0.0504316190370908,0.250524015576918,0.238937146624128,0.355308877050506,0.0248355624028738,0.0169620055280641,,,,,1.87426200826755,-126.596930639358,1.60032519066765,HoldLanding,HoldLanding,0,0.528858023904913,0.17304264074764,0.1210316141934,0.962172659706003,0.293805712611499
8,1.94165078553748,2.76848769187927,-1.14830479264445,-1.5396840914826,1.94165078553748,0.0052746590480911,-0.0003947177101852,0.0052894073528462,-0.0745620101913786,-0.125508222594238,0.151247355873022,0.0097575604219791,0.162121850535366,0.162841950322581,15.4312365211314,0.239652883223979,0,15.5100620339705,9.1004877493359,1,0.088860408340081,0.13714465180125,0.185134204419099,0.813901511013324,1.246498131764,0.0738493912858671,0.251517312376443,0.143621273150663,0.339719170805752,0.0257866569591432,0.0177547725050212,,,,,1.95332820371371,-127.202212038542,2.25164943685957,HoldLanding,HoldLanding,0,0.55034193287451,0.187008028608259,0.130121834502158,0.946886450020959,0.33616832304415
9,2.5100183873671,3.0,-0.769921887756266,-2.35707801475352,2.5100183873671,0.007069393074901,0.0094253738806881,0.0117819349530633,-0.0397822990100715,-0.291724522697863,0.296448392325196,0.0191324655011145,0.210286145053617,0.212559243183642,15.400396022761,0.300255625788601,1,14.1750406729886,4.91792052537243,0,0.110993486466193,0.0839376272609738,0.159749692363151,1.17871202922554,1.41168829528352,0.0382239304457054,0.147186294135169,0.108733933718398,0.401526279875782,0.0017974098489043,0.0082526056770848,,,,,2.74487220964884,-106.758294244659,2.09150598711927,AttemptLanding,AttemptLanding,1,0.711850085267954,0.112405884250465,0.0712433268909543,0.96053488937029,0.351673807236268
10,2.02325587782819,2.87948679924011,-1.05769058473104,-1.70673354802521,2.02325587782819,0.0056346593008067,0.0050331039826424,0.0075552313754284,-0.062999466938,-0.153836270987647,0.169322254333306,0.0109255212986522,0.14620124296387,0.147085097732739,15.4042171145508,0.341625470037734,1,12.8859760636594,8.0196381658468,1,0.0661516830893507,0.0619170007835867,0.184154534778909,1.02098538887324,1.33593164900825,0.0749723687863053,0.251656171295687,0.114565374679975,0.426496461414032,0.0241299798246336,0.0194192997201958,,,,,2.05126066309477,-122.211439927127,2.30118010045933,HoldLanding,HoldLanding,0,0.568951920300733,0.194037083069844,0.134208248854138,0.943995181737779,0.349082055697789
11,1.9599495299062,2.77755832672119,-1.10423085445397,-1.59383055343541,1.9599495299062,-0.0024451615301179,-0.0100309512574358,0.0103246693911923,-0.0678078004987566,-0.127794860405818,0.149300717731271,0.0096398461134528,0.158568204694375,0.159421109434214,15.2606637984505,0.273895613536951,0,12.9317898456297,7.48533337862413,1,0.159191562786074,0.0457816256166958,0.159430996586394,1.82557094505081,0.79774379723493,0.0642879799486668,0.627910238989582,0.177115749026456,0.697767833307655,0.0244246364350083,0.0157324227907117,,,,,1.94106924244638,-124.863664714484,1.9346874448949,HoldLanding,HoldLanding,0,0.55453742986183,0.185854835338425,0.128089176188974,0.947244251336279,0.321281889321575
12,2.54002739234912,3.0,-0.605879473704577,-2.43213908059522,2.54002739234912,0.0064844062241215,0.0033138853769821,0.007282126088664,-0.0288408130196097,-0.310503742587585,0.313139699245598,0.0202136910389372,0.209420732112648,0.211788466078461,15.3861576549783,0.229401411633669,1,10.7396767316845,4.59969755651248,1,0.0664678828879294,0.0697353321146323,0.260320527755042,1.02425792591463,1.73602581237874,0.0228893243090166,0.0801369844037144,0.233487996018881,0.367706258455652,0.0031035850812403,0.0049048528645835,,,,,2.82179955786848,-102.658248237611,1.5,AttemptLanding,AttemptLanding,1,0.719698331175456,0.104828893171037,0.0660602899096889,0.966867394187472,0.296227557324942
13,1.81554814663019,2.50585198402405,-1.0250584135914,-1.4829239164952,1.81554814663019,-0.0024660417414217,-0.0048585280843555,0.0054485463214426,-0.0571101278119844,-0.110734581792306,0.127123727244443,0.0081990042491981,0.12726729893881,0.127948274917759,15.4102998983612,0.246379786748155,1,11.9424116578485,9.02351447137642,0,0.146057179967674,0.0657359060339359,0.228264227094249,0.612525666431843,0.75982301878315,0.0504242516220395,0.25120297539893,0.187921950512061,0.29561618836762,0.0248648375566615,0.0165262464068211,,,,,1.81564992585132,-124.856492181276,1.58368807991618,HoldLanding,HoldLanding,0,0.50973582741827,0.156317263572549,0.110850941205536,0.964005134519434,0.31647913310575
14,2.6593227260084,3.0,-0.805049368530728,-2.5002372680347,2.6593227260084,-0.0240817241374381,-0.0003088082350401,0.0240837040331777,-0.0416592377011343,-0.325534576982739,0.330390777979823,0.0213284510662361,0.203649548166705,0.205603211966381,15.291978983021,0.159915897727835,0,8.71711754236028,7.73499004408739,0,0.0436476036919373,0.110718183121876,0.13980471194626,1.81571742928579,0.948607023039322,0.0794955534939408,0.30193607628117,0.155362034218067,0.552811719966938,0.0255533529593566,0.0172033505466443,,,,,3.0,-106.356863714422,2.1433352500041,HoldLanding,HoldLanding,0,0.750273369328851,0.0810677323875251,0.0662534490273725,0.938532531127618,0.330950207014192
15,1.87446761311517,2.60983967781067,-1.06844574028412,-1.52320804976409,1.87446761311517,0.0014245676925955,-0.0032033095000731,0.0035057930435274,-0.062969162517709,-0.120208720679768,0.138796587411451,0.0089543489888524,0.132520707979005,0.133262057280309,15.4044273264401,0.309413916010548,1,4.68536533227189,6.36596825614277,0,0.176306621617701,0.162234701894317,0.130577250143609,1.04446744752697,1.00775376682851,0.0683338551521056,0.2502527254909,0.0910093264971866,0.385348376869803,0.0235729967443159,0.016091928868846,,,,,1.89152489310621,-125.328378154295,2.09598437128638,HoldLanding,HoldLanding,0,0.526510441620106,0.166101443281135,0.115989363908361,0.949708477168297,0.359551410445695
16,1.80166005681399,2.4887056350708,-0.974169936389023,-1.50089506270777,1.80166005681399,-0.00052380422925,0.0044206105150243,0.0044515354874609,-0.0539289351837386,-0.1242784340289,0.137978102517091,0.0089001518545147,0.13379796768994,0.134540060418273,15.4277919055787,0.320917301389709,1,4.01164782327852,8.68045479946666,0,0.105476638534741,0.157535197710737,0.108283683271667,0.906464905235214,0.813468963688172,0.0487401848475701,0.362760905429351,0.265533158682087,0.390099988452139,0.0156163313133876,0.0496387141730725,,,,,1.91158907974983,-123.148647987168,2.18875575360759,AttemptLanding,AttemptLanding,1,0.507350693900719,0.15540136994715,0.11823185518061,0.962116141463246,0.281985262807961
17,1.90385108223128,2.71076965332031,-1.01664530223576,-1.58517834453704,1.90385108223128,0.001333739607578,-0.005568118082615,0.0057256266314497,-0.0603568017796066,-0.131748646463867,0.148958512108012,0.0096100380036797,0.15358495528257,0.154092403393093,15.3763454790502,0.207512853977974,1,8.74122295366709,9.93530554312863,1,0.0768600944281203,0.0832818893147562,0.0745874197508369,0.674931767981559,1.27299076771368,0.0745872929057684,0.288952850871491,0.136017158253013,0.483036247128262,0.0241639747698935,0.0157732423282798,,,,,1.96200270211122,-122.666388364578,1.99890245638562,HoldLanding,HoldLanding,0,0.53851210260696,0.182606376710798,0.126039094851665,0.94740124790951,0.339547929665328
18,2.02647577539871,2.85405850410461,-1.10018061108812,-1.67540016381321,2.02647577539871,-0.0006834360195792,-0.0099904159060735,0.0100137652643342,-0.0678804889934938,-0.14050712217519,0.160499204567622,0.0103603938655207,0.161752780956153,0.162585376827471,15.3476112225559,0.191238017190332,0,12.5286884479098,6.5661836541517,0,0.113947796819803,0.163798082843233,0.170752581780092,1.42878435521618,0.975293774492881,0.0620985311774391,0.248523043601612,0.134989336506516,0.472255587251091,0.0245847348404487,0.0181164115234441,,,,,2.01539435512142,-123.830694564799,1.90989231833707,HoldLanding,HoldLanding,0,0.572910615471816,0.188041970923957,0.130339517380877,0.950061549106424,0.340004739330438
19,2.62979496203139,3.0,-0.831658660103178,-2.46234345577843,2.62979496203139,0.0078723239568241,0.0040991561311159,0.0088756163430182,-0.0445105764720241,-0.315840973819929,0.321201235186975,0.0207352307172937,0.195736013911521,0.198193670708618,15.2404714309038,0.239858914272636,1,15.2504348665169,7.18832701611328,1,0.0388011505718705,0.116069693697036,0.199687622851145,1.72768304921321,1.05828445747375,0.035727980854766,0.127468900126139,0.175187151401108,0.540170847802613,4.03530832974391e-06,0.0313413041136635,,,,,3.0,-107.357187901088,1.94171576729436,AttemptLanding,AttemptLanding,1,0.740917390683427,0.0849233298724913,0.0623526292533776,0.960246264877219,0.32213904382173
20,1.74287314885328,2.70510506629944,-0.85624936741039,-1.49020055524205,1.74287314885328,-0.0032318071231218,-7.68490018884277e-05,0.0032327206885458,-0.0451015212173909,-0.116605825673001,0.128802311994502,0.0083077581562233,0.186438015742226,0.187148797929324,15.4178245970727,0.257228839956853,0,6.41018508844337,7.99830850804379,0,0.031947787966563,0.0788926654461493,0.119203923598892,0.608863383710524,0.877914974166063,0.045907881979289,0.251659410874497,0.212020257614026,0.316740853370436,0.02451085222429,0.0148348844878002,,,,,1.75292430226957,-119.550273636708,1.50737006048524,HoldLanding,HoldLanding,0,0.502195932613405,0.217094846884953,0.146545123680766,0.965364229055611,0.305768774393766
21,1.83385379631632,2.63669967651367,-0.955403761939151,-1.54154714661141,1.83385379631632,0.0007819055587353,-0.0031916281651039,0.0032860107496881,-0.0520546151828959,-0.123368934373668,0.137731089183829,0.0088850395730391,0.151229141018574,0.151903035238991,15.410586407363,0.273848788622082,0,14.2008829505676,8.24564213256798,0,0.138607855623581,0.0865044534154871,0.0985343058643855,0.906417892298395,0.949649348405876,0.0687421727204186,0.250507592256776,0.0811771130988828,0.309713623920133,0.0247245779172036,0.0164152574752354,,,,,1.82710314960735,-122.310740141076,2.14432312328321,HoldLanding,HoldLanding,0,0.519408286065483,0.181242758348514,0.125703540842093,0.951045528177114,0.363921283067163
22,2.61996485158353,3.0,-0.668818078940015,-2.50169464578593,2.61996485158353,0.0059702308403817,0.0035278142946333,0.0069346326495975,-0.0320883871661717,-0.32595343578567,0.328844336822926,0.0212257163481329,0.20039579034274,0.20297361039171,15.3514578709503,0.295030317511526,1,14.8962540492461,9.92110313114019,1,0.176653004601519,0.110206598168684,0.125248886211802,1.55959422724845,1.14074363834281,0.035903131255851,0.224864496690723,0.198224017242093,0.578830544365926,0.0004658482224121,0.0246114415792329,,,,,3.0,-103.513196987454,1.96202476617781,AttemptLanding,AttemptLanding,1,0.739252015833949,0.0867792577127997,0.0612242134018062,0.960831493999572,0.311900436781292
23,1.90113053028321,2.68067622184753,-1.0572785065963,-1.56366431003204,1.90113053028321,0.0004391578958409,-0.0061701013549563,0.0061857101765208,-0.0608648318498305,-0.124687869834721,0.141536860156199,0.0091314466446008,0.131586867850289,0.132344751110478,15.3849605623308,0.13647177732599,0,11.4007475255293,7.1328655364993,0,0.0695537568404194,0.0968228369595067,0.103571585014831,0.81346287597613,1.11910631872753,0.0648838437770749,0.252406524965835,0.0870179168015549,0.421238413140316,0.0244167584356558,0.0175357510318744,,,,,1.88087930278733,-124.632218690049,2.03407295266893,HoldLanding,HoldLanding,0,0.533437091630951,0.176531827467669,0.123147625857534,0.952373605867362,0.36132537031042
24,2.67703743089879,3.0,-0.675839206619281,-2.55413138209896,2.67703743089879,-0.023512292510333,-0.0067864831674745,0.0244721117371157,-0.0306647839520756,-0.334393939188602,0.337253634600621,0.0217532900219047,0.20432354863325,0.206526840112347,15.405963056412,0.15374148163867,0,5.94323487981188,9.9336632334865,1,0.129620605243563,0.167628026260282,0.244805334927985,1.04350904267415,0.692967911122678,0.0591863240037282,0.384279915045979,0.350590196401898,0.487703034619892,0.0264760241492604,0.0181707261212087,,,,,3.0,-103.635733958443,1.68055924880535,HoldLanding,HoldLanding,0,0.755182016262147,0.077153131866243,0.0646665377352102,0.956763090504018,0.24418213493249
25,1.77889830202258,2.65826821327209,-1.01334455408055,-1.42787918552236,1.77889830202258,-0.0007886701332702,-0.0093050347275821,0.0093383977137741,-0.0599893096965292,-0.103436030676763,0.125306346110718,0.0080840283219549,0.188257810018122,0.188880515480139,15.4006726894954,0.233374637591215,0,8.74768498067952,4.89384358978865,1,0.127962818895552,0.0706631565337276,0.269855299634254,0.683059991553191,1.18229041845357,0.0582092458033582,0.250247551415537,0.184847416735387,0.434132222032437,0.024121785729658,0.0165334153937738,,,,,1.76072715108059,-125.424728650442,1.81985987980531,HoldLanding,HoldLanding,0,0.512148983635383,0.199570269611999,0.136475106477107,0.956239052448268,0.31784559256205
26,1.84400589250801,2.69701838493347,-1.07124971514975,-1.47959673307671,1.84400589250801,0.002822257306645,0.0004936979840798,0.0028651132620536,-0.0632406590985384,-0.115808189467522,0.1357628122151,0.0087671064761677,0.145378793956506,0.146458513432274,15.350444944151,0.208107915920086,1,13.8247384503478,6.83417751097205,0,0.14532504898766,0.0765212779530287,0.121555133113406,0.593892855300765,2.36920827652677,0.0429691404125182,0.155951915209161,0.135405121651982,0.441364796644889,0.0026167249288216,0.0056513551805605,,,,,1.88801056126119,-124.747033688317,2.222519852602,AttemptLanding,AttemptLanding,1,0.521026607355257,0.19245308156044,0.118689876040994,0.95523392090081,0.339819945932453
27,1.89157933595399,2.66521835327148,-0.980441181460262,-1.59995496130048,1.89157933595399,0.0002924376989994,-0.0060620204479912,0.0060690700868963,-0.0530155983065217,-0.129204760115541,0.142327913479122,0.0091857273225013,0.129366667007857,0.130163193091526,15.3727758497527,0.293339548902225,0,14.2359098630414,9.85615752824832,0,0.0629389435740412,0.106896335293085,0.177727704513186,1.15544915950066,1.02014421188954,0.0632064758590746,0.251712138884051,0.110349189815721,0.422322990173947,0.0247312929100418,0.0150229701631675,,,,,1.88786131788593,-121.743469379942,1.98174989809619,HoldLanding,HoldLanding,0,0.530453794872703,0.1751814417457,0.121563449026368,0.951302814152397,0.350955915637458
28,1.95414467212102,2.73625230789185,-1.00688863971161,-1.65005635230128,1.95414467212102,-0.0018863824588949,-0.006666301434291,0.0069280598722916,-0.0574970985822409,-0.137033473879389,0.152492856411249,0.0098361100739245,0.154861618028493,0.155731681612248,15.3959110280898,0.121181661094524,0,11.3745776828146,6.08702687394913,0,0.109408599996395,0.0718765178806803,0.131457717032203,0.675477715328067,0.956619674506634,0.0555579391633025,0.253566152187415,0.187288806287155,0.374793944388729,0.02454783047372,0.0173612161480947,,,,,1.93366507970541,-121.303703794887,1.74696978506675,HoldLanding,HoldLanding,0,0.552251582221388,0.177244362358356,0.123569933800621,0.959397408069648,0.316760530539042
29,2.62527184462468,3.0,-0.56924056163558,-2.53127224017791,2.62527184462468,0.0066617247240008,0.0074332437718946,0.009981567475641,-0.0256102654392775,-0.333177124726631,0.335099704540566,0.0216332475532626,0.190889913305189,0.19353096211659,15.243591959333,0.193444543218934,1,8.6071770103453,3.34000337882341,0,0.175297357261502,0.122481395046888,0.104377792032864,1.76481135454966,0.889224488478686,0.0372047494696489,0.126218917596943,0.156383115158797,0.580902480624842,3.19588453302974e-06,0.0274644127051695,,,,,3.0,-101.47367915972,1.96834477310904,AttemptLanding,AttemptLanding,1,0.738778684323232,0.0861437889966488,0.0616747529566313,0.960544486498524,0.330496393262757
30,1.89219602910829,2.59088373184204,-0.858745636487465,-1.67186741613404,1.89219602910829,0.004847769608409,-0.0005770620592589,0.0048819945510467,-0.0418454705475648,-0.14593919721329,0.153541112380055,0.0099073174231041,0.130315978579673,0.131120983318646,15.3561759866819,0.212877006876955,0,4.15851666610217,7.37158529503401,0,0.0478464590158222,0.0977376335169203,0.180849283726636,0.683882320255601,1.43675033497965,0.0727657459531484,0.251051151878875,0.102004459102038,0.381508314193084,0.0242490129973352,0.0179438329571564,,,,,1.90418233211605,-117.468545924201,2.24134612148213,HoldLanding,HoldLanding,0,0.530809804425941,0.158099765449452,0.112162228545836,0.94695501330372,0.354664684843539
31,1.95049678264278,2.75354766845703,-0.982580064349593,-1.6603895374417,1.95049678264278,0.0040470950991597,-0.0024212192722811,0.0047160663169752,-0.0552140235320284,-0.147044279415581,0.161042112879207,0.0103941575746904,0.162735467202021,0.163494706611167,15.3568897211025,0.182806069601953,0,6.31302420866263,9.19356049576894,1,0.108874631083497,0.109482761132358,0.069207753391548,1.50884199351843,1.28812610758884,0.0861691927351636,0.277849887386441,0.228342073378656,0.758194957436723,0.0902669078324011,0.0885916342026232,,,,,1.95361636761473,-120.978689808246,2.25365388086716,HoldLanding,HoldLanding,0,0.552831416693641,0.181551061466319,0.181264402293125,0.934939225695147,0.298514634053931
32,2.50773123151635,3.0,-0.593401882480571,-2.40606129001605,2.50773123151635,0.0030295519520771,0.0109719961357432,0.0113825693159803,-0.0275608906066604,-0.316604327315028,0.319050250035192,0.020579878695063,0.190153246111342,0.192124432505841,15.4257881236073,0.197514512934525,0,7.49115177277975,7.07113527343534,0,0.139758110557713,0.15367291569487,0.185605890857516,1.04305869888527,0.885199784807771,0.0522642182612551,0.412974715545889,0.213290016856168,0.285835402983254,0.0270155917631424,0.0690711361545124,,,,,3.0,-103.063417072898,2.2617223740935,AttemptLanding,AttemptLanding,1,0.707153214905529,0.112847277283417,0.104832072826017,0.958717288497498,0.305204436952814
33,1.82625713717243,2.56639337539673,-0.85156463552126,-1.59925786714199,1.82625713717243,0.0005623591012206,-0.0078054152835465,0.0078256472899912,-0.0414733269239611,-0.127467435795024,0.135758825895244,0.0087556182368666,0.125859611785999,0.126628692655411,15.3790081216943,0.164944213133245,0,4.98699464519464,7.42020752938815,0,0.154399122630147,0.162965117592762,0.232753575542002,0.646306772480137,0.75287593843852,0.0510300870227123,0.251461612134531,0.165923816061493,0.325891374567025,0.0246197721503345,0.0152690562120777,,,,,1.82477587595629,-118.302001637458,1.62156431079331,HoldLanding,HoldLanding,0,0.512327641777062,0.167965355603633,0.117273718395003,0.963491378045711,0.326256081750448
34,2.64886010661343,3.0,-0.597156232708229,-2.54702619706352,2.64886010661343,-0.019981011920411,-0.0070904781861701,0.0212017857330971,-0.0250459643480644,-0.332289400919387,0.334312332302553,0.0215682262642745,0.207230196411222,0.209335055398683,15.3986096570599,0.273243128324908,1,9.77983431439944,3.6398784729277,0,0.103652015205867,0.0997028351968252,0.0624953074363302,1.06601376708597,0.981758971403869,0.0571241334313535,0.253696668541806,0.197659426036207,0.348974249512694,0.0241649016828609,0.0179724436067208,,,,,2.95266872258167,-101.961285859905,1.60678382218179,HoldLanding,HoldLanding,0,0.748229706176651,0.082893470063046,0.0670114723801289,0.955348290339046,0.31215136620613
35,1.95135820733176,2.6383273601532,-0.92861984037093,-1.70094876627003,1.95135820733176,-0.0030780822856283,-0.0038409906823072,0.0049221743141289,-0.0476717431640358,-0.146292788219292,0.155916327859445,0.0100576367984319,0.134231581151902,0.13512396202365,15.4062309615855,0.31483193973041,1,15.8650121218812,9.29515289952842,0,0.13673767722208,0.108275395191377,0.231241143511737,0.693360440518651,1.02783644001694,0.0551097425655659,0.253288332644379,0.13576987790211,0.376266098690226,0.0246855407575992,0.0158000935258841,,,,,1.95785632669367,-118.543232805973,1.73018014765519,HoldLanding,HoldLanding,0,0.547386981026534,0.15547045800908,0.109999114808137,0.95892143894158,0.339657832043507
36,1.77346701845278,2.46003556251526,-0.87465991382619,-1.52963713945669,1.77346701845278,0.0038431165414927,0.0025355711061187,0.0046042008628728,-0.0421738908861375,-0.122626723508644,0.131338982874958,0.0084751514787502,0.120267669185279,0.121331118579851,15.3377787892296,0.282394964039132,0,12.7985770319285,7.84019615813193,0,0.179522043154984,0.0810180404936832,0.113688680050738,0.657752325228023,1.3186431153953,0.0281485256350931,0.102078856093497,0.167417652454602,0.376809149522286,0.0031859952647927,0.0049716671836558,,,,,1.80194750046987,-118.644695572194,1.77539342217154,AttemptLanding,AttemptLanding,1,0.497190761970044,0.155322025905585,0.0964170924146896,0.97039691586327,0.325592154464621
37,1.95751784495685,2.64015483856201,-0.814954165096944,-1.76557510960775,1.95751784495685,-0.0021690233995033,-0.0036919709329784,0.0042819752308427,-0.0375149954725376,-0.160538429371514,0.166372158416184,0.010732221572272,0.132935892256128,0.133876163560997,15.4021899534349,0.243997586912485,0,6.8342806881988,8.81331497193867,0,0.119766927038125,0.121568363681919,0.198583132344038,0.756193558203273,0.953228408212087,0.0630763243578809,0.251762167966269,0.0801298914000974,0.42114050037131,0.0245224868246969,0.0184475013374357,,,,,1.94925992751377,-115.036005485037,1.97716344355746,HoldLanding,HoldLanding,0,0.54877999136736,0.154378352353482,0.11023407674981,0.955030665227796,0.36438671493329
38,1.94146425643664,2.56865811347961,-0.754667069708369,-1.77342401931201,1.94146425643664,0.0002153750389675,0.0032443757647693,0.0032515166477249,-0.0338855252019071,-0.162599835656347,0.16738844116931,0.010798027335432,0.131625359277803,0.132567994181391,15.4175163267175,0.268383210864279,0,13.6349026686138,7.73224438610257,1,0.0671577976259729,0.106817621823777,0.0674412731342865,0.711773358542033,0.994330298170464,0.0508298314428651,0.254474105019695,0.186447289905719,0.337858985174907,0.0245601916009913,0.0154599892732864,,,,,1.95556734378663,-113.09173062844,1.61132990440156,HoldLanding,HoldLanding,0,0.544237400552715,0.141714729220086,0.101566292524798,0.961179984118684,0.31713453781968
39,2.61478621943739,3.0,-0.545646684704853,-2.52305392083976,2.61478621943739,0.0065720131085295,0.0041364037633264,0.0077653842398135,-0.0249059730908345,-0.331146516907973,0.333014626128148,0.0214950787602161,0.197064508502643,0.199660157868813,15.3837989898818,0.283003041856902,1,4.81302951353901,8.62347699701307,1,0.0311689635225394,0.050257062864872,0.135585639527062,1.05809947949636,1.59115731175677,0.0324391873753011,0.118038738057263,0.125605747212799,0.410744656996567,0.0030025407294936,0.0052743787561354,,,,,2.97839668406099,-100.746107780264,1.91261218813079,AttemptLanding,AttemptLanding,1,0.737208356757066,0.0880967544038874,0.056110471100096,0.962964817238218,0.344175223460978
40,2.12683930726988,3.0,-0.352326814731243,-2.08136844826739,2.12683930726988,0.0015591317973204,-0.0014524863922639,0.0021308704045829,-0.0107878641248531,-0.222344694549666,0.222853697965589,0.0143760873892343,0.146054497442757,0.147392143282132,15.4002643663454,0.199729175767672,0,10.2241453635466,5.91722617305554,0,0.0768086056277635,0.0351883171738375,0.136371575468108,0.898412715755934,0.794974778846726,0.0528344722329201,0.252728376668072,0.22149813635695,0.350381290771671,0.0244546125637841,0.015955568111906,,,,,2.14315727359721,-99.704949465741,1.65745941384079,HoldLanding,HoldLanding,0,0.596635577261728,0.196851815438451,0.134781830726051,0.960277576425948,0.301556383841356
41,2.02646490707993,2.77172708511353,-0.333075974231395,-1.98534963989275,2.02646490707993,0.0024006245483713,0.010803976374009,0.0110674705200596,-0.0089916817930273,-0.209329901173174,0.209733288906527,0.0135365370764894,0.137678113455935,0.138777459916394,15.3357045030771,0.262870533976716,1,6.89128714209943,3.70508846659107,0,0.123402762856206,0.140107952234994,0.237476617638207,1.21473094751126,1.28221954605487,0.0808329686462521,0.252002190390753,0.116849839842622,0.407925106107639,0.0247214997637061,0.0167825946137996,,,,,2.06610024186884,-99.4944295849637,2.49272223588954,HoldLanding,HoldLanding,0,0.568146133871262,0.169713026319569,0.1189179106978,0.939964618941712,0.348066737847724
42,2.63076428824843,3.0,-0.711502002908149,-2.49998824132938,2.63076428824843,0.0080877916378198,0.0056581449506862,0.0098705105166736,-0.0352437888370104,-0.324854363038761,0.32835782441298,0.0211862465622497,0.192179134561627,0.194740835449125,15.4439913438344,0.166536609501334,0,9.8479960485519,3.14884162300227,0,0.0935039253142476,0.0939281418179784,0.245812147823701,1.29925173654311,1.15118925819294,0.0428465306455293,0.165562769037739,0.0945644302388476,0.312429237077219,0.0020451779305736,0.008315436844367,,,,,3.0,-104.488379335247,2.24506492972296,AttemptLanding,AttemptLanding,1,0.740485310622739,0.0848876287388277,0.0548653404285739,0.959323269718595,0.35797136433829
43,1.90811384726415,2.68955445289612,-0.281039772952683,-1.86607088447369,1.90811384726415,0.0045998958306235,-0.0085823325365155,0.0097373237298511,-0.0088369974497865,-0.176097352561832,0.176581068397484,0.0113896769739201,0.151227236664705,0.152174284143924,15.3982344461487,0.235905161329387,0,11.1958747974063,5.01271545466126,0,0.105410911487928,0.0983097631431314,0.1673272493998,0.843235564509393,0.772687453459282,0.0561866667253288,0.251164236385387,0.102692989021241,0.359868890044511,0.0243501058996214,0.0145276903674261,,,,,1.89634686321448,-99.0299435298773,1.76631284175214,HoldLanding,HoldLanding,0,0.539265216099224,0.177609312284333,0.122670653156566,0.95921012863901,0.354358671546115
44,2.55452995037249,3.0,-0.63412497993842,-2.44165360656187,2.55452995037249,-0.0146667007955682,0.0107372250038393,0.0181769115366113,-0.0310198524392153,-0.320660238457727,0.323562726522151,0.020882232735952,0.213858118735114,0.215718117790873,15.389383349979,0.248986132820726,1,5.33631136978028,5.11807962184533,1,0.0719293518016037,0.0615387760577112,0.152605124922702,1.09759460691503,1.39159445449322,0.0857924948084157,0.24905798876933,0.12624105334606,0.430494429656013,0.0242615896680537,0.0178269275383258,,,,,2.84909439858493,-103.288186023973,2.39745078693975,HoldLanding,HoldLanding,0,0.724351610324172,0.103563194947902,0.079403364814944,0.93754583854187,0.343892865179529
45,1.80681888620059,2.76068782806396,-0.237660880663189,-1.76046716535647,1.80681888620059,0.0069436785213701,-0.0074893503515234,0.0102129838977647,-0.0091427550941266,-0.159863894573368,0.160488760171955,0.0103525195960892,0.18963046595125,0.190526000337023,15.3878039289879,0.179179167413536,0,10.7182757972524,6.99174734518208,0,0.0931907852227567,0.15236957436958,0.0538400269095824,0.731165502021403,0.924761358724776,0.0549206816978314,0.250369560228807,0.168008355839204,0.360464898221108,0.0244653313827705,0.0173296329716604,,,,,1.79227934712189,-98.4873526901086,1.72875527001941,HoldLanding,HoldLanding,0,0.519923569720894,0.216492892300517,0.147070900711842,0.959528805245221,0.325329619627021
46,1.83788655394296,2.58580684661865,-0.246722501181598,-1.80292753907162,1.83788655394296,0.0039493630293606,0.0021557965267026,0.0044994362982738,-0.0067051221690709,-0.17093971290963,0.171244177667132,0.0110476165906278,0.156333494000799,0.157665985915659,15.4039797605628,0.247302967436159,1,7.15793088230043,6.56342827380214,1,0.0683756083546336,0.159462201546555,0.155735733035547,0.733655797161599,1.06004907174865,0.0264941503786808,0.111636197648678,0.238462696604403,0.398563146969916,0.0031512619969946,0.0050218681701594,,,,,1.88430874295808,-96.6306497925403,1.67228049462318,AttemptLanding,AttemptLanding,1,0.521636278234587,0.169106962506715,0.10469087227164,0.972659529412079,0.294016579286932
47,1.79819911131919,2.58011364936829,-0.186472521471415,-1.77580409694172,1.79819911131919,-0.0008618965336045,0.0007998738032107,0.0011758672270721,-0.0042411855260475,-0.164539857811368,0.164682107610111,0.0106198908284373,0.129291750193136,0.1300099204861,15.4341999325168,0.232915834911789,0,5.88724506416361,3.6290187165863,1,0.176686568839361,0.153742488828495,0.0923256533553636,0.764274629403263,0.445380520648116,0.0796190232901327,0.294731411842926,0.188644756171034,0.364096099505383,0.0560721957590851,0.0774037881979205,,,,,1.7942306129035,-95.9383136609595,2.19196647454777,HoldLanding,HoldLanding,0,0.505521747115669,0.176146346719344,0.158755615996504,0.950686055033101,0.316157886146207
48,1.69532522188236,2.65842795372009,-0.236656498633733,-1.65352957793167,1.69532522188236,0.0043956933525295,-0.0053126629077079,0.0068953975389682,-0.0083856431491883,-0.152968368394359,0.153507361488796,0.0099032391585146,0.177073918610357,0.177444019476949,15.3400516296952,0.136448224970319,0,13.0005499944371,9.47305589747784,1,0.163162646012215,0.164056885887559,0.181439652895235,0.956706493933743,0.824620481561291,0.100248347582339,0.571082138504736,0.175302858626967,0.468485479642127,0.0246780812203411,0.0181558335082896,,,,,1.77505847970161,-98.1997036075808,2.23326673373093,HoldLanding,HoldLanding,0,0.487575529730685,0.217962270878968,0.148347519901052,0.935879685687084,0.322087618388015
49,2.62242785903522,3.0,-0.656297166536796,-2.50697554939389,2.62242785903522,0.007179515977588,0.0022018010905583,0.0075095524310591,-0.031294770101675,-0.327891474896065,0.33061516793579,0.0213325177891812,0.194535073423701,0.197058794283191,15.392953566836,0.245073525551884,0,5.00572268502837,9.20690545109534,0,0.0427058431966203,0.0337771978980272,0.203540643062731,1.0490786276417,1.17943866422754,0.0292121943584569,0.11452797750217,0.15034372602636,0.392113465270311,0.0030651965513496,0.0049455713769172,,,,,3.0,-103.17867703994,1.78419685585945,AttemptLanding,AttemptLanding,1,0.738725854599365,0.0863304829961021,0.0549589889676452,0.967884124098942,0.333180566210507
50,1.79474538791366,2.535728931427,-0.193630796772822,-1.76589820072621,1.79474538791366,-0.0002324231754917,0.0014444381816398,0.0014630181793417,-0.0055650479971938,-0.162627999649024,0.162877032044263,0.0105086795848032,0.147308513605217,0.148193856345693,15.3998741544892,0.318002924804058,1,6.59871089677506,8.02208564401655,1,0.157340217388704,0.137304437621774,0.218153535619668,0.770122560862095,1.04676531203296,0.0513087770091369,0.249989458217219,0.234347902969003,0.464670653496862,0.0245617774543815,0.0179740489642931,,,,,1.82096079078944,-96.2053882192846,1.64592091649567,HoldLanding,HoldLanding,0,0.508237541379449,0.166989517290047,0.117646073714506,0.960070063922685,0.295845376458221
51,1.80463976682234,2.77117562294006,-0.110076426160095,-1.77539565358772,1.80463976682234,0.0032202970000725,0.0104714315970191,0.01095541840642,-0.0040453322839524,-0.175021238115535,0.175249865732627,0.0113091357294384,0.193959983486977,0.194943069407949,15.365799555063,0.159267954692533,1,13.312051074762,6.71445989496954,0,0.148633720556885,0.124178126717055,0.250720000930699,0.915711017218834,1.41215416258332,0.0771379888580137,0.24997008870233,0.103709294344938,0.368338959539498,0.0243855115108033,0.0171915428461167,,,,,1.8507515569247,-93.8235592237573,2.37912035830913,HoldLanding,HoldLanding,0,0.520225885034215,0.219479061000998,0.148776911842372,0.943140636301119,0.353906980291139
52,2.52136818501463,3.0,-0.530981553803145,-2.43551825840028,2.52136818501463,0.0083204610461107,0.0019461189490972,0.0085450249258783,-0.0229976237392373,-0.311541240071444,0.313207839573567,0.0202136634325295,0.209224128980745,0.211657088462446,15.4007788507704,0.23390897246253,1,9.97010810353066,4.5846336756325,1,0.0671491061937882,0.160061718365748,0.0723841524972176,1.34056211144755,1.46055937851654,0.0416154058912997,0.161556193196226,0.172058641271071,0.4779804936976,0.0017816639874886,0.0085153172858002,,,,,2.77719317437895,-100.961436075895,2.22083326367493,AttemptLanding,AttemptLanding,1,0.714696267029724,0.109258746274786,0.069443577438996,0.957183485347489,0.323529492768413
53,1.80868288568125,2.69556641578674,-0.104965908762826,-1.7794977811408,1.80868288568125,0.0041953707377844,-0.0112276718192469,0.0119858979683697,-0.0040179118211119,-0.162993166882353,0.163208626166389,0.0105283122622819,0.189847108435967,0.190748904947941,15.3787670534897,0.225898521480263,1,13.4811973553905,3.81757372920697,0,0.120420828676,0.102840821333066,0.216037598179391,0.761044492668825,0.761649188917861,0.0608262478216286,0.252312425686316,0.129842565187613,0.400764284356964,0.0244112850003117,0.0162093175419893,,,,,1.7823160694897,-93.8829963932827,1.89115388088729,HoldLanding,HoldLanding,0,0.520465217171256,0.20174620890127,0.137791482628897,0.95762285430529,0.34229219324995
54,2.61757928073107,3.0,-0.554384740168853,-2.52603996147805,2.61757928073107,-0.0243599876908707,-0.0132166799943506,0.0277144300026618,-0.0227444362047375,-0.327173396199943,0.328804640065635,0.0212097204523973,0.211105173479449,0.213296165700136,15.3672041049715,0.252686179889351,0,13.8927864008596,4.1660860124321,1,0.0853340535462375,0.167757599394377,0.0813306105390214,1.00862449724343,0.68992746735226,0.0631411632732728,0.501763243069603,0.33616450212195,0.439766558672191,0.0243508462725394,0.0158390994861594,,,,,2.84178461070235,-101.224141607748,1.78610178713416,HoldLanding,HoldLanding,0,0.740680374668312,0.0911256406693313,0.0712576552853712,0.955083652927255,0.250593554612467
55,1.78293387036575,2.64086484909058,-0.0928974641621791,-1.7683518734578,1.78293387036575,0.0013037399268721,0.0057459187397157,0.0058919708044369,-0.0019898247693371,-0.167048329614527,0.167105401353932,0.0107810972466022,0.123625037167294,0.124594656166307,15.4204195015104,0.231813176537157,1,14.6589197346442,3.81083981743378,0,0.137139728172117,0.112235184060567,0.259643645481084,0.968982446676029,1.11989152272994,0.0760311930218253,0.251772119366487,0.0909586795040814,0.348170186643162,0.0245915045038025,0.0160606723984647,,,,,1.81268753267023,-93.1526665262232,2.36567425666668,HoldLanding,HoldLanding,0,0.500367963330793,0.194114664860567,0.133238600982118,0.945571822300898,0.359573920220408
56,1.70945292431236,2.44280743598938,-0.231927551420251,-1.6820753452942,1.70945292431236,0.003475872649847,0.0067059322069203,0.0075532256315938,-0.0049584814912985,-0.148257356407992,0.148428176527797,0.0095763509982654,0.117252923551294,0.118521244990553,15.3897707150883,0.222719368584176,0,13.0396090153772,6.24261586146531,0,0.164415154048998,0.0749263944762637,0.15391188593217,0.721517965135481,1.22419062902238,0.0317336823483918,0.114391936680857,0.108013139621327,0.393780360576587,0.0031298854109967,0.0054180716258296,,,,,1.7288427871229,-96.8513027264581,1.87094223845269,AttemptLanding,AttemptLanding,1,0.479558362148074,0.166389523159788,0.103194981942476,0.968845448443135,0.351994160168299
57,1.81143926509789,2.56174802780151,-0.152599946078939,-1.78518821821529,1.81143926509789,0.0013818408858471,-0.0087311228196413,0.0088397958079053,-0.0046559092190394,-0.161725952399865,0.161919769182507,0.0104430228621032,0.148756059444864,0.14965940491957,15.3909951504024,0.275761521135855,0,7.53774624119302,5.89149588763988,0,0.172732379840929,0.172062660147378,0.147683721947374,0.730211711429681,0.634348361759893,0.0533673628800341,0.252156481539581,0.124031427000743,0.307880523722227,0.0241626213491956,0.0172734491599738,,,,,1.80912450321235,-94.8944011061714,1.68819504473201,HoldLanding,HoldLanding,0,0.512982351676685,0.170440100839765,0.119284257565714,0.962594775127779,0.344874921333003
58,1.69060491025448,2.64890265464783,-0.0700719523967139,-1.66466433682916,1.69060491025448,0.00298067094428,-0.0112249322571293,0.0116139357435461,-0.0027813810102601,-0.141390542567541,0.141553919991707,0.009130825121587,0.17508671233328,0.175857485422766,15.4036201781584,0.214698264156146,1,15.9022780029945,3.64760028740632,0,0.102225696360849,0.082454029716533,0.0813384061489838,0.690233057900515,0.767772634831473,0.0597265384124442,0.252207898331594,0.204508571139845,0.390267649635138,0.0244772526458325,0.0172456212861258,,,,,1.65786584843096,-92.9146212669234,1.85857967590194,HoldLanding,HoldLanding,0,0.485999473152414,0.217746214041487,0.147797642391732,0.958680971779455,0.309107301715624
59,2.625121483436,3.0,-0.660433290322767,-2.50412838281886,2.625121483436,0.0064905227134285,0.00529608261492,0.0083770744390622,-0.0327229350113011,-0.326156398692241,0.329334817207148,0.0212571964039925,0.198518134660462,0.201287618597702,15.338191652085,0.285814783338162,0,13.8024999114532,6.60256793801061,1,0.174701406193377,0.130128430665872,0.202503540781309,1.76893752663332,1.03203799131845,0.0344586479261195,0.128825349280448,0.204215408509452,0.482124175008199,0.0002132719678139,0.0123500623433821,,,,,3.0,-103.288913453806,1.96448316756969,AttemptLanding,AttemptLanding,1,0.740289919302473,0.0858834632073953,0.0561157972269177,0.960763011253033,0.309237596218021
60,1.57562148268581,2.23591685295105,-0.118782752074719,-1.55998830875913,1.57562148268581,0.0006067667756158,0.0021448652475099,0.0022290385483358,-0.0023571604561482,-0.127571626256841,0.127642060826505,0.0082344375775022,0.11196365982281,0.112664752875736,15.4148455904504,0.201701402511591,0,5.59690077742328,7.71900429386404,0,0.0746632841523191,0.084898346584801,0.216561954163999,0.643826481328228,1.17298243539702,0.0745028690270243,0.25023128160371,0.0801549264682126,0.380908220589438,0.0246022952633703,0.0176583673714229,,,,,1.57454882872326,-94.5469327829021,2.30880369014315,HoldLanding,HoldLanding,0,0.442698679291362,0.148975115376875,0.106740647175211,0.948473638283647,0.36437558823635
61,1.59431240305675,2.361248254776,-0.0947051132384611,-1.57494543786891,1.59431240305675,0.0004937200804123,0.0041985679882812,0.0042274972111193,-0.0025164133645213,-0.131528767600269,0.131618775051567,0.008492360849467,0.131438213640873,0.132224329008472,15.3842963263534,0.155558297580546,0,4.9453129350149,7.73080482477914,1,0.0760516091224017,0.0437158668483811,0.278956589090843,0.683406645986491,1.15626651699949,0.0504703786987851,0.250928440028913,0.263452346772417,0.412695077256685,0.0244311705057194,0.0170215215845127,,,,,1.61762345460285,-93.6644143083513,1.5709036470838,HoldLanding,HoldLanding,0,0.45159483995016,0.173335607792204,0.121049306890415,0.960310235798575,0.282910068101148
62,2.62839688573565,3.0,-0.514656884125987,-2.54429373920668,2.62839688573565,0.0187107572759119,-0.0072614423244424,0.0200704006554252,-0.0228152082459655,-0.337111184462972,0.338743992419261,0.0218528643770874,0.193066563141985,0.195774563911479,15.4254870171493,0.290174116851338,1,10.2078987889994,6.16087011607113,1,0.0964398117908195,0.0352865010525176,0.127430031226459,1.06364917019347,0.980442600992462,0.0355935510357128,0.141038664614462,0.247108227711725,0.406457372800904,0.0079122468738829,0.0075108060191463,,,,,2.97152933216033,-100.613250726234,2.04780519115171,AttemptLanding,AttemptLanding,1,0.740060748978469,0.0872902741629738,0.058621920852735,0.966142503422826,0.290174121017011
63,1.5398605009196,2.31328821182251,-0.125720116076594,-1.51999860561805,1.5398605009196,0.0093566531867895,0.0034555228462185,0.0099743469459708,-0.002997897175711,-0.126541311996602,0.126647926320784,0.0081658337254928,0.132155643812576,0.132646823280213,15.504431457322,0.135896404468212,0,15.0991173791321,4.98010541834411,0,0.17159274077161,0.0441133384033615,0.207812165181394,0.618560210593131,0.122782064266239,0.0601206678176079,0.251492853804897,,,0.0242532545096668,0.0159162942933471,,,,,1.62156253992994,-93.9354210374525,1.59924869528881,HoldLanding,HoldLanding,0,0.437158831567935,0.175849865226583,0.122076886741867,0.964114833931587,0.4
64,2.62346405920079,3.0,-0.439066354732648,-2.55347452694012,2.62346405920079,-0.0243358234983432,-0.0036073425266993,0.0246017321635581,-0.0179162333740879,-0.340915249654637,0.341984149312884,0.0220717389743821,0.206743337408827,0.208765785156934,15.3786861647471,0.24050007272089,1,14.7843673204967,9.36030253560808,0,0.148897687432551,0.136053477969156,0.259509557351546,1.22065916102147,1.34784947113999,0.078269254981236,0.252094559910936,0.116189047002883,0.393074803794698,0.0244173297980776,0.0163025452748198,,,,,2.94853364793101,-98.1270015879143,2.1890613155424,HoldLanding,HoldLanding,0,0.741343572818264,0.0892309042431413,0.0703188874045608,0.940684233256685,0.348360423554274
65,1.71883293257251,2.43691253662109,-0.0282390588376925,-1.70165210189028,1.71883293257251,0.0015993922741726,-0.0051497828908952,0.0053924316843183,-0.0010162521499186,-0.149795559533843,0.149862389410911,0.0096670072431799,0.145087241417694,0.145935519570631,15.4189226923425,0.202775893932332,0,7.07001170436815,5.29161960614227,0,0.100248885334292,0.126490335450057,0.192791194782638,0.976871649927695,0.819605724052496,0.0700016527687616,0.250511114555976,0.0785755881950679,0.40974168034827,0.0242985881329625,0.0159917854057733,,,,,1.70415838852487,-91.4034471635259,2.16233870452035,HoldLanding,HoldLanding,0,0.487542552600128,0.16255652338639,0.114148481228381,0.950883994248632,0.365077516357748
66,1.5903151117041,2.21194648742676,-0.168005500032756,-1.57107001093262,1.5903151117041,0.0024673209206483,0.0029282406755495,0.0038291338419297,-0.0031162626151359,-0.129505925805617,0.129597559558479,0.0083612451775267,0.108318508410602,0.109300974226637,15.4177616866436,0.345420181822795,1,8.28207621925486,7.96422163330486,1,0.102507017598628,0.142794827001974,0.178584596673313,0.961579344254665,1.25380604858268,0.043600009112627,0.159263827853399,0.145996865059894,0.416464375243094,0.0023988545622908,0.0068960434700668,,,,,1.62915702887708,-95.203704492906,2.27018480415735,AttemptLanding,AttemptLanding,1,0.445944224633086,0.140569067408619,0.0879152501993454,0.960793395928536,0.335112504417825
67,1.51836177814744,2.21561479568481,-0.0341946274319887,-1.50321934419483,1.51836177814744,0.0034417384785435,0.0035579547202993,0.0049502126768844,-0.0009482543838817,-0.119840918524546,0.119892660509469,0.0077343799337769,0.123868800138803,0.124551959666757,15.4152840388725,0.284893057497338,0,5.19053193871995,6.17553765863363,1,0.108948610106747,0.168423920404804,0.15499833148296,0.736310641160972,1.15287170668723,0.0705578007702498,0.250873645478928,0.152537733548897,0.561743981823244,0.0241728650236834,0.0142510590941924,,,,,1.52305422024291,-91.6803892574387,2.19206585333912,HoldLanding,HoldLanding,0,0.429806866106002,0.157789467936672,0.110599379635064,0.949877524024639,0.332205451756046
68,1.67896046037237,2.42618370056152,-0.0930143800374526,-1.66314221479854,1.67896046037237,0.0051832754545745,-0.0099522241073167,0.0112211010654147,-0.0022180727433645,-0.13957082239366,0.139635869754224,0.0090086140045256,0.116940337453219,0.11776510217279,15.3977998682299,0.272518942205704,0,7.52728425329891,4.74218474466361,0,0.125928622629886,0.135359235621167,0.216702805869219,1.24457995580729,0.51871255508987,0.0636210323742196,0.249540545808153,0.132538848071357,0.367769993003358,0.0246138707153861,0.0165212434536749,,,,,1.65992886901319,-93.675633913439,1.94946126204315,HoldLanding,HoldLanding,0,0.471275809867189,0.170182430904553,0.119056681530704,0.954335042655841,0.341093845301619
69,2.62824859826461,3.0,-0.474143280697048,-2.55298316707374,2.62824859826461,0.0051500688164944,0.0031349164103345,0.0060291715612024,-0.0204562303340029,-0.339069833445434,0.340356914651431,0.021960715802899,0.198750496938405,0.201461163242427,15.4106584610619,0.27216983718289,0,6.63801489063493,9.42168670942332,0,0.0356686880276483,0.0467804864617573,0.255737057968873,1.100138800675,1.37860333901992,0.0466193859065076,0.163003433614825,0.0882908671955934,0.372542174647291,0.0025016370820437,0.0053944453537415,,,,,3.0,-99.3718557434864,2.36762893181456,AttemptLanding,AttemptLanding,1,0.741158525519048,0.0847494135100162,0.05392310330141,0.957214475949143,0.960759614579736
70,1.64710102978601,2.44190287590027,-0.102999290016831,-1.63203571636494,1.64710102978601,0.0012439885443664,-0.0030341731743906,0.0032792856464033,-0.0021759761415582,-0.137760901544914,0.137824141399534,0.0088977055795213,0.116712266611913,0.11747528195007,15.2633321606911,0.274636538726437,0,11.5173816384581,5.19378021488161,1,0.0393887404676138,0.0447927318750874,0.217380578132935,1.85010814567073,0.743995300144415,0.0695986252550985,0.249974158848315,0.175940304147846,0.508209485292831,0.0249170500863071,0.0176339074643325,,,,,1.63718820829973,-93.6710336136772,2.09151620774158,HoldLanding,HoldLanding,0,0.462721997666283,0.179431617744216,0.125145545116363,0.944818446012475,0.321804309267624
71,1.69807066098345,2.49698185920715,-0.125295221557089,-1.68055995302085,1.69807066098345,0.0021643994437175,-0.0023694007784681,0.0032091564313648,-0.0029014840828661,-0.145140285376323,0.145226163567048,0.0093723785229357,0.117000509008235,0.117927051044914,15.3394903984109,0.174211693121473,0,15.5312070274702,6.47294187450257,0,0.0717004970702786,0.037872474837694,0.0738862780340071,1.44115331514762,0.574006942149425,0.0630978568121734,0.248745451189348,0.140287283243325,0.582576836540028,0.0244313923261848,0.017309083526956,,,,,1.70051980624269,-94.7465968646039,1.94361166777292,HoldLanding,HoldLanding,0,0.476404253137902,0.180343364946084,0.125358627748686,0.952617669572294,0.3376500963363
72,2.59587501403081,3.0,-0.497365849567874,-2.51530761608094,2.59587501403081,0.0059428993164964,0.005219503240895,0.0079095680266199,-0.0218359503157247,-0.330027738896418,0.331535254083551,0.0213933807234911,0.200568799372783,0.203193368801987,15.3915110602559,0.308797595317836,1,6.36950163921228,7.46404883946078,0,0.118235168319511,0.157776016240208,0.248953208847678,1.05992130928559,1.18800872587465,0.0308874737950318,0.107357257686224,0.130848842956913,0.402586015239193,0.0030307254308414,0.0050167473102485,,,,,2.91093538813022,-99.816427293789,1.82871620566261,AttemptLanding,AttemptLanding,1,0.732872010835281,0.0923782093146139,0.0585981864183236,0.966893955683368,0.341844958685816
73,1.70029812888095,2.42498803138733,-0.113414110596536,-1.68529560814763,1.70029812888095,0.0002891338877013,0.0043885134246427,0.0043980277947378,-0.0023843959555295,-0.150864883626353,0.150932036003934,0.0097357876275497,0.119226377890385,0.120035389684458,15.4430228877987,0.246582374591319,1,15.5840739963942,9.77533917446055,0,0.0782811420632814,0.108555826105212,0.0829445061032651,0.918591901289967,0.900916594085517,0.0764796219846548,0.249414425645516,0.0861092903637471,0.2828573943656,0.0247317939440331,0.0178548839822339,,,,,1.72562512383076,-93.8374795978128,2.36732702862228,HoldLanding,HoldLanding,0,0.477419912305146,0.163861533159637,0.115801513399801,0.947464050829722,0.361729204282779
74,2.68211215001991,3.0,-0.558204216308718,-2.59164335806966,2.68211215001991,-0.0239802929061379,-0.0111790962469331,0.0264580165689411,-0.0241466058132365,-0.342649563640717,0.344427054919762,0.0222372497251734,0.200376156862175,0.202430421353726,15.277413081144,0.257503972159033,0,7.11526272787466,3.17030294261681,0,0.168844441777051,0.174768330895001,0.278575594753187,1.68539963182205,1.26607690402869,0.0783192965115626,0.377049475241075,0.140213876040957,0.474073201409607,0.0242122853858594,0.0180016318403769,,,,,3.0,-100.724454534549,2.1408943635499,HoldLanding,HoldLanding,0,0.755715990942721,0.0763754026164928,0.0631323052388996,0.937650178962534,0.337682721759575
75,1.76391469401146,2.54297947883606,-0.0778121454256818,-1.74916949800391,1.76391469401146,0.0040431481399362,0.0006115457258334,0.0040891362237341,-0.0018681480205084,-0.158449988009762,0.15851000918418,0.0102255432738459,0.122049167114923,0.122920058567346,15.4315070622705,0.209970293000104,0,12.5936801361359,9.39622581639641,0,0.147776528801289,0.0506223934871483,0.261045168015855,0.978914883901281,0.980445460191733,0.0754465543688328,0.251961986307427,0.0947596861105734,0.344870570578621,0.0245136664301094,0.0163579912618613,,,,,1.75314324486889,-92.9988255456999,2.33367776360936,HoldLanding,HoldLanding,0,0.494961263449859,0.176039251559886,0.122466874252616,0.946881748683424,0.357884583950856
76,1.67061869077459,2.45965504646301,-0.145540808799018,-1.65317525646599,1.67061869077459,0.0016087306489365,0.0044877394723507,0.0047673703309605,-0.0027153086747788,-0.143085351112463,0.143155696969805,0.0092378916595946,0.115645702242073,0.116871102555113,15.362468850849,0.355858730564645,1,8.17574213404734,9.95192659432558,1,0.0733144987046039,0.0409528016046473,0.0548251652282385,0.717189905062307,1.34444561625054,0.0234354847091403,0.0896758761907997,0.231774835051662,0.347119560150383,0.0032169907048571,0.0047028103588064,,,,,1.70076581873366,-94.2444526353916,1.53169537013381,AttemptLanding,AttemptLanding,1,0.468872538050914,0.178407197923904,0.110184205258693,0.972083692835115,0.296988962199262
77,1.73169477724353,2.43272614479065,-0.0974678145910839,-1.71739194225282,1.73169477724353,0.000135031992584,0.0028660285744523,0.0028692078050567,-0.001851378883144,-0.155451404286765,0.155504178561024,0.0100343655438076,0.117608045678917,0.118407512551573,15.3650648527568,0.276601009598218,0,13.9543343248093,7.14246929098561,0,0.0894561703941444,0.0779229368122477,0.203299962727424,1.2475504475197,1.0463621887112,0.0900537655613212,0.28955415150282,0.115018589178976,0.320491326690924,0.0245369959546783,0.085144507076575,,,,,1.75267540990144,-93.0921521707442,2.35214729601851,HoldLanding,HoldLanding,0,0.485466776441923,0.158258079129028,0.136821817949766,0.936949517934668,0.348880627031566
78,1.68015246946107,2.41001009941101,-0.260237044158268,-1.64695517908386,1.68015246946107,0.0070164037767596,0.0029328390328023,0.0076047003064457,-0.0062391902192013,-0.147867971356063,0.148154385141261,0.0095543162822671,0.126510333637236,0.126979477652758,15.378605556779,0.207009028178645,0,4.67517396845557,8.91179410775067,1,0.125885458314976,0.146724284707366,0.15067684541606,0.825816927838752,0.343218581707326,0.0380427440438759,0.334870370172883,0.224009816135091,0.404316517741855,0.0036089280163236,0.0049677799194563,,,,,1.74654853556253,-98.8045454304196,1.79165302662475,HoldLanding,HoldLanding,0,0.473436554053503,0.165612161794919,0.102777730509463,0.971793348974486,0.300440081717738
79,2.6130730125019,3.0,-0.428391474444634,-2.54573349752631,2.6130730125019,0.0070675388887181,-0.0008534384746995,0.007118880752874,-0.0181155743041403,-0.338109907622605,0.339148668117747,0.0219172306149719,0.197913779110229,0.200624021660892,15.188158857737,0.168341324380963,0,11.7168246567719,9.16981886024868,0,0.105508063253235,0.179447284000328,0.224305489537727,2.41729439969779,1.54544966514922,0.0527728801786755,0.176501320967122,0.180588816493587,0.596425277695627,1.1315793615414599e-11,0.0323691119107342,,,,,3.0,-97.9055764515173,2.38366557036018,HoldLanding,HoldLanding,0,0.736944274332685,0.0883637003250997,0.064788806349447,0.942477713686864,0.319738303780628
80,1.71914464637864,2.63209652900696,-0.128025865312104,-1.68739020432502,1.71914464637864,0.0081761108399276,-0.0100187596247113,0.0129315247702863,-0.0047367456758824,-0.145633744453571,0.145888522802582,0.0094172585287426,0.177560555022232,0.178368316898517,15.2839583495385,0.234574621397964,1,13.7045266526049,9.47113211044042,0,0.1224159888771,0.063427561527284,0.267064707093079,1.54691452215634,0.821909885815463,0.0660691656973462,0.250376798007372,0.143437142076891,0.475486208755177,0.0245835108442229,0.0131472702728591,,,,,1.69628480395598,-95.2657092073146,1.96643849602221,HoldLanding,HoldLanding,0,0.494112235747342,0.20778495313259,0.140377802252975,0.948353225374406,0.336250159076938
81,1.75973038798336,2.4854576587677,-0.292003681551983,-1.72327637966575,1.75973038798336,0.0034232586517232,0.0009952092353589,0.0035649882494535,-0.0071456664052946,-0.154491650273754,0.154820009062079,0.0099897115963313,0.118690839545977,0.119585855408853,15.3995728544084,0.155192005889985,0,5.83684759811752,3.11458109405002,0,0.125945760946306,0.0685399899387657,0.260639457444441,1.11343443568898,0.766014217473148,0.0623951068865288,0.249525248891872,0.105289777626126,0.404234363271249,0.0247123136713687,0.0177920265779497,,,,,1.77104898685277,-99.7532888830882,1.9342402687401,HoldLanding,HoldLanding,0,0.493178607877334,0.163942217105542,0.115818408630461,0.954035349996176,0.353204543277277
82,2.61846116992542,3.0,-0.395653383017016,-2.55533238482779,2.61846116992542,0.0063145871743639,0.0033160837846062,0.0071323504435193,-0.0167056068084922,-0.339576110118542,0.340531576540974,0.0219756405754375,0.200711977476193,0.203407734443041,15.3996653147699,0.129106758616375,0,6.43829777396112,5.25068173380853,0,0.0906136600248702,0.16055353486862,0.18645290733983,1.08306754170587,1.37330351140172,0.0243978294309461,0.0870871235911768,0.231622101464386,0.355769286969078,0.0030911495793549,0.0050323785445288,,,,,3.0,-97.471050396456,1.64153446522618,AttemptLanding,AttemptLanding,1,0.738937858868721,0.087153834348092,0.0554961007007204,0.96850102701011,0.297056843793606
83,1.71066626272303,2.48543334007263,-0.245182818758164,-1.6803344474232,1.71066626272303,0.0035743809212337,-0.0024407874370786,0.0043282377803305,-0.005735184385776,-0.145850033180427,0.146097315102054,0.0094250281142379,0.115952949991809,0.11672968409554,15.3809283115672,0.276924764814185,0,9.87811717487462,4.74337753119445,1,0.0611601163136103,0.153697278456043,0.225212669223917,0.886954007571308,1.1819810714785,0.0720127470609513,0.253330557439628,0.153370486525027,0.445888344309596,0.0248674238403526,0.0178035855799303,,,,,1.71534999253807,-98.7349354691493,2.23804947189344,HoldLanding,HoldLanding,0,0.479523606878583,0.175116102663388,0.122595881091497,0.947737707991276,0.33183533932221
84,2.67190930867558,3.0,-0.50360649803559,-2.5922710216338,2.67190930867558,-0.0156369881073882,-0.0068565129060608,0.0170741666356393,-0.0200934358831179,-0.343386416988395,0.344706526773323,0.02224447670528,0.19701836499696,0.199152335526057,15.3826302054642,0.251260465109789,0,12.6984717254157,6.5797450795479,1,0.0416662184277833,0.160777110980292,0.174746337921477,1.09616947791869,1.31316341733205,0.0568608082729522,0.251536920396582,0.197160528753716,0.493841280349744,0.0245835554487859,0.0169901144066718,,,,,3.0,-99.8806899531268,1.61171698676535,HoldLanding,HoldLanding,0,0.752339616085367,0.0769506694311946,0.0632746497232295,0.952639123115125,0.312373098331682
85,1.92024977425777,3.0,-0.21819068798017,-1.88008762276152,1.92024977425777,0.0054906008795705,-0.0005200910529558,0.0055151783944044,-0.0082423203750574,-0.18968588161965,0.19018329023863,0.0122794038741627,0.20561065738629,0.206577408924924,15.3474278510881,0.20262305906067,0,15.3623368861983,5.34522581246226,0,0.153495671262342,0.0585270198772543,0.0606759876609726,1.69214513068471,1.15685331178432,0.0735771502218936,0.251850760834207,0.143820576265783,0.381956158296908,0.0248277517695858,0.0163034153654737,,,,,1.91928845417784,-97.3182776792843,2.23884367155311,HoldLanding,HoldLanding,0,0.553382088253722,0.243954916830977,0.163336021118978,0.940826437126797,0.336079743881874
86,1.71448375474687,2.43388557434082,-0.226832919713169,-1.68766327823475,1.71448375474687,0.0054017492352069,0.0076461055352882,0.0093617212443452,-0.0048245747244014,-0.14963348262874,0.149805605920769,0.0096604736465156,0.12134983624372,0.122593112644677,15.4307283356785,0.176621393656657,0,10.8647724487965,8.69518928151267,0,0.0750905301041968,0.047683517494506,0.242395142528065,0.696073138421316,0.538653433652777,0.0287121571067217,0.106444997551319,0.108135007653578,0.269047677997564,0.0031173609684127,0.0048645430097465,,,,,1.74559850451354,-96.6109051974514,1.75375834375214,AttemptLanding,AttemptLanding,1,0.481714290461433,0.163581724970103,0.101303453476618,0.975942498380343,0.35193999659841
87,1.92992222627004,2.65162992477417,-0.2775254576468,-1.89629051005909,1.92992222627004,0.0026310238841704,-0.0100771908583447,0.010414992187927,-0.0071646801982701,-0.180003022704392,0.180289977155496,0.0116292374638724,0.129102944892133,0.130185442020099,15.4139309243185,0.198962791201737,0,11.6389455342881,5.21292599365195,1,0.0976542153129638,0.113979212938652,0.148988139985097,0.785648557774487,0.754218761227497,0.054425348074801,0.252627243967757,0.235051471013472,0.394961033608128,0.0242215441298125,0.0149324655515974,,,,,1.90999160407999,-98.7042901753648,1.71329075498149,HoldLanding,HoldLanding,0,0.540683015409364,0.164293647397883,0.114771306636399,0.960688368456155,0.295532679549568
88,1.88355454507765,2.81712627410889,-0.210103943752826,-1.84270986338107,1.88355454507765,0.0028925111253304,-0.0138020258269903,0.0141018629102352,-0.0081559956123712,-0.174035183864054,0.174523742793462,0.0112556831195758,0.201357459832314,0.20231715158648,15.4262486190784,0.318392845740062,1,15.3754036303695,6.5961491861876,0,0.0747295089349888,0.125352722661662,0.141954588887215,0.916016708490306,0.455817284356241,0.0594877553231051,0.252911086393345,0.0724789730424435,0.268294697536328,0.0247338010959788,0.0165637000664917,,,,,1.85804652340585,-97.050859497189,1.86409929231622,HoldLanding,HoldLanding,0,0.542744642338002,0.212638980565572,0.144599352486987,0.959477426680368,0.367787123092247
89,2.6224431345694,3.0,-0.408059970989277,-2.55795642088564,2.6224431345694,0.0067308206156247,0.0071270000622369,0.0098029626158036,-0.0171835459872119,-0.340216283507784,0.341196556187182,0.0220305148365421,0.19348745000313,0.196158501577432,15.352335331241,0.297600594521638,1,14.917707149953,8.41788017043218,0,0.139532391653865,0.0850875660805133,0.25889178368396,1.66229056780208,1.56234187401782,0.0465474841002253,0.173278385493247,0.135592268469171,0.41809925167556,1.59357506044919e-07,0.008122851414371,,,,,3.0,-97.63858562104,2.36613908349594,AttemptLanding,AttemptLanding,1,0.738549869533994,0.0867475045347814,0.0550023376971075,0.951389860192731,0.339736769569257
90,1.96896771904743,2.98530244827271,-0.387620461573383,-1.90020241826095,1.96896771904743,0.0070711454542525,-0.0023625784719533,0.0074553923485846,-0.0155192958208461,-0.193671135578264,0.195075481348851,0.0125839901412841,0.21671789063658,0.217737226998107,15.4144003227683,0.229772485232452,1,15.493009089469,9.95316579987777,0,0.0835380051257507,0.146384788913004,0.0634191576836454,0.954112174042039,0.931049274678585,0.0697494010558696,0.250063757975412,0.0820001074574595,0.351078117838262,0.0247942245994561,0.017289651239921,,,,,1.97595603721084,-102.204413883357,2.16020607534172,HoldLanding,HoldLanding,0,0.56860550381227,0.23004213600626,0.155332082886718,0.950313316660689,0.363555507796685
91,1.97482959288451,2.79191923141479,-0.405579050957572,-1.91747307320664,1.97482959288451,0.0016942297947651,-0.007633263152363,0.0078190230176597,-0.0124761804194896,-0.186299747643094,0.187052366422273,0.012072404751456,0.135143634807002,0.13630725480216,15.3882016995526,0.258971233045649,0,14.8817045051004,9.85790223651868,0,0.129597437527628,0.122155529562951,0.255537874108095,0.786585511314971,1.47980939977106,0.0564278878224926,0.25070203033429,0.175551077931161,0.393506276837853,0.0245891241880896,0.0174433617548245,,,,,1.98269676727326,-102.196075792471,1.77804022601687,HoldLanding,HoldLanding,0,0.553882675729635,0.185278656222551,0.1284387340108,0.953978667501649,0.321977298697262
92,2.63417587631124,3.0,-0.337793645117078,-2.57653903445486,2.63417587631124,0.007057360883576,0.0033173967450278,0.0077981705421817,-0.0143361394463238,-0.344928484948458,0.345705756363214,0.0223097615043041,0.201670488160167,0.204441350515824,15.3947297869164,0.294062914523989,0,15.3824463403497,4.08758797716255,0,0.0395690669099671,0.142237103113229,0.174560559412275,1.03462394181621,1.53882542399698,0.0419257633960303,0.158131444910268,0.0885937019085993,0.395630518300788,0.0021099097746349,0.0069163890004697,,,,,3.0,-96.1325283262809,2.24201399872492,AttemptLanding,AttemptLanding,1,0.743335170452827,0.0837400924293721,0.0536968436808641,0.958817158999167,0.360625021373956
93,1.88783217545684,2.74283194541931,-1.05949748458384,-1.53894543803802,1.88783217545684,-0.0031828718057229,-0.0024012390262638,0.0039870567832573,-0.0652563359162436,-0.127345656623062,0.147381776383014,0.0095047823375141,0.168949400047751,0.16944228327676,15.4486701129966,0.206224037713835,0,7.68520883793729,6.87741646939159,1,0.163424343491385,0.0860311451815873,0.0627340457947169,0.62929636026794,0.793293248942669,0.0690787355531971,0.340607047093293,0.222273094484845,0.297273885534065,0.0577438963603183,0.0773602081373198,,,,,1.94231362243633,-124.407068044808,1.84155546296729,HoldLanding,HoldLanding,0,0.537310370110509,0.19310590865182,0.169658483906218,0.954283142436747,0.301211958006735
94,2.69005253896481,3.0,-0.116152194394313,-2.65226537585115,2.69005253896481,-0.0204592654725025,-0.014868495942544,0.025291376302364,-0.0036117560467528,-0.357611808505982,0.357897722575865,0.023105302359724,0.204977466016603,0.207221814796507,15.2355091254892,0.285800315872805,0,11.1798824194359,5.05904289455139,0,0.144317582227523,0.0556119575649259,0.198596421417639,1.81581206057599,0.607634820189059,0.074925282596694,0.250663734141343,0.150596170851537,0.553908611156791,0.0246035687591774,0.0181359051204172,,,,,3.0,-91.4563513127585,2.02923443815571,HoldLanding,HoldLanding,0,0.75879170668325,0.0743749310550186,0.062154752670777,0.943495990352785,0.333068368510428
95,1.94474494859639,2.9496443271637,-1.15572540810331,-1.52919449708009,1.94474494859639,0.004787446974951,-8.19851695039874e-05,0.0047881489227034,-0.0781038020220672,-0.127981752466792,0.157500524900967,0.0101669420348715,0.210760091236907,0.211565853147464,15.3157915865117,0.199468051233782,0,14.7376511724948,4.47826315066331,0,0.165808191040273,0.125338805217937,0.172935892271157,1.48518504419463,1.2669041306124,0.0767864778308116,0.251711740079313,0.149310778382092,0.594750534324901,0.0245583255826582,0.0165032613782846,,,,,1.96331253915621,-127.216824388755,2.34676931363384,HoldLanding,HoldLanding,0,0.56091182358853,0.226980187480139,0.153104109813894,0.939983203282539,0.333639654052404
96,1.79506196405577,2.82669734954834,-1.07772795176839,-1.4037882891009,1.79506196405577,0.0084705944806941,0.0047360393519616,0.0097046916282639,-0.0665808477272176,-0.107882486319041,0.13272643191132,0.0085627608633937,0.179348531747618,0.180351002937541,15.399966787685,0.127503616998277,0,4.4782169799671,5.11854500771363,0,0.0540994184610129,0.102203211908375,0.220755484277061,0.575908106370423,1.29169904854589,0.0274089308639103,0.0949844936509286,0.155292375194773,0.370725365371017,0.003164613935438,0.0045696322585421,,,,,1.85410920649287,-126.007447320558,1.72129762836718,AttemptLanding,AttemptLanding,1,0.514753391002379,0.233897155201011,0.143406472660675,0.971621478350845,0.330981166580101
97,1.87104333400726,2.89366602897644,-1.08033542597822,-1.49285567523849,1.87104333400726,0.0064055445857161,0.0036810722397136,0.0073879154213883,-0.0693500115451774,-0.123301895788495,0.148670413089276,0.0095935838261274,0.208417809671479,0.209157230446973,15.3626754645093,0.250840470000434,0,8.35704682216611,5.20387131723505,0,0.084927560955472,0.0366530977263155,0.272583721028661,0.735576980233035,1.52850413240922,0.0756359791839862,0.252330104383742,0.09350957778124,0.448826961351818,0.0243714080140817,0.0167790809145357,,,,,1.90035395314852,-126.506742732756,2.34900045473899,HoldLanding,HoldLanding,0,0.540776335157998,0.231444557528653,0.155799955381261,0.944392801665818,0.358440187652782
98,1.8480419743756,2.57691431045532,-1.09020338233964,-1.47010508933717,1.8480419743756,-0.0012295037766329,0.0042514974890647,0.0044257101618021,-0.066879302809215,-0.113252067304618,0.135765962099667,0.0087576131754529,0.150661871073876,0.151424576608449,15.3931176396829,0.1839324958149,1,13.9238158327887,6.72139461984591,1,0.119178706986353,0.0556342593497393,0.250169270943951,0.627667986737695,1.08331966725633,0.0507194397578897,0.250666580744299,0.165374862468442,0.349652188537085,0.0245477588914477,0.0158552562830787,,,,,1.87571237254526,-126.343170425654,1.6274158967532,HoldLanding,HoldLanding,0,0.523096108488517,0.164807655814268,0.115560256290728,0.961196805696816,0.326500061125137
99,2.61851740401724,3.0,-0.153681890739547,-2.58065557803477,2.61851740401724,0.0085824198603944,0.0044957468736954,0.0096886361585331,-0.0055436713224634,-0.346416777877592,0.346718548488269,0.0223655933877946,0.200524100836222,0.203382262429367,15.3856974280253,0.302217695366059,1,15.52419759114,3.08580546765993,0,0.133939972679379,0.140989347350071,0.261868148676712,1.08167046634739,0.766555653054177,0.0287859983023967,0.113199711140444,0.116497009472253,0.337087004697729,0.0030927074175347,0.0049001528476276,,,,,3.0,-92.1609099733914,1.75666925327552,AttemptLanding,AttemptLanding,1,0.738947760223804,0.0876098340585185,0.0557223108279002,0.971085224196361,0.348223551345665
100,1.77356289952666,2.58703780174255,-1.11698814372013,-1.35532053757255,1.77356289952666,-0.0055571089786067,-0.0063206628862766,0.0084161891329785,-0.0669976913335699,-0.0933439464279336,0.119279957047012,0.0076928158968711,0.142612799456782,0.14326027328314,15.4136071614252,0.206210135103422,0,13.171048504054,4.81728577217929,0,0.0622790888250037,0.0462950267844488,0.239648293244948,0.556005083678042,0.848767312501876,0.0578158551734657,0.250096143618855,0.0636227012560449,0.351819898431638,0.0247244946892215,0.0162889892422669,,,,,1.75491467611123,-129.314874842222,1.84603627918253,HoldLanding,HoldLanding,0,0.50160216119707,0.184574821006289,0.127656825725464,0.960054575014711,0.371723243886202
101,1.83904805416646,2.80745673179626,-1.14443759910895,-1.40394536965108,1.83904805416646,-0.0036225023547351,-0.012485236415822,0.0130001404480501,-0.0736897445106449,-0.100815167689255,0.13191956736484,0.0085160077728477,0.193285672785253,0.19402447463851,15.2239603077755,0.233606690659724,0,8.34451311782605,3.95150781485532,1,0.155127791132258,0.0307068460627571,0.258123946385495,1.31596638189307,0.875175843930132,0.0666448492502423,0.249319402446022,0.154454963940015,0.654977440595559,0.024651683784904,0.0181431656224971,,,,,1.81348529686832,-129.706905071318,2.00717643387621,HoldLanding,HoldLanding,0,0.529217709372092,0.220275311548848,0.149719005605528,0.949461457886268,0.331353349359993
102,2.62421319516606,3.0,-0.206732738904299,-2.58582459526629,2.62421319516606,0.0039932549845856,0.0061845520186939,0.0073617096549544,-0.0076330363592299,-0.347552603126967,0.347872302904768,0.0224665634227827,0.191807655351963,0.194603590867253,15.3111913520651,0.190562542110829,1,14.5824978630551,4.26763617666757,1,0.153370383081205,0.0727333388738412,0.143436527982677,1.99703768571903,1.51929882409976,0.0467078597923806,0.170681101631671,0.176722433357915,0.466506530040025,0.0024601813690992,0.0052359943938568,,,,,3.0,-93.3463396367176,2.37773080693985,AttemptLanding,AttemptLanding,1,0.738710903551067,0.0859016778577111,0.054538418617851,0.949017711812376,0.321456696285371
103,1.70299440337205,2.37077689170837,-1.0789536040509,-1.30245770035973,1.70299440337205,-0.0020683825704703,0.0037426680748714,0.0042761864758786,-0.0633670439702897,-0.0880704363951883,0.111309978366089,0.0071822405059582,0.118990493177164,0.119596021224074,15.3602877868971,0.140936264817291,0,4.52745765951486,6.95777738167942,1,0.119690197100889,0.0994066380381242,0.133175094690054,0.573832272482674,1.35631812037845,0.0466409644673158,0.25083439927574,0.251418010315391,0.433992509353205,0.0248296933831594,0.0162835672559101,,,,,1.72654575195328,-129.444915076368,1.50554541719121,HoldLanding,HoldLanding,0,0.478051045144028,0.151035027396251,0.107577732903122,0.961514050393862,0.288258662082048
104,2.62800389712327,3.0,-0.214413315080045,-2.58525103607896,2.62800389712327,-0.0236632419805857,0.0011016671835635,0.0236888727383786,-0.007637865249357,-0.352682183595547,0.353043550015701,0.0227735169549832,0.20569706392991,0.207852808607107,15.4332534811576,0.195254365711076,0,15.1873473964352,6.61850296469941,0,0.0333570184627795,0.0623190339568904,0.250483619088172,1.04892845766089,0.897422424567857,0.0810888097231613,0.25186971930845,0.0792607877890205,0.393819799069031,0.0242783191654459,0.0164024488752058,,,,,3.0,-93.2924416519869,2.26740322726438,HoldLanding,HoldLanding,0,0.742371600954293,0.0880420831493006,0.0695801408268231,0.944162838206622,0.36477298320488
105,1.74342362556541,2.49393796920776,-1.03374321403841,-1.38760366410288,1.74342362556541,0.002439282278684,-0.0019621382991858,0.0031305087031078,-0.0591913515577715,-0.0993846737398693,0.118339658878569,0.0076331964814083,0.121861698751565,0.122505750248203,15.4112872574019,0.143777166392635,0,4.71713730496239,6.96886785540016,0,0.14699961992796,0.154327295689796,0.105055216318687,0.861574596061064,0.750316186539775,0.0602398994973609,0.252157410534171,0.0793755374804611,0.342150417523055,0.0241987446590783,0.0149353325504641,,,,,1.76944401401711,-127.2708966815,1.87385238720507,HoldLanding,HoldLanding,0,0.489414116867084,0.169439653915099,0.117849819993667,0.957215194102313,0.364721983342017
106,1.71502657139979,2.68481492996216,-1.07388985986749,-1.30683907300251,1.71502657139979,0.0040867920451031,-0.0001368063413619,0.0040890812164782,-0.0659824189796635,-0.0937505379528761,0.120392058600848,0.0077705960875411,0.180228024427163,0.181154594280202,15.3803208131099,0.266851371962046,0,12.8611759989912,5.05732776786895,1,0.103813548483729,0.0515529504915073,0.086376949380617,0.553428069459311,1.78093948771656,0.0448128713402679,0.165664561922409,0.124848509550947,0.393804609330268,0.0030890734201722,0.0050325287166989,,,,,1.7686972036879,-127.77706983327,2.33826827405284,AttemptLanding,AttemptLanding,1,0.493571337895984,0.21895204556622,0.134574159302245,0.959252104952056,0.344511773532913
107,1.54079899235591,2.30100226402283,-0.907546361105003,-1.23137087214728,1.54079899235591,0.0021787066577204,0.0045469245309219,0.0050419525374893,-0.0451424346473408,-0.081404328944395,0.0953941688410648,0.006157903174599,0.106735038720678,0.107235725589832,15.3761224016352,0.279048878438732,1,15.9874168247551,8.3680563067436,1,0.0432082766097038,0.0587544723527479,0.129916195711425,1.09390471446214,1.64987545357122,0.079301751492584,0.251321190435439,0.144569492631732,0.46653138648173,0.0256573608987132,0.0166703931700667,,,,,1.56362962757819,-126.213274791377,2.44744617169838,HoldLanding,HoldLanding,0,0.432326876412877,0.171970094090262,0.120647289117448,0.938790851504874,0.335746892163675
108,1.67879039262423,2.42085766792297,-0.988908746009474,-1.34262695478935,1.67879039262423,-0.0029829176466047,-0.002324518168944,0.0037816904162262,-0.0531305219723232,-0.0932093516561876,0.10954740898149,0.0070633208252516,0.116914435219129,0.117347970029789,15.4936920916257,0.219244836825221,0,4.57593554605063,3.92910814293835,0,0.128337942257991,0.135890874866686,0.0990213980566736,0.532774085622052,0.431331788484113,0.0696638740703895,0.281459926995101,0.0635400118346562,0.0886822103372737,0.0389009036507314,0.0590217394185711,,,,,1.70099448076972,-126.23559516376,2.06780530604603,HoldLanding,HoldLanding,0,0.471147032039086,0.167658446851858,0.139346809320213,0.957592945382543,0.371759994740153
109,2.63229131977694,3.0,-0.455151784424994,-2.55765261904339,2.63229131977694,0.005224011908649,0.0057042985792281,0.0077349416741621,-0.0200531808653496,-0.339662424837539,0.340952451079698,0.0219970076468046,0.19426545200018,0.19697018608054,15.3856220575356,0.236188526964731,0,13.2128900465986,6.24386529387555,0,0.11374681038184,0.144719885355872,0.13392940696347,1.09646130967327,0.994988104487256,0.0301943162010686,0.115470759507156,0.115363844051829,0.345705154997213,0.0030448322469193,0.0052308968461138,,,,,3.0,-98.910745007038,1.81544513379092,AttemptLanding,AttemptLanding,1,0.741338389156624,0.0841525256904523,0.0537469184983577,0.968470025073919,0.348727180421409
110,1.68969013077445,2.39043140411377,-1.03674780531625,-1.32026532922027,1.68969013077445,0.0070297288312506,0.0089211432685057,0.0113579877028514,-0.0591397407819078,-0.0948905610303176,0.114467093554255,0.0073849734882386,0.114275826732147,0.114853752627238,15.4071798118527,0.227674688126889,0,11.1908099752635,8.69103545965386,0,0.138076396084952,0.0421289348560175,0.141234444372549,0.746255949425556,1.25828212404428,0.07835245376379,0.250814115457787,0.0982087072908452,0.394715668214639,0.0245737309268341,0.0167100119566582,,,,,1.72926744399254,-128.300304784031,2.42218610591204,HoldLanding,HoldLanding,0,0.473554785398633,0.159749084246871,0.112847476722066,0.945073831112271,0.356351685648513
111,1.82876140288926,2.57932424545288,-1.08573357958138,-1.45752825810075,1.82876140288926,-0.0079266987610712,-0.0069031617797698,0.0105112414017776,-0.0611493136490287,-0.106510843629911,0.125473375376147,0.0080924263194298,0.122028924613362,0.122691971975516,15.4055912401338,0.274368941501564,0,13.5933124861943,9.06483765138286,0,0.178834696555061,0.0517150368917293,0.196711872442401,0.632266723843769,0.861012154220496,0.0558686803204371,0.251986548366544,0.102546279733633,0.321716374380052,0.024743704825454,0.0176430679172986,,,,,1.81523472928788,-126.340586099222,1.76168521748604,HoldLanding,HoldLanding,0,0.512208101832239,0.170803700500474,0.119895083505766,0.960332754369277,0.354423875673941
112,2.61720868376984,3.0,-0.437403921248288,-2.5476762957999,2.61720868376984,0.009251888579845,0.0036705527062242,0.0099534114484953,-0.0186545275694832,-0.337278253768343,0.338408039530452,0.0218447358847793,0.194199180938213,0.196896312986006,15.3978539628636,0.210845743920458,0,9.53570592884838,7.2451295340543,0,0.0366336130639284,0.152393931165204,0.106637447742187,1.23475025218104,1.52555769459121,0.0327201778960803,0.122036222625983,0.138837873601935,0.402361520970336,0.0016646440909724,0.0093949361861152,,,,,2.96729568504797,-98.5728576137469,1.91219594161952,AttemptLanding,AttemptLanding,1,0.737301578269158,0.0879528382506772,0.056927885199931,0.961951777184464,0.33829427839914
113,1.95882113834307,2.89105749130249,-1.10441501844452,-1.5800086004691,1.95882113834307,0.00118089784314,-0.0118085605011608,0.0118674605887488,-0.0717891454450909,-0.129774552054014,0.15537010705561,0.0100292922894572,0.207741122907885,0.208533577777707,15.3470997540304,0.212571330274352,1,10.2833601282286,3.55659885807242,1,0.165159291619817,0.0679672627537454,0.118782296397883,1.17130920098492,1.29129945961217,0.0695016813183345,0.250955022611267,0.171528363575452,0.526351455572108,0.0242645774820344,0.0161772039197862,,,,,1.93223126337264,-125.804006762773,2.14767415477381,HoldLanding,HoldLanding,0,0.564059019113694,0.211928880523806,0.14382420458016,0.945900091293284,0.323765171744244
114,2.68419267032661,3.0,-0.386762991211312,-2.62046167675735,2.68419267032661,-0.0288100535288446,-0.0090948839172946,0.0302115225998949,-0.0145183012131626,-0.351417025075801,0.352202179052709,0.0227455904367223,0.197795075933391,0.200002123663186,15.2792734976026,0.220211336042451,0,8.27812593855767,5.82118526445157,1,0.0624990025082234,0.0475915148783801,0.10934684187155,2.22031720048735,0.645188137276546,0.0740024712140953,0.324613525429587,0.183458621791834,0.453034010774125,0.0244305991101803,0.016741339285741,,,,,3.0,-96.7638294594719,1.98551338001781,HoldLanding,HoldLanding,0,0.755785136819732,0.0765954283198275,0.062903060781135,0.940484079596236,0.318462834759185
115,1.78331190022555,2.59284687042236,-1.130760753722,-1.35598750909694,1.78331190022555,0.0011141161934119,0.0083994722265697,0.0084730389222132,-0.071941220816647,-0.0972590851035899,0.125539604570933,0.008099292400641,0.149628151545974,0.150416791195725,15.4139852649027,0.277347930248631,0,14.524020014354,9.71767404390162,0,0.0424394239746261,0.140334760536437,0.242031416787331,0.560993210160178,1.30197681215709,0.0471789655152959,0.253047476378811,0.23045389206148,0.339514745188311,0.0247971736914132,0.0160108555653487,,,,,1.81906071923281,-129.474338611017,1.52975115312212,HoldLanding,HoldLanding,0,0.505633198299292,0.183698758763355,0.127062350639576,0.961772895638431,0.297576047972675
116,1.74506726552013,2.73498797416687,-1.10414769078163,-1.32097707505832,1.74506726552013,0.0065312230740912,-0.0007141674930463,0.0065701529701876,-0.069474506581345,-0.0957069297750911,0.124140534087562,0.0080146814832571,0.180190491061816,0.181121147878254,15.2278862111571,0.235379664933278,0,15.9386769414049,3.66752157942086,0,0.129814885385767,0.146016350783864,0.103849767257628,1.54372295766923,1.02198612761974,0.0373642982594249,0.125807686931641,0.140448991675703,0.545155434005702,1.38970728066553e-06,0.0364090479588838,,,,,1.78140716467364,-128.268739059015,1.95957212546929,HoldLanding,HoldLanding,0,0.501575500381018,0.223936687490051,0.147602283944942,0.961158708057303,0.33757822592191
117,1.7945670997147,2.55653929710388,-1.07884767792495,-1.41087831882775,1.7945670997147,0.0005149828173791,-0.0031583684859947,0.003200077935851,-0.0650574514142753,-0.102286096219875,0.12538180993936,0.0080868812323133,0.148625356581964,0.149296428364072,15.4032017874237,0.197036506656601,0,4.99825739421195,4.82660639731208,1,0.177313338320466,0.0596054811834015,0.129991710339357,0.644819167440013,0.820641647711021,0.0564229229279242,0.250215325018662,0.188329591261364,0.387973307679292,0.0245117622932952,0.0167610243698973,,,,,1.80405508233153,-127.883265151708,1.77224126368414,HoldLanding,HoldLanding,0,0.508410512263401,0.172030425367472,0.120207289747971,0.960274203559851,0.316297959439394
118,1.81624639333596,2.47846841812134,-1.06340809633248,-1.4481910644456,1.81624639333596,-0.0014534463078182,-0.0123067811226059,0.0123923108325058,-0.0620248716403346,-0.104646249403507,0.125843140757338,0.0081286700960289,0.14390151049962,0.144605114988893,15.2423033604836,0.206309818434884,0,8.86971808165853,9.72991447613896,1,0.101343594137514,0.0571218148821135,0.149233387844138,2.12083197387899,0.788474796282225,0.0676699969312832,0.250249784872895,0.203085675655105,0.602093833052682,0.0245090259632131,0.0189532878402363,,,,,1.8005551772584,-126.745983901943,1.99541706326008,HoldLanding,HoldLanding,0,0.513253394554034,0.151271879229336,0.108548132634873,0.943306162625949,0.309739699708842
119,2.6131697996803,3.0,-0.446295276077704,-2.54175140755464,2.6131697996803,0.0069636809379735,0.0071282738086122,0.0099651964203643,-0.0191465497485518,-0.336052321098265,0.337239922031884,0.0217608818728929,0.196845130068304,0.199513635899403,15.4040447718882,0.290625882911254,0,7.96906634266569,6.74466776713399,0,0.0383628260794813,0.127601213044371,0.0981143839796809,1.20433980242306,1.38634726287648,0.0483253757791541,0.182334990923361,0.101915235217841,0.3831125980837,0.0015173560446706,0.0071479890674353,,,,,3.0,-98.5472955700195,2.39591051341287,AttemptLanding,AttemptLanding,1,0.736748007094626,0.0888637477490003,0.0565918978654929,0.955481913740212,0.354704339903182
120,1.68073813515341,2.58095192909241,-0.98540026421514,-1.33148105093574,1.68073813515341,0.002889810470875,0.0012643103605753,0.0031542804639786,-0.0569886406770992,-0.0974301380826876,0.118531292020065,0.0076575515026333,0.180216531633708,0.180838789127402,15.2436118837899,0.344729144166345,1,14.3335627317967,9.68981225023952,1,0.147547977009774,0.0350638145819103,0.0739662440217147,2.23573718309265,1.12424079774838,0.0747373237536077,0.250240163191148,0.20929275388821,0.622997561555543,0.0244626358380129,0.0162735708176844,,,,,1.69953700690408,-126.726927999258,2.23033674636492,HoldLanding,HoldLanding,0,0.48436459386639,0.203126388388003,0.138665777742996,0.936231511130874,0.306980998271907
121,1.63680299187635,2.58527517318726,-0.857593476214578,-1.3621011642613,1.63680299187635,0.0019619394463868,-0.0099023419335234,0.0100948294765046,-0.0443740828633822,-0.0962645051824254,0.110435094708594,0.0071245730132996,0.175024800881823,0.175582904552749,15.3848189540701,0.141591580738915,0,7.58335179374945,9.99920819690086,1,0.158175828113339,0.144786969784142,0.27878834297813,0.657464530606399,1.21756430349468,0.0658505525461548,0.251262874485076,0.193973698352815,0.555989545715686,0.0245210305501075,0.0178133815491238,,,,,1.6281175232469,-123.046018113821,2.02405867406043,HoldLanding,HoldLanding,0,0.471597378744244,0.215256959532312,0.146530004810025,0.952342354316128,0.313789467398749
122,2.63030755878691,3.0,-0.443637854144889,-2.55759776691824,2.63030755878691,0.0064481509213748,0.0049892537317974,0.0081529935057671,-0.0194915574572356,-0.339731526321681,0.340961767846491,0.0220033577338849,0.194828887661587,0.19759396986851,15.3590933987124,0.14195138378736,0,8.51353927865518,5.35226786788915,1,0.0824378912719999,0.148866460490998,0.144558243999991,1.056636034886,1.29106147883687,0.0322803690935293,0.130892520148144,0.161732581949923,0.494867073937258,0.0030365216148556,0.0049060994184077,,,,,3.0,-98.4223369875654,1.88663192962615,AttemptLanding,AttemptLanding,1,0.740934142983544,0.0846755147490028,0.053938910163708,0.965413620702556,0.328118852466701
123,1.56074816301681,2.46766638755798,-0.892616828232051,-1.25396446625013,1.56074816301681,-0.0033433837398455,-0.0033038890908787,0.004700414657952,-0.0472730177833472,-0.0842292708257195,0.100750887901361,0.0064965813550798,0.168365392278668,0.168603758953273,15.4734909179561,0.276851853839858,1,9.65442054720942,9.40401653864027,0,0.135842343976046,0.0777212367956913,0.0937180822549785,0.533159754175392,0.52499007767215,0.0677387952839667,0.302288348465455,0.113565670876404,0.149688995609094,0.0505137393719815,0.0699224233833695,,,,,1.60994475744194,-125.481401659111,2.06778035083164,HoldLanding,HoldLanding,0,0.44992026192847,0.204918343209055,0.170827892533196,0.957816567964929,0.349526368499376
124,2.67512321707063,3.0,-0.444766456507441,-2.60614794370445,2.67512321707063,-0.0228921100811907,-0.009937858436058,0.0249561562397835,-0.0172682566641621,-0.346914796142186,0.347906570804173,0.0224517551997049,0.195345135498045,0.197495861988526,15.4065821825165,0.264141849751005,0,11.672018504157,3.15268877094748,1,0.0871695297969913,0.116317728366081,0.255667196290117,1.59432524533433,0.73958169568267,0.0711569654811908,0.251439236073704,0.168750937813111,0.371653646203141,0.0244417239708923,0.0176594465473029,,,,,3.0,-98.4190936738779,1.93552555186768,HoldLanding,HoldLanding,0,0.75286536361654,0.0776725714697349,0.0638881482396406,0.946083677008557,0.324999583194173
125,1.6978476451373,2.46388792991638,-0.935496191715857,-1.39663910884172,1.6978476451373,8.51244547827084e-05,-0.0049825094009532,0.0049832365088755,-0.0487473941536824,-0.0998039273567587,0.114232398249691,0.0073739619253948,0.136741812672728,0.137358447477782,15.2544780157245,0.237543746865726,0,5.09971540360935,3.76359834174711,1,0.175002138908863,0.0941510119714785,0.117763367254524,1.29184216727405,1.17261023184142,0.0642138667227527,0.249729041664013,0.190076926248908,0.605924765001009,0.024565642473919,0.0158737915184511,,,,,1.70394137208591,-124.217456820887,1.97291616434773,HoldLanding,HoldLanding,0,0.480231061532171,0.173272657435253,0.120653945607785,0.948529512074145,0.315521366111596
126,1.63576715845727,2.3262927532196,-0.904906229157583,-1.35065084774814,1.63576715845727,0.0050316782866276,0.0025941664591756,0.0056610499024502,-0.044477965989035,-0.0961990610554977,0.107751558843298,0.0069547551819114,0.111492192076246,0.112300852866359,15.3971937923898,0.222391314554997,0,13.6092268260991,7.74957873734019,1,0.0937280929674322,0.17138834114328,0.165098520601601,1.13328780696115,1.5793851703245,0.0385082595656841,0.144218143358648,0.173486484959595,0.522585651418728,0.0007478080834239,0.010974689611554,,,,,1.67689753088332,-123.079868701553,2.09417118914207,AttemptLanding,AttemptLanding,1,0.458664746161877,0.156406117970308,0.0981668261527567,0.959432011109913,0.322894895573513
127,1.72873250800267,2.66010522842407,-0.98574220105496,-1.38689037912136,1.72873250800267,-0.0039171108280102,-0.0134149667352418,0.0139751597395722,-0.056257086849264,-0.0976242055435941,0.118274014332287,0.0076367662030375,0.183094156531636,0.183719811185464,15.2739049311497,0.193393446792464,0,6.13066157938394,3.25724232104352,1,0.159924613907706,0.0457706485957463,0.134960861795192,1.81408235343132,0.790063928684817,0.064899216085273,0.248993683880058,0.196489951914991,0.544022033264363,0.0246509970364978,0.0172613089953615,,,,,1.70122994362469,-125.926493707361,1.9330511337178,HoldLanding,HoldLanding,0,0.49773929770447,0.212120974713738,0.144505423145808,0.94708924259788,0.312671132482226
128,1.55339324639199,2.36092066764832,-0.792243931092375,-1.31703433131682,1.55339324639199,0.0033497595479365,0.0019271177831065,0.0038645403321686,-0.0367448991723084,-0.0931418942530311,0.102673952263679,0.0066230005333303,0.133174309652851,0.133687620367206,15.4184108257326,0.222696436974473,1,13.6065138223378,3.49195883974575,0,0.0579642684248432,0.112192018226031,0.160703058959349,0.616131660683296,1.15668028037313,0.0721330945045162,0.249642489280165,0.0824046732146154,0.359355081703552,0.0246120103468929,0.0166907326494013,,,,,1.57271803987998,-121.511109536876,2.23083006685305,HoldLanding,HoldLanding,0,0.440975723111304,0.182402168843572,0.126449329898484,0.950004216068013,0.363375700793504
129,2.62020403246417,3.0,-0.427269582537939,-2.55172530779392,2.62020403246417,0.003329217028853,0.0056086764603228,0.0065223414248093,-0.0184435476626837,-0.338388591886751,0.339536258608856,0.0219112998197289,0.195363384456581,0.198114038189604,15.4042234002944,0.236207270928429,0,15.9764559544935,3.91938195082943,0,0.152902164839812,0.0454339202507881,0.166416409751016,1.21129480351928,1.19899932328459,0.0328059435709838,0.125748144613382,0.119052232457886,0.423084651747525,0.0029074435212226,0.0076210514530586,,,,,3.0,-98.115524096488,1.90382964080095,AttemptLanding,AttemptLanding,1,0.7383438829617,0.0866498552901099,0.0560534017320852,0.964659002932478,0.347087896685384
130,1.72837154328565,2.49016046524048,-0.925668379868485,-1.44622487762642,1.72837154328565,-0.0034554714614252,-0.0061994175570186,0.0070973981899704,-0.0459963844730139,-0.10569699382115,0.11732148359596,0.0075701876228134,0.120008073782128,0.120592680591237,15.4055663697868,0.271283449026253,0,11.8851142388292,6.53446799272417,1,0.151437254877142,0.140563977222627,0.216800472569221,1.08246159125197,1.16584781965779,0.0654855858061997,0.250916189330893,0.183407022114635,0.40004655272716,0.0246867278868127,0.0168792369823429,,,,,1.70851046235541,-122.854304670078,2.04425191974035,HoldLanding,HoldLanding,0,0.485017614327754,0.172703697107998,0.12073200168282,0.949591918868324,0.318485767949051
131,1.56398049201775,2.27342534065247,-0.847683419191006,-1.29427101057248,1.56398049201775,0.0002596371227506,-0.0039536700597684,0.0039621860603736,-0.0405586052088838,-0.0850660981615435,0.0969047548784077,0.0062513017792374,0.127351769281522,0.127839996227191,15.4059250647287,0.126116195634165,0,5.29528590609378,8.80961938237744,0,0.107101545391446,0.0815596031543279,0.0832161588041186,0.529366686632564,1.05795420653195,0.0556235760350448,0.25075175100017,0.133577594385241,0.393360622988106,0.0250731630315318,0.0181275309506433,,,,,1.55679587126254,-123.368694018533,1.76180899453926,HoldLanding,HoldLanding,0,0.442629463783505,0.160351491720546,0.113946352482939,0.959716404964757,0.340632180273226
132,2.61716031151073,3.0,-0.596784163067659,-2.5144851415594,2.61716031151073,0.006394165490182,0.0058376786877002,0.0086581663634204,-0.0279274456585154,-0.329267323386059,0.331593585482378,0.021410181324842,0.197926973447288,0.2005143456011,15.2980407125224,0.338467990321777,1,6.8537278978254,5.29588957550179,1,0.116923177753205,0.13459811358266,0.244675996624559,1.10211565147499,2.05148820507167,0.0401982164041171,0.152889891539525,0.192170123561503,0.486358442243076,0.0027255597968477,0.0048290782626596,,,,,3.0,-102.159208261726,2.17740618684064,AttemptLanding,AttemptLanding,1,0.738012285523081,0.0877262604100461,0.0556031446148867,0.955122575782218,0.314591056194888
133,1.67120479793959,2.39320421218872,-0.795919837032121,-1.45490845236866,1.67120479793959,0.0046355912574953,0.0006518732412608,0.004681201237849,-0.0362024901471896,-0.11053140663597,0.11796712389877,0.0076187127911318,0.120370416729497,0.1209672188354,15.2624235638229,0.175019250852024,0,9.82240764810045,6.59664580655512,0,0.0758246236191892,0.145391539566841,0.116000355532945,1.67924339913399,1.2362036180748,0.0719114860314739,0.249158581027353,0.167883032904005,0.609202377161676,0.0249644296225247,0.0170073188214564,,,,,1.68420884954605,-119.152741236505,2.16518818761174,HoldLanding,HoldLanding,0,0.46984805655097,0.163308088432994,0.11526463468569,0.941137173277623,0.325385318709331
134,2.63580329195734,3.0,-0.608793898773969,-2.53059085150431,2.63580329195734,-0.0205025289847464,0.0014945437694674,0.0205569296308865,-0.0289145837528324,-0.3367014131117,0.339238709637769,0.021896850207385,0.202800344848108,0.204868009121761,15.3737529435678,0.15478307870466,0,9.74713771608437,5.86919848093956,0,0.0792469758309066,0.0371921736475998,0.230922474132315,1.28385268757838,1.2531202701932,0.0802777475656006,0.250826510236437,0.109353799277891,0.390729983662093,0.0247448649976814,0.016459851839462,,,,,3.0,-101.974077911171,2.22085744651531,HoldLanding,HoldLanding,0,0.743854479679644,0.0857130297419268,0.0684109362907986,0.93992776726328,0.351398311432048
135,1.62989858305292,2.3056743144989,-0.768102936016209,-1.42509953732713,1.62989858305292,-0.003008928543472,-0.0067915020516272,0.0074281997211288,-0.0328737840804508,-0.102050726244842,0.108494281748235,0.0069984556118349,0.111252406543793,0.111844335801376,15.405437870682,0.160934294371263,0,10.9523448776847,4.43949641926713,1,0.111907904911652,0.149560983440798,0.1534830535412,0.702591116316947,0.985851343498007,0.0484003073245328,0.251918963706739,0.230835869273465,0.458375907635113,0.0254134305749387,0.0172217544041811,,,,,1.64295583088074,-118.56675799978,1.54381819268625,HoldLanding,HoldLanding,0,0.457008489307722,0.153411376190885,0.109604139894812,0.962533512724902,0.297406280322904
136,1.53758751807803,2.37516975402832,-0.727324775705918,-1.3303926628681,1.53758751807803,0.0061120874789845,0.0043410120959966,0.0074967992749139,-0.0321361434472816,-0.0959278067989661,0.103729998490342,0.0067024653327442,0.162243582564677,0.163011533808695,15.2247128625262,0.130829861885885,0,12.2312806278422,8.53533059465548,0,0.081992100730002,0.0624632099163356,0.0788139629232357,2.13524615214934,1.19217046805889,0.0414096260737077,0.135843688811716,0.180221290252364,0.575132616236835,4.99840097127333e-11,0.0359595698018341,,,,,1.59091926420837,-117.420269890065,2.02558405302235,HoldLanding,HoldLanding,0,0.44262564491588,0.189830416289216,0.126974456996412,0.953151199232939,0.319901648776727
137,1.61629003530643,2.34344530105591,-0.795632958128296,-1.3882628373462,1.61629003530643,0.00189047130029,0.0041810376622669,0.0045885681503618,-0.0361542396889976,-0.104146452773168,0.112634099352633,0.0072696295422635,0.133000696097001,0.133578968666736,15.306072136369,0.253775946073278,1,8.20780463942271,7.92926456855429,0,0.125494461960715,0.174192589875918,0.172084068715587,1.19951936701692,1.21265148156481,0.0923098292474144,0.285202219193584,0.107626865283714,0.426487266335717,0.0343200522853008,0.124287568731814,,,,,1.64400627564805,-119.681547410493,2.43624197860006,HoldLanding,HoldLanding,0,0.457726469815062,0.164451172287866,0.159119539482805,0.934892314423151,0.352165837651683
138,1.51757422210944,2.36067485809326,-0.786279102426292,-1.28648298954136,1.51757422210944,0.0034025301949494,-0.0023272686791794,0.0041223041169512,-0.0364114675024428,-0.0899650608882973,0.0985516254210518,0.0063543296421109,0.110438508057164,0.110750493948225,15.5027076126426,0.146709727622285,0,10.066293192358,9.27429077911344,0,0.0942374123122876,0.0960687291997872,0.13463455244726,0.543017488469515,0.381274347447778,0.101618114424114,0.636883548857144,0.0664204854338747,0.0824580759554018,0.0245136048858151,0.015868829650538,,,,,1.60523562484629,-121.327745837078,1.72906237904047,HoldLanding,HoldLanding,0,0.426836558018828,0.190453398851135,0.130937458324774,0.94192864979145,0.370479784251611
139,2.62533950526579,3.0,-0.498137176136538,-2.54466560649306,2.62533950526579,0.0068863057900812,0.0026441785599181,0.0073765091805838,-0.0219032901133836,-0.336782864297676,0.338260659586159,0.0218363729183231,0.196045749084369,0.198750419279859,15.3562577522546,0.128632830541156,0,13.7889966846852,5.60881689980452,0,0.0908047664494014,0.137682257212022,0.275127840083204,1.46397589558335,1.47121823397279,0.0408709872150903,0.139835894351519,0.12721522285935,0.371209613023493,0.0005793792019409,0.003067104147132,,,,,3.0,-99.6944273233563,2.1586278739426,AttemptLanding,AttemptLanding,1,0.739840618593515,0.0856509713316381,0.0527633952654693,0.956502266803085,0.3434599009514
140,1.52299813554499,2.25046253204346,-0.669284359627837,-1.35639634089743,1.52299813554499,-6.3842442322354e-05,-0.0097110038594021,0.0097112137148125,-0.0250564393939852,-0.092630093098093,0.0969086128556741,0.0062559636937306,0.101780329490581,0.102253279898615,15.1851442595799,0.24893985768708,0,6.25982018714418,3.35353159809102,0,0.11953153041927,0.0401519529993299,0.279188509767007,1.84053811280848,0.67844496500067,0.0689105973681353,0.250136068317141,0.162122473101642,0.584967089128024,0.0247955088333732,0.0168834485594374,,,,,1.52174770580897,-117.115006093661,2.07034452859988,HoldLanding,HoldLanding,0,0.426583492125054,0.165459878393204,0.116435589023884,0.94575269141886,0.327945567510381
141,1.59869238049509,2.2742018699646,-0.749288802872825,-1.39166650610936,1.59869238049509,0.0020379597202032,-0.0052125569304438,0.0055967874333665,-0.0328589179791271,-0.0977457692904062,0.10522782583159,0.0067918075159291,0.130874581188967,0.131430361094049,15.2529827936985,0.170398121815171,1,13.0382502002959,8.65764377147543,1,0.072422435715427,0.0550506680863843,0.224847668674877,1.38551086208968,0.733262172785619,0.0642011334075676,0.248523498430052,0.161348222255349,0.558746553430717,0.0250502448122906,0.0181665587280973,,,,,1.59025262603988,-118.88840106146,1.93082341731689,HoldLanding,HoldLanding,0,0.452604040350834,0.153015712826756,0.109548891190521,0.951251930879339,0.328289678997623
142,2.57084552819115,3.0,-0.643705708162043,-2.45863563709767,2.57084552819115,0.0096068286794822,0.0034197077788149,0.0101973309532157,-0.030009625941,-0.316105026647882,0.318794170366277,0.0205726449272253,0.195997417955188,0.198556084782547,15.384883282899,0.20827296737639,1,10.1757179223773,5.74281754434367,0,0.177411472199035,0.136051168702635,0.16839980848874,0.977292039607501,1.59025340384734,0.0419495383109215,0.156714442022213,0.0945574971741048,0.411744228880388,0.0026627125527464,0.0076636257338768,,,,,2.86513009173103,-103.173390896604,2.25890719655523,AttemptLanding,AttemptLanding,1,0.725270024474149,0.0984292668317478,0.0630277608944064,0.958851659503108,0.357974445700398
143,1.79419539127056,2.47857046127319,-0.845982065712818,-1.56730736807973,1.79419539127056,-0.0001564716726448,-0.0063774325236986,0.0063793517679048,-0.0397774186750951,-0.123488111072698,0.131475138165966,0.0084794028716214,0.119736569616582,0.120446336194532,15.4047517572934,0.266757783588165,0,9.06225569517697,8.88728433328677,0,0.0692638173697799,0.149305753061335,0.267410641072741,0.657128766665603,0.781802023510207,0.0591231437398178,0.251239128145479,0.0644856022585858,0.345632564465054,0.0246564887450282,0.0163336848682105,,,,,1.79248213278172,-118.827132255119,1.86147424456044,HoldLanding,HoldLanding,0,0.502541371577722,0.155153938574709,0.109990324357318,0.959132543350138,0.371339732329517
144,2.68865418809378,3.0,-0.697186571092664,-2.55955208306966,2.68865418809378,-0.0317486158726251,-0.0067670335426664,0.0324617829577347,-0.0320831935058011,-0.335657451208364,0.338688209819357,0.0218521410517994,0.20418139426467,0.206254248086308,15.4080137913259,0.138065310486973,0,8.85471937988747,7.82837370162983,0,0.151733081290571,0.0964925223707306,0.215082673898019,1.0381199621092,1.14075313636264,0.0750033845465165,0.36437068401702,0.0833078612769365,0.391583159228631,0.024670059258707,0.0168812342212278,,,,,2.99065240368585,-103.652251957395,2.07451280346912,HoldLanding,HoldLanding,0,0.758225299775603,0.076004134554484,0.0627055821402389,0.945378590524463,0.362974283876917
145,1.62871352778185,2.36056470870972,-0.747331969007321,-1.4302015423698,1.62871352778185,-0.0019088047684625,0.0011355125507248,0.0022210187745624,-0.0324136360047043,-0.105842061506384,0.112551582155945,0.0072612910804646,0.129963905870787,0.130575056690543,15.3881609173895,0.182120228373348,1,5.78290123208564,9.07886583257925,0,0.126200947253797,0.160295434309687,0.250110768046306,0.59295634487812,1.13535667695596,0.0519589970202573,0.250716921717095,0.207746232076627,0.38593687001262,0.0247323598579045,0.0159482035751897,,,,,1.62717802274902,-117.276491250742,1.65213330454371,HoldLanding,HoldLanding,0,0.460438618746602,0.165073702484106,0.115835728181925,0.960440899175461,0.307668341299277
146,1.55392817370469,2.31041669845581,-0.685256473659743,-1.38261146059381,1.55392817370469,0.004348364288295,0.0016110156880758,0.0046372021231499,-0.0264526293876104,-0.100544051828622,0.105041754402197,0.00677736972106,0.109756349521229,0.110558938618256,15.3953411043316,0.261573058476912,0,13.4005613024017,5.17219263759083,1,0.136814957490864,0.0886297708529712,0.217148807157176,0.720248412783723,1.29683481352798,0.0334922482045557,0.122074224909562,0.152403609674429,0.394804960259269,0.0027973298923925,0.005567597534018,,,,,1.57859786558615,-115.506330805141,1.92500110177626,AttemptLanding,AttemptLanding,1,0.436492634044902,0.17106007179158,0.105903881726361,0.967405364833845,0.33226506236692
147,1.52934378734638,2.2199981212616,-0.659077074468062,-1.36684633018238,1.52934378734638,0.0035163734553981,-0.0031993347836218,0.0047540114993046,-0.0253624011888859,-0.0957734671585616,0.100152364399525,0.0064626659350062,0.101329213795642,0.101858347976253,15.3829626524038,0.263511145532857,0,14.159266767536,3.14513895619298,0,0.09461428313675,0.134377879293229,0.202204964237244,1.02691810820124,1.00304873993292,0.0656797601740868,0.250810980668818,0.117623010898932,0.417190160029694,0.024762426876964,0.0185437651275569,,,,,1.53737363016854,-116.223023798313,2.02781961545416,HoldLanding,HoldLanding,0,0.428196679554286,0.156268793905796,0.111509986719017,0.951210380391902,0.347723106267141
148,1.67205774757419,2.63485717773438,-0.74417615010319,-1.46870261939607,1.67205774757419,0.0013370934590822,0.0009008302665029,0.001612238843152,-0.0359093773808075,-0.114147944082458,0.122754677008931,0.0079178482808208,0.180292615978054,0.180962462806947,15.417647283238,0.212522223784379,1,10.0914307315355,6.41129632862429,0,0.0759471934887431,0.11328255252136,0.176640340792369,0.633086694250663,0.940425055108336,0.0520841986567507,0.251251199576624,0.183303044464122,0.340380880449917,0.024762157179982,0.015005998212684,,,,,1.68916796666871,-116.88139676066,1.66236381684372,HoldLanding,HoldLanding,0,0.482074558581174,0.216925448907285,0.146617399158268,0.961594594069518,0.318531980238168
149,2.61835513067086,3.0,-0.714166340189595,-2.48647522373243,2.61835513067086,0.00647708595776,0.0017516338689366,0.0067097588417929,-0.0354636334811362,-0.322220424947996,0.325771442937379,0.0210278735158426,0.198308116112142,0.200855425071404,15.4023055098953,0.307592309906114,1,11.5079542071425,5.54045140898802,1,0.0600682338253175,0.115245263422996,0.16069317153725,1.81309111220842,1.16020720381202,0.0411660518772844,0.147752055296959,0.161887596404892,0.504413826150909,0.001135483725323,0.005784191906764,,,,,3.0,-104.467447061392,2.15659869236321,AttemptLanding,AttemptLanding,1,0.738399119859844,0.0871002180533852,0.0548681327770586,0.956055344435483,0.328049957153381
150,1.58222778177366,2.26873755455017,-0.723666087280105,-1.38896111661082,1.58222778177366,-0.0022488630170588,-0.0118488580590947,0.0120603823394645,-0.0297600752050484,-0.0956750238171899,0.10201120699305,0.0065820100595448,0.12435495079449,0.124886521276355,15.3855141556996,0.227857839188123,0,11.797065493728,8.2516346573271,0,0.0725338321904374,0.140448960803245,0.127170959868784,1.22565582862185,0.660767878576358,0.062227479845072,0.251299422984575,0.106198420833044,0.391116761388654,0.024490534519415,0.0188793397504083,,,,,1.55740833368322,-117.762259987245,1.93273878608337,HoldLanding,HoldLanding,0,0.446904712728246,0.156675768970284,0.111755357845493,0.954064359520907,0.35280070185198
151,1.67471922684579,2.4707407951355,-0.781440896582414,-1.46754998980656,1.67471922684579,-0.0009526337673888,0.0007072141244423,0.0011864497092503,-0.034942828571956,-0.111359886985308,0.118204566662852,0.0076269390395819,0.11625500353949,0.116938256416861,15.3912100374597,0.181688275381662,0,11.5946263590797,4.08389992809827,0,0.130720172428246,0.0822800563397863,0.184611064710838,0.622011030414528,1.3011961587939,0.0480380681278765,0.251913464279312,0.23750574878159,0.352879666378917,0.0247486173084544,0.0168840419877907,,,,,1.69101625912663,-117.811995946369,1.54429637908731,HoldLanding,HoldLanding,0,0.469979445108916,0.179322368645214,0.124732458289476,0.960870052306567,0.294441889430405
152,2.65531862344003,3.0,-0.571731355184459,-2.56093723418338,2.65531862344003,-0.012610711248389,-0.0128848997326278,0.0180291619136918,-0.0260743116094759,-0.341537497485748,0.343437275155083,0.0221571056170695,0.194312657861054,0.196961928482102,15.4313663571821,0.152123538929919,0,8.67950108647611,6.62413454584078,1,0.0687431145710586,0.0685197267608638,0.185214621454111,1.05551087339486,1.29140209964736,0.0477978496497925,0.165116787386311,0.117314769525651,0.419956592979839,0.0004150895717834,0.0052845859089716,,,,,3.0,-100.730250894483,2.41097805350586,AttemptLanding,AttemptLanding,1,0.747477351947096,0.0808586560768361,0.0506213455034901,0.957661044672629,0.947860102433044
153,1.57817773873156,2.46242475509644,-0.66447693966677,-1.41252786370686,1.57817773873156,0.0067175159103394,-0.0087686356227897,0.0110459943278512,-0.0283708349379454,-0.107152312639967,0.112491266106027,0.0072530946069208,0.133509331636655,0.133815926645098,15.4851507096372,0.22814152120436,0,8.62044572760651,5.10982774194442,0,0.0828264117813577,0.0980014164332147,0.0902961751179412,0.640165534367044,0.297687311633278,0.0704068217682004,0.251063680635832,,,0.0246525463231901,0.0178479598964694,,,,,1.69086530869602,-115.481230513615,1.72748765397287,HoldLanding,HoldLanding,0,0.447610582324102,0.200980677642204,0.138035261075153,0.957427745325897,0.4
154,2.61197055451536,3.0,-0.86681130480977,-2.4232170976802,2.61197055451536,-0.0305119426392411,0.0002377749525688,0.0305128690972909,-0.0468728846081627,-0.308779060879027,0.315182574569419,0.0203525917638978,0.213456546704329,0.215284474050814,15.2892807783091,0.143665986290506,0,12.8217109090509,3.31386731952486,0,0.0359574335341729,0.0519017916429505,0.226352207803503,1.94927461819932,1.11332516681775,0.0785996854496258,0.247850790227246,0.174684416282492,0.502913858831587,0.0247824744326405,0.0159952292074169,,,,,2.8660583108225,-107.999041467264,2.13897543722783,HoldLanding,HoldLanding,0,0.739582376014259,0.0929006512352142,0.0725712708068173,0.936636873250053,0.322362481652226
155,1.57130265793075,2.22064900398254,-0.688408511916863,-1.39983978450935,1.57130265793075,0.0015186080759331,-0.0034505715822381,0.0037699621659161,-0.0269843884932787,-0.0998540017198508,0.104570143188284,0.0067471966378864,0.108305545906425,0.108835914412713,15.411391317645,0.158363083455069,0,13.1857180074752,6.90678388640819,1,0.151070517933559,0.116874017104626,0.203511119518869,0.975265552778231,0.85134918403743,0.0647277158047313,0.249766367354415,0.176048289834114,0.509519665635667,0.024912368578872,0.015735460154351,,,,,1.56021062314875,-116.350158175446,2.00539174030197,HoldLanding,HoldLanding,0,0.440781224997409,0.146794087592072,0.104870601878748,0.953284169165511,0.321756315629283
156,1.52453881801171,2.20007061958313,-0.669016149161465,-1.35861358913994,1.52453881801171,0.0032482093215386,0.0046754990041314,0.0056930795475001,-0.0250477593412739,-0.0969175970369805,0.101042802308232,0.0065221718285865,0.100581968482496,0.10133314989093,15.3416113807884,0.156085334848684,0,4.48365219592858,4.1918227318241,1,0.175123976862411,0.151806915149587,0.153752425332557,0.587403470721024,1.76811451498036,0.0222693581109024,0.0792045327934481,0.286204326090352,0.49836175397547,0.0032102673082874,0.0049757721170263,,,,,1.5486906196655,-115.323008512155,1.52375000097244,AttemptLanding,AttemptLanding,1,0.42681031478131,0.153038386603943,0.0950591891116347,0.970357679628324,0.272798077293177
157,1.67987483109672,2.32100677490234,-0.74702597842542,-1.49123171939693,1.67987483109672,0.0026881932395015,1.07572583464824e-05,0.0026882147629065,-0.0318525351627608,-0.115036826570007,0.120728939340542,0.0077861338113702,0.116519202632776,0.117173889640674,15.4147124300288,0.333287614942362,1,14.4821514799867,8.32030383884053,1,0.0327173462183902,0.0369591621681408,0.140529566992765,0.655337362593037,0.687279941558396,0.0583234392225438,0.251211372732912,0.0794631997120282,0.381324962483023,0.0244198627757845,0.0157043370917304,,,,,1.67963675962339,-116.752551926055,1.84674379422029,HoldLanding,HoldLanding,0,0.471401399553926,0.144747526729466,0.103412456415829,0.960289144427538,0.36468302235021
158,1.54446397850624,2.31822156906128,-0.621181266691948,-1.38529993787144,1.54446397850624,0.0018425965038889,-0.0055422000839369,0.0058404746079864,-0.0258711835856936,-0.0995478422190138,0.105091084794503,0.0067796919771044,0.162842948235188,0.163416774683802,15.3844061602751,0.168443757389175,0,4.22410693466332,8.18917670230341,0,0.0603843561460451,0.167475447060473,0.244639353698377,0.576886871780041,0.990677521834486,0.0555557018496326,0.251065022966461,0.222545683913369,0.378560742559703,0.0243600411088774,0.0156745357144707,,,,,1.53324749594495,-115.000864111301,1.74321888410878,HoldLanding,HoldLanding,0,0.444540415871759,0.175166211553014,0.121626243037985,0.959905571696784,0.301090807149614
159,2.52585652520425,3.0,-0.751282649425004,-2.3765452549127,2.52585652520425,0.0066589777362691,0.0053233267555054,0.0085252444092828,-0.0390581698380534,-0.296640169871462,0.301289533337179,0.0194400035321017,0.215747271399694,0.21802650170945,15.39391188269,0.168251817175509,0,6.36795978129176,9.51497205911303,1,0.0519947653976829,0.0787468336746607,0.190688494444435,1.03448605735953,1.18961850509708,0.0218542043716268,0.0775636449993734,0.225164786892915,0.373977315424675,0.0031163479541465,0.0047126213699836,,,,,2.78430276691677,-105.933145069938,1.56296794862168,AttemptLanding,AttemptLanding,1,0.717167040396358,0.108245243304078,0.068045870015799,0.971597790537742,0.299926761380926
160,1.63807964626111,2.54041647911072,-0.710532610858465,-1.45118170688626,1.63807964626111,0.0062086841331922,0.0100388742272617,0.0118036754621826,-0.0324027735882236,-0.118879832944789,0.125939396544834,0.0081252169440147,0.175689997168918,0.176301866575714,15.4315434719482,0.193192535615059,0,15.3879438621369,9.58248418242585,1,0.0350384997945448,0.172175643300151,0.12508087549678,1.08716295314305,1.18574654062917,0.0767906115523756,0.25217967774101,0.157611417096552,0.360946346961673,0.0248258644146548,0.0163406609010482,,,,,1.68229936373703,-116.284080981345,2.38549816709483,HoldLanding,HoldLanding,0,0.472081612318107,0.205189794559227,0.140089652762633,0.943746119629888,0.329950481290421
161,1.63278218965657,2.52897238731384,-0.723894967211069,-1.43514085900578,1.63278218965657,-0.0002116830207792,-0.0090574792597461,0.0090599525518634,-0.0330470926961875,-0.105972634768345,0.113978818790012,0.0073512103178484,0.172741248028227,0.173302963260822,15.4081884501325,0.198012323093516,1,15.4063651877591,5.95958089722869,0,0.0484661993887852,0.0773557810623188,0.279921867746813,0.620723602052412,0.81265882305882,0.0567217093646122,0.250600931612067,0.083030435125306,0.326353126271151,0.0239094923361084,0.0173606927027614,,,,,1.63445116181305,-117.268187683498,1.78799095213736,HoldLanding,HoldLanding,0,0.470069176560582,0.203303785774062,0.138921691667348,0.960376854834677,0.363097584388753
162,2.57706947390451,3.0,-0.669869855236748,-2.45481871939207,2.57706947390451,0.0056533399047312,0.0038745905886671,0.0068536635683563,-0.0326318138327891,-0.315048114650264,0.318183112781837,0.0205359778406103,0.204879397334025,0.207320518713387,15.3863444767442,0.283336314243858,0,9.7425936359407,3.45547323032497,0,0.152160902139219,0.0818012516976147,0.161426834537646,0.991697991546196,1.74862673810165,0.0424374335125835,0.158345538922265,0.10980595199505,0.417854748259377,0.0028143727496623,0.0051651744055779,,,,,2.89081657121031,-103.869165643979,2.27619843732836,AttemptLanding,AttemptLanding,1,0.728682630117214,0.096415873359017,0.0609786015869854,0.957250160367904,0.351197354668867
163,1.62711054787139,2.33326935768127,-0.660990791663595,-1.46786049560476,1.62711054787139,-0.0012732385477328,-0.0044350437119476,0.0046141899751006,-0.0266099228976611,-0.110060307582068,0.114757902996419,0.0074031098416235,0.134359047215819,0.134999450173453,15.3973628606679,0.172305918468446,0,5.6355322893528,4.39176881050505,1,0.104874667594183,0.0364414510491958,0.227649647653473,0.637866973151449,1.02252249898229,0.0557547698118251,0.253899948327588,0.182256175136767,0.368596805573299,0.0266470462111112,0.0164123265461346,,,,,1.64906171874729,-114.380640755355,1.75487994007199,HoldLanding,HoldLanding,0,0.460896036133728,0.159731667035993,0.113650250615027,0.959076697813037,0.31899725549477
164,2.62109357723291,3.0,-0.85498442014546,-2.44237201247505,2.62109357723291,-0.0299710494853261,-0.0044269977082289,0.0302962393039224,-0.0437167384450972,-0.31129858435287,0.31667006669301,0.0204371631279689,0.205313275248365,0.207121734925092,15.3842345665066,0.193326318297215,0,4.58727408811502,9.72393209667652,0,0.125221207508487,0.116470052731122,0.0764120756937722,1.59574325299855,0.918125316873785,0.0774938410160894,0.25428435115131,0.132055383992524,0.376419038600954,0.0245966984993535,0.0185716021697086,,,,,2.86974882840161,-107.409446170029,2.14075804478909,HoldLanding,HoldLanding,0,0.740382634247129,0.0908082556616469,0.0721701292765948,0.941501255014387,0.341308718225545
165,1.65977371471624,2.41252160072327,-0.776830931526968,-1.45387792383928,1.65977371471624,0.0067603609921002,0.0099168989859392,0.0120019734311002,-0.0347888355649355,-0.115467017251485,0.122133109171854,0.007881021286354,0.113381657084139,0.114054324841767,15.3991458055506,0.163230464422999,0,9.54843149621927,3.50613479241194,0,0.0731233133106314,0.0337189356944369,0.0524471567093859,0.610965985758517,1.54898705351879,0.0800253028868898,0.251029816930412,0.10424001654666,0.389773379356011,0.0250827624743054,0.0166184340193679,,,,,1.70066438927445,-118.076140138163,2.49944053681932,HoldLanding,HoldLanding,0,0.465417188892683,0.171568636147284,0.120132143037529,0.943016288962233,0.35367110375704
166,1.53649268062617,2.54342722892761,-0.7434583075348,-1.31939366614579,1.53649268062617,0.0067786576982814,0.0008828669146116,0.0068359091699193,-0.0338857618608568,-0.094935299763521,0.103624126972358,0.006684569056641,0.165106686607839,0.165891701605973,15.422438964439,0.271742590063279,1,11.3342930748477,9.29884704008073,0,0.14782194248349,0.0937886982388513,0.0883240876951688,0.735905701430337,1.22537676429232,0.040669811013249,0.150954513969235,0.0764869929074469,0.355956098363167,0.0021949544125969,0.0089389152053469,,,,,1.5818755043575,-117.768128957132,2.22753957949193,AttemptLanding,AttemptLanding,1,0.442909721821507,0.22781352338231,0.140914163943999,0.964255017976983,0.366005780930024
167,1.69127598375837,2.32435011863708,-0.70377107278575,-1.52514388073,1.69127598375837,0.0001816445816852,-0.0008801693593504,0.0008987173388752,-0.0285740536109697,-0.119268170238219,0.123667110908352,0.0079744489979578,0.121190625846656,0.121792726785794,15.4555047072585,0.3248908073343,1,13.0996412952375,5.45958737388843,0,0.121007254768789,0.0532548954451083,0.078847604194581,0.615324048598322,0.568600595951199,0.0575038353519368,0.287506928431841,0.0920442353258201,0.171769077393318,0.0356222098541944,0.0571618485543124,,,,,1.69973286844467,-114.60986311528,1.68356304429617,HoldLanding,HoldLanding,0,0.475365474359391,0.142606445193171,0.122182087131456,0.961945817259714,0.359091450966302
168,1.62130592585644,2.52905225753784,-0.707848481694566,-1.42830693915365,1.62130592585644,0.0031898970805065,-0.0101179487906736,0.010608879823757,-0.0326018717961197,-0.106212161085205,0.11413823573199,0.0073614318456009,0.178100770956094,0.178718745486782,15.4415176703322,0.273459293623419,0,8.21156431456192,8.23845812098105,0,0.0591379841213313,0.0540025022895823,0.223846271845867,0.949071235966749,0.620175678563159,0.0643197718542623,0.25551547015773,0.0681767410924283,0.282008096517729,0.0247824123958707,0.0183542131775123,,,,,1.60122796585367,-117.236533214506,2.00904597375442,HoldLanding,HoldLanding,0,0.468091995992408,0.206187885929337,0.141401396404155,0.955510316887277,0.369699226181143
169,2.50014926797171,3.0,-0.749792029458678,-2.34985160286353,2.50014926797171,0.0073116421995589,0.0014125384361852,0.0074468366766078,-0.0390277270872215,-0.290864592192344,0.295535020559167,0.0190720086506315,0.219744254601493,0.222010484091195,15.3740581865119,0.194240554420606,0,14.1989648728828,7.35374891724498,0,0.0500258649418765,0.174943030236234,0.089303459422838,0.983772751461124,1.42426241546914,0.024787437893042,0.0960522735447195,0.208895141385176,0.354908987518604,0.0030714901163817,0.0049585824346542,,,,,2.73453280736877,-106.252064921566,1.63107043943537,AttemptLanding,AttemptLanding,1,0.711108568277363,0.113831668097076,0.071467228461966,0.968686004741884,0.307157714939922
170,1.50730316490267,2.44837927818298,-0.643003974469508,-1.337625452184,1.50730316490267,-0.0006499990126883,-0.0027344836768861,0.0028106760211118,-0.0264517849604684,-0.093150627802294,0.099088580612012,0.0063909954859674,0.156869796255725,0.157407372604481,15.4072221234235,0.287027755635472,0,5.89087956071987,7.36437725476727,0,0.17763170764075,0.172878432775348,0.0619244753623745,0.545260277773734,0.82043536978287,0.0538434225225972,0.252263530360546,0.125205127301205,0.334530205229014,0.024510501015178,0.0177285496686016,,,,,1.52065859676889,-116.006588270425,1.70996005408102,HoldLanding,HoldLanding,0,0.433428985161608,0.212257416091941,0.144694750995948,0.962347822936471,0.34435327675502
