scenario_id,mean_wind_speed,max_wind_speed,wind_velocity_x,wind_velocity_y,wind_velocity,wind_acceleration_x,wind_acceleration_y,wind_acceleration,wind_body_force_x,wind_body_force_y,wind_body_force,mean_wind_body_risk,mean_wind_gust_risk,mean_wind_risk_raw,min_thrust_margin_n,mean_abs_roll_deg,mean_abs_pitch_deg,mean_abs_vz,max_abs_vz,mean_tag_error,max_tag_error,stability_std_z,stability_std_vz,mean_imu_ang_vel,max_imu_ang_vel,mean_imu_lin_acc,max_imu_lin_acc,wind_speed_cmd,wind_dir_cmd,hover_height_cmd,gt_safe_to_land,label,success,onto_wind_condition,onto_gust,onto_temporal_pattern,onto_drone_state,onto_tag_observation
1,2.02445879031201,2.72827291488647,-1.24392172872309,-1.5799950023434,2.02445879031201,-0.0537573865167906,0.0148813505015913,0.055779128694045,-0.083563688270341,-0.131260431977423,0.159225493981848,0.0102722111218138,0.125836457561274,0.128436575512235,15.3702162237492,1.18080779598206,0.939636824901912,0.177064396487542,0.240267305266705,0.143194844601841,0.523870737400153,0.159355819570435,0.0370293943611278,,,,,2.0716688985117,-127.374480982322,2.31472368639318,AttemptLanding,AttemptLanding,1,0.565542992518982,0.168584351623163,0.185440653985006,0.894807165449283,0.336357846843626
2,2.3644984952474,3.0,-1.42644685991409,-1.84521162013088,2.3644984952474,-0.0072705033678005,-0.0197787197161964,0.0210726830952552,-0.114959724976494,-0.183417323967202,0.226214382221391,0.0145988527876046,0.229840795715096,0.231570069779075,15.4312320432547,1.45422060235696,1.52113317996929,0.022285036501491,0.0898277522814679,0.183251857725664,0.491638536044297,0.0066418689884595,0.0089489561952776,,,,,2.42882567996652,-126.095851442396,2.28631398682331,AttemptLanding,AttemptLanding,1,0.67684694602179,0.146851163803464,0.094316805943919,0.965479702030977,0.318554729899705
3,1.77162508362083,2.50524306297302,-1.10359053771896,-1.3697946042655,1.77162508362083,-0.0534266841238803,0.0086610939443952,0.0541241639638574,-0.0681341980045128,-0.103336746654475,0.126865251947016,0.0081828245861594,0.132703530011496,0.13395278545515,15.4628477707457,0.71727976274696,1.0515351362854,0.181009236437157,0.24318794028364,0.261487199097671,0.519662975530283,0.130923898105454,0.0047170293953441,,,,,1.87319628751653,-127.297520073929,2.36307906941088,AttemptLanding,AttemptLanding,1,0.499223912723251,0.174986808747617,0.164895767823039,0.895597550431881,0.283783467067702
4,2.32686639451361,3.0,-0.634980613247401,-2.20450642187613,2.32686639451361,-0.0092812719271401,-0.0042715604990507,0.010217056214124,-0.0312992761547568,-0.263019493815264,0.266582320913821,0.0171947014842691,0.234893563832641,0.235708965313692,15.4600601211675,1.06404246110521,0.782154058039085,0.06939756171219,0.244188061148123,0.298674755860324,0.665254132598389,0.0197690069639609,0.09171537580428,,,,,2.46779887999601,-105.553838771394,1.8461786969298,HoldLanding,HoldLanding,0,0.667639498266369,0.153328188207026,0.134134183988543,0.950795389350628,0.267255664062078
5,1.69498866379261,2.68734788894653,-0.981944129265778,-1.3687505021159,1.69498866379261,-0.0403493975868216,-0.0051285128131163,0.0406740154065677,-0.0568136794102321,-0.108460560840745,0.124659976090151,0.0080391907799485,0.141188949633071,0.142261908343906,15.4644640193677,0.663946257899165,0.7799741811532,0.175959875214294,0.245582488009625,0.243016381174583,0.479416029908724,0.125404684909385,0.0050106938544402,,,,,1.88084050141636,-125.058018224367,1.66121083551101,AttemptLanding,AttemptLanding,1,0.480449358680144,0.23073772848417,0.196000123098308,0.90067497322887,0.291992719477963
6,1.88222515183007,2.64450287818909,-1.03524409905015,-1.55680904557874,1.88222515183007,0.003210915435237,0.0018267990318775,0.0036942079848206,-0.0582209960083493,-0.127393649428752,0.142534209100911,0.0092029728402588,0.131687784134103,0.132807639260494,15.3724460730322,1.97701870607443,1.89510305318583,0.0208776300747573,0.0697667862709772,0.123507876149328,0.487383832436938,0.000500788226218,0.0084688504913762,,,,,1.9161886291726,-122.783489357006,2.23119547228154,AttemptLanding,AttemptLanding,1,0.528488235006784,0.172189759894662,0.106616010478647,0.959137371139862,0.345107610600299
7,1.93101342812481,2.5663001537323,-1.07725278760087,-1.58693228038159,1.93101342812481,-0.04598631017169,0.0202469530936557,0.0502461922217353,-0.0632350064103883,-0.133587997103945,0.150604359811949,0.0097145698501882,0.13301996196916,0.135357841719393,15.4129427365956,0.881390677458536,1.00028845889998,0.175368388503192,0.240227631417614,0.150354757516657,0.46605747763088,0.155713507106616,0.0417517990555109,,,,,1.96867067391655,-123.586570068552,2.00690043261436,AttemptLanding,AttemptLanding,1,0.542008482510493,0.152151315169004,0.175679264643721,0.89753118396273,0.33317566332593
8,1.8826321999769,2.71170377731323,-1.10620952676049,-1.49797938187416,1.8826321999769,-0.0644772087884258,0.0085604151768252,0.0650429947123122,-0.0688866487221753,-0.120117666350255,0.143296817537851,0.0092436363598725,0.148481306483864,0.150891370143988,15.4071217348011,1.00359485002789,0.984712499847463,0.176778517265218,0.240227195187198,0.140754013372126,0.443980454097513,0.159035598354227,0.0353052974769846,,,,,1.96461919299708,-125.030810267647,2.40272914176294,AttemptLanding,AttemptLanding,1,0.53221352735597,0.198465653931266,0.202600170507825,0.895988326475513,0.337442660723499
9,2.6205383112598,3.0,-0.813778849224158,-2.45652099183804,2.6205383112598,0.0056595596406843,0.0013244074283097,0.0058124582030862,-0.0435678406735532,-0.314116142730626,0.319373775438418,0.0206278802888686,0.196804922891838,0.199298460382481,15.380641692573,2.03607099849789,2.21166468079543,0.0147526722477516,0.0715898959320159,0.146131926349106,0.512222113061986,0.0002225456859573,0.005778550524465,,,,,2.98365709536118,-106.900241715489,2.47838204054411,AttemptLanding,AttemptLanding,1,0.738669908412444,0.086444497303777,0.0540668986758305,0.959248597824534,0.335052477178175
10,1.89582164255565,2.57378053665161,-1.14304517721534,-1.4971546308309,1.89582164255565,-0.0523848103074614,0.0057517913600698,0.052699634294732,-0.0708587664803505,-0.119183581551514,0.141668536177917,0.0091367665058947,0.130247901249915,0.132442215387869,15.4687402699083,0.763699223382389,0.887479031056044,0.175477486355611,0.24026309198656,0.158978270115959,0.376242096508458,0.155966402243877,0.0422121702914561,,,,,1.92399487038037,-126.353098118705,2.29652404297253,AttemptLanding,AttemptLanding,1,0.532040881092413,0.162202350792293,0.181989691578639,0.899287713394464,0.329342991059574
11,1.83829939929215,2.73287296295166,-1.14297477244383,-1.40733755667941,1.83829939929215,-0.069461727163099,0.0163001842498274,0.0713486338135435,-0.0749063735642521,-0.110043004118112,0.139731412145274,0.0090120337644298,0.188409040396221,0.190511489192192,15.4418166397882,0.890218921375707,0.917672899520976,0.176287147689095,0.240286290629139,0.15107086350754,0.449649864772282,0.158099707961546,0.0363289520047662,,,,,1.90759543141243,-127.844704273722,1.5,AttemptLanding,AttemptLanding,1,0.528315470983011,0.214359634689207,0.212092845687056,0.897651561848407,0.332857393996649
12,2.62376119340941,3.0,-0.786842593800662,-2.46993032931903,2.62376119340941,0.0063184501779853,0.0047034092892083,0.0078768567076908,-0.0410744073827698,-0.317326105977155,0.321919384068151,0.0207878102179803,0.194568766151142,0.197061797116368,15.4005662353875,1.92540030376297,1.95847999956124,0.0296612405737599,0.0618340791371186,0.126806476022316,0.492927631771047,0.0179734938205031,0.0074791761970457,,,,,3.0,-106.299635778902,1.74970589403438,AttemptLanding,AttemptLanding,1,0.739082010999117,0.0860978218792922,0.0623666130386438,0.954653177329858,0.343641566212304
13,1.94512482833218,2.70373249053955,-1.02499374517137,-1.63749662399649,1.94512482833218,-0.0581829182972006,0.0086543707519554,0.0588230406787257,-0.0583384324844132,-0.142766092977015,0.156698244755561,0.0101098744603335,0.138127905220371,0.140695916025576,15.3659184003034,1.07816266645405,1.11287556808404,0.177112727356874,0.240257840908872,0.125296097758233,0.414885562691773,0.158697106926077,0.0364573107836602,,,,,2.02726066309477,-121.319262228342,1.71821189227113,AttemptLanding,AttemptLanding,1,0.54683913742703,0.181470948121092,0.192671820316687,0.894228335907335,0.344312845440785
14,2.66612282144018,3.0,-0.735602473026564,-2.52874803366085,2.66612282144018,-0.0240377954208909,-0.0036442125740343,0.0243124637579442,-0.0356032823282336,-0.331035537472605,0.334635285227303,0.0216020639438867,0.201452615511244,0.203431063468747,15.380536991145,1.61012099971451,1.56767257256328,0.0628653820765215,0.240405575072253,0.131602864376098,0.420296504032017,0.0018231450999644,0.0090181873369002,,,,,2.96211416560549,-104.652706865072,2.01783488006799,HoldLanding,HoldLanding,0,0.75165229841113,0.0795796501982494,0.0518374176798269,0.943598930893842,0.341509838055068
15,1.74614016161669,2.41025137901306,-0.933699428544426,-1.46015798272452,1.74614016161669,-0.0544717224297786,0.0056563112794789,0.0547646090258773,-0.0483088274892584,-0.113005509958256,0.125162093386731,0.0080738077825962,0.114291702061343,0.116253069261601,15.4173521737571,0.896868003899991,1.04376956239385,0.1755030949906,0.240186765623788,0.171696399995752,0.498535345791093,0.156928787711404,0.0413643626506638,,,,,1.78867162897179,-121.8764556945,2.32618264471666,AttemptLanding,AttemptLanding,1,0.488887990283438,0.159465202235594,0.180466835631515,0.897000585912391,0.323690488890777
16,1.76345638726467,2.46748733520508,-0.999099924519629,-1.43985680454185,1.76345638726467,0.004720820761722,0.0009971103380886,0.0048249743720178,-0.0540175524102436,-0.109184591778506,0.124004223601033,0.0080073991369794,0.121076667739165,0.122030231229988,15.3603584179099,1.9152301555907,2.10948211572584,0.0205957318618808,0.0637289063403079,0.136038116545503,0.516305401949544,0.0002638125065232,0.0053621056067194,,,,,1.79698325918466,-123.928221238646,2.23087674072561,AttemptLanding,AttemptLanding,1,0.49466108284991,0.159291541921461,0.0976420317400375,0.95807939479443,0.339538614868665
17,1.85402566919456,2.56839084625244,-1.01846582119832,-1.52803178161478,1.85402566919456,-0.0584929842314202,0.0144230838925705,0.0602449545876607,-0.0577427455982839,-0.124750488770578,0.140982609887127,0.0090951994010359,0.145464272810574,0.147717566488025,15.396276970394,1.01097976287095,1.08829877009067,0.177553416933037,0.240250634900695,0.166414516330721,0.417025388887638,0.15902345641086,0.0363854315400922,,,,,1.90606506718967,-122.683382350962,1.66345216391653,AttemptLanding,AttemptLanding,1,0.523950358416153,0.171777073179095,0.186974401660196,0.894728960203069,0.326037992741902
18,1.80164743989906,2.50970125198364,-1.04313970006498,-1.44562776521955,1.80164743989906,-0.067502196310044,0.012328829402041,0.0686188497506651,-0.0608245112520754,-0.112584868298137,0.132105210473842,0.0085213938069394,0.146000788268872,0.1479817525903,15.4208600670958,0.945330914823414,1.00374855238902,0.177138836409962,0.240261414124781,0.166844654079065,0.434697358297413,0.158199827003008,0.0365230650975608,,,,,1.87952489310621,-124.36494621675,1.73471960723693,AttemptLanding,AttemptLanding,1,0.510035667824476,0.17189223017332,0.186727486908482,0.896116385981207,0.325846820409304
19,2.6173475721608,3.0,-0.778089898628974,-2.46303483315543,2.6173475721608,0.0075013102659338,0.0009557168293558,0.0075619475245281,-0.04121965375568,-0.315998248584271,0.320823760082312,0.0207215551473832,0.203267247284889,0.20578743842202,15.3742541619815,2.16079785938527,2.06910552741044,0.0197641814782345,0.0608576661107589,0.148741210890173,0.483172420783746,0.0003229638227087,0.0081003389885663,,,,,3.0,-106.031594526481,2.26482986912807,AttemptLanding,AttemptLanding,1,0.739116840260618,0.0874831533099827,0.0555790092767731,0.956882954078916,0.333892795159923
20,1.90826314284995,2.60833692550659,-1.03918623553069,-1.5792044886728,1.90826314284995,-0.0670037013509606,-0.0126100683742178,0.0681799810731212,-0.0604986857349696,-0.132973944142501,0.149672263202906,0.0096555908055611,0.147400209470679,0.149764816442139,15.4144057737943,1.12233557953258,1.01605441008301,0.176318375545233,0.242188302989794,0.160005228840499,0.454871278983543,0.155059202027764,0.0413571480317535,,,,,1.95533603544456,-121.682915799118,1.84035373608756,AttemptLanding,AttemptLanding,1,0.538823134715081,0.170016264294484,0.185963922398556,0.89503917659469,0.328886564959778
21,1.97017509470115,2.74165987968445,-1.08512691562579,-1.62960884237947,1.97017509470115,-0.0494710039678442,0.0047730272438347,0.0497007245687308,-0.0643586317187778,-0.140109893671297,0.156895629925232,0.0101206036636755,0.136770811184061,0.139290851359117,15.4251813044682,0.902017426904501,1.07420412551144,0.176865250147591,0.240305438625066,0.167731354479008,0.51364509586642,0.159048835122604,0.0367878910521615,,,,,2.01006102178809,-122.843348050567,1.51645873580313,AttemptLanding,AttemptLanding,1,0.553238195525463,0.18269587612551,0.193683311768967,0.896039919871508,0.325452731342663
22,2.62241635314597,3.0,-0.738851242378105,-2.4833648234528,2.62241635314597,0.0042143496868267,0.0065761077131683,0.0078106296761559,-0.0373231383083088,-0.320764505272062,0.324599443374098,0.020955767771984,0.191570372869714,0.194153935039754,15.3426262698476,1.76286982827176,1.72453432963942,0.0303068143638233,0.0759004678827306,0.123679141732535,0.50250062248889,0.0170419899923783,0.0086957177340437,,,,,3.0,-105.373889448931,1.78595020168256,AttemptLanding,AttemptLanding,1,0.738141814513543,0.0863882693161189,0.0625692585400776,0.957445560148786,0.345031492563318
23,1.72203963116193,2.62031626701355,-0.844535045510613,-1.47250078429418,1.72203963116193,-0.0830075407012818,0.0137536983614078,0.0841392656961751,-0.0428483630184278,-0.119470279995696,0.130526986752216,0.0084208878231617,0.171552831670681,0.17330834886954,15.3746636988415,1.14302760486912,0.988259997887879,0.183004783379355,0.243942521733494,0.157870755746896,0.394167645983404,0.124499534908202,0.0047126547033586,,,,,1.75191981509009,-118.497538474994,2.16378957245457,AttemptLanding,AttemptLanding,1,0.493872238083757,0.217537775110912,0.187569484311818,0.891751777145803,0.329835219668046
24,2.62631314013264,3.0,-0.610310915231359,-2.51982663026617,2.62631314013264,-0.0180502238292825,-0.0015322778518258,0.0181151443743182,-0.0270473766929289,-0.33200456230147,0.334256298277402,0.0215619606811016,0.190263916188866,0.191734067818814,15.3709880373233,1.16280257008639,0.869517727521134,0.0675171036841808,0.249365770177705,0.246360579864204,0.698932788117965,0.0055829002754873,0.0134462536197943,,,,,3.0,-102.185830974197,2.30688579039444,HoldLanding,HoldLanding,0,0.7386969842658,0.0874006532721144,0.0598112277454307,0.950273217248136,0.290506408949242
25,1.7602899211484,2.49729108810425,-0.949069379275273,-1.46699099788373,1.7602899211484,-0.0503533205008168,0.0035437419133693,0.0504778663594901,-0.0492953454071766,-0.114485680023211,0.126948789980094,0.0081900618366624,0.120829619750245,0.122780039664698,15.3822200909379,1.04324848512693,1.04866575825664,0.176405609376742,0.240216032303292,0.124484687986702,0.502252319665451,0.155537521175346,0.0407550967113037,,,,,1.79680657025774,-122.144595008979,1.58461482014754,AttemptLanding,AttemptLanding,1,0.493966653572514,0.175079538064305,0.188995545195372,0.895360726256473,0.34467347200591
26,1.83983011548734,2.63425636291504,-1.02602336190495,-1.50447474581724,1.83983011548734,0.0079216551011915,0.0036847492902298,0.0087367040051774,-0.0587473437444057,-0.119688405446547,0.137069985088414,0.0088504090342309,0.147392898913943,0.148506409200953,15.3889584725577,1.98157260761512,1.87744138875679,0.0295939643807063,0.0637138796886349,0.12678311909969,0.525434013693492,0.0157505949822569,0.0076091214905963,,,,,1.89015622586425,-123.159855511628,1.80193244952478,AttemptLanding,AttemptLanding,1,0.520322645970149,0.180347634738847,0.117975798549175,0.954882193552439,0.343651947066804
27,1.74151610288044,2.52724075317383,-0.834915862425121,-1.50941062513426,1.74151610288044,-0.0580973601361586,0.0079096090321113,0.0586333110938771,-0.0399224097275806,-0.121807473118011,0.130416018212153,0.0084122665395383,0.13888688748808,0.140949820712082,15.4126755851067,1.00409918434673,0.874570238556249,0.177028380298718,0.240217167786891,0.141458501661987,0.3948172746425,0.154868884415389,0.0411952563473152,,,,,1.77620387229689,-117.832865156267,2.44088673822708,AttemptLanding,AttemptLanding,1,0.492594258243867,0.187537486683223,0.196333200522868,0.896724835813546,0.337129554816895
28,1.72136838130049,2.90522408485413,-0.974789782876539,-1.39940932831768,1.72136838130049,-0.0586546710930213,0.0094010830213999,0.0594032894965065,-0.0531849365536602,-0.105868574177843,0.121604853437709,0.0078428392591635,0.137852906301345,0.139662498662724,15.470801031406,0.887702551208241,0.742685519674505,0.176824238127932,0.240239971605332,0.126299959530925,0.417153225089093,0.1589122081402,0.0360598969123568,,,,,1.77693740749085,-123.63065316624,1.54509246983193,AttemptLanding,AttemptLanding,1,0.486964068079342,0.277258136373928,0.250095219672979,0.898777688950527,0.343866684652922
29,2.62388617617629,3.0,-0.51962719336575,-2.5377200734674,2.62388617617629,0.005963703093828,0.0059310626249044,0.0084109011676438,-0.0232904435843113,-0.334858030604386,0.336485650729524,0.0217240829326941,0.199048163194034,0.201707602581746,15.4018126663153,1.85589351326741,1.66849966072682,0.0299340967412362,0.054152394134492,0.12277582973343,0.425315575470033,0.0239646474398337,0.0064791127692953,,,,,3.0,-100.208461528465,1.6337443717598,AttemptLanding,AttemptLanding,1,0.740044500830028,0.0861676089077351,0.0647075607693614,0.95734129097657,0.34543296456292
30,1.84713147459803,2.90477132797241,-0.943648374691074,-1.55676934317901,1.84713147459803,-0.0796432400159739,-0.0022076431762094,0.0796738311406919,-0.0536092353264328,-0.133557943207089,0.148700705121379,0.0095900496548974,0.189380765185056,0.191663871973419,15.4604963316687,0.957873265252744,0.646392084614321,0.176691584157433,0.240308353275834,0.158046492665086,0.378343519375373,0.159384591710407,0.037608522876114,,,,,1.90894849737311,-119.745808657761,1.72939496012538,AttemptLanding,AttemptLanding,1,0.530901167620826,0.252575836051695,0.236058924447159,0.899049265886614,0.329757114371073
31,1.90190396840508,2.74997401237488,-0.956060498548074,-1.63048483691164,1.90190396840508,-0.0566478205752393,-0.0027863811007938,0.0567163071396874,-0.0506893768226881,-0.140354414269269,0.151224909939839,0.0097555672600842,0.122433807044967,0.124879307686125,15.4206608070993,0.987973804909781,1.04732907735795,0.176022622787255,0.240242893337618,0.179674742515984,0.489707872700503,0.155304546018544,0.040961739968923,,,,,1.95935225919259,-119.13516242978,2.34337412075192,AttemptLanding,AttemptLanding,1,0.532150253111913,0.201213749535481,0.204647670566714,0.89599702310284,0.320144558881785
32,2.61821321978617,3.0,-0.6441311600313,-2.50196703310046,2.61821321978617,0.0079868288167918,0.0046429746816004,0.0092383249803587,-0.03144788739867,-0.326785008451131,0.329642950427017,0.0212829034399245,0.200036939677182,0.202606802272062,15.4090838032049,1.81439682988548,1.82831557409075,0.0312396008331742,0.0551774819161567,0.122047192830811,0.434921250453161,0.0234678697514709,0.0063607845767507,,,,,3.0,-103.01941117063,1.57416379816571,AttemptLanding,AttemptLanding,1,0.738711552397391,0.0875957184611778,0.0653006079840577,0.955758887837885,0.345756803186306
33,1.87166419464189,2.82962274551392,-0.821933173304894,-1.66988296757995,1.87166419464189,-0.0497968766713458,-0.0024781920089829,0.049858503405684,-0.0379169277071733,-0.147379658174301,0.153403769012409,0.0098947685840278,0.121841851505,0.124419336489289,15.3998146835259,0.943580380252593,0.881936851668933,0.176198088367803,0.240229295382885,0.145470662723776,0.472684747734647,0.158870771545581,0.0379393501594531,,,,,1.93692079365451,-115.089103932968,1.66292772647919,AttemptLanding,AttemptLanding,1,0.523994319202361,0.224681399570582,0.219214198871095,0.897557606136715,0.335346372122766
34,2.64176978871475,3.0,-0.585145200568833,-2.54207710179001,2.64176978871475,-0.0247572804552789,0.004059125058853,0.0250878343382753,-0.0262622824932015,-0.340718359401093,0.342776131431651,0.0221275418322942,0.200423522217191,0.202498186959739,15.4087294651518,1.71555171040194,1.54058225272382,0.0628228294290342,0.24028743693726,0.125357575639274,0.471799081984316,0.0019124766454482,0.0082775312905209,,,,,3.0,-101.157933097739,2.09922805192492,HoldLanding,HoldLanding,0,0.744971581049215,0.0852012338345311,0.0549807412992892,0.943004675575209,0.344285521938101
35,1.79681686050183,2.76169347763062,-0.793777234969974,-1.58707201027998,1.79681686050183,-0.0785990480428009,-0.0228298548787961,0.0818474961560915,-0.0390362564249455,-0.137093211077959,0.145145595406983,0.0093632006279336,0.174859621394049,0.177150502328884,15.3931551015838,1.01451868782833,0.984766818937145,0.177372798126904,0.240225414425708,0.171469571712609,0.419177435877485,0.158509732057982,0.0343168803023569,,,,,1.86137587595629,-115.841095627455,1.92031188310479,AttemptLanding,AttemptLanding,1,0.514581263266265,0.23210261314926,0.222189203257597,0.895604929097676,0.323791301461063
36,1.96521217607734,2.70777940750122,-0.884195506600248,-1.73413093580603,1.96521217607734,0.0035611835767581,0.0025946507058862,0.0044061594107485,-0.0451005331199875,-0.159378937188704,0.168065751880662,0.0108487072395587,0.158946371639042,0.160232126116398,15.3849918238059,1.72867786175447,1.65823102272823,0.0287156526234965,0.0559617097540493,0.120555225664388,0.428844006885532,0.0113811566516123,0.0047721498008394,,,,,2.00134863438598,-116.022448666907,1.87367702884659,AttemptLanding,AttemptLanding,1,0.556103005510571,0.167885422962343,0.107524872822872,0.959030746738745,0.346419899704716
37,1.78504804236777,2.82686376571655,-0.811612644712093,-1.55945615870856,1.78504804236777,-0.0888378443991813,-0.0059802469471083,0.0890389013355486,-0.0408491704638498,-0.13341903964825,0.142965626755819,0.0092207063113871,0.179176860428185,0.181347521726819,15.397114905763,0.881941055706294,0.89212902186996,0.176914207369763,0.240244233898014,0.116171659975149,0.432395197888431,0.157570180218419,0.0371354316265365,,,,,1.84847057739295,-116.145839673518,1.5,AttemptLanding,AttemptLanding,1,0.512282315643436,0.25073233633166,0.233974386325923,0.89760377427702,0.348368151122156
38,1.95365219468238,2.91081476211548,-0.77839778193383,-1.76802058821896,1.95365219468238,-0.0772777928694626,0.0009358823459295,0.0772834597216053,-0.0365448446373313,-0.166672895963297,0.172706092115092,0.0111434044645188,0.160019036205211,0.162638221674833,15.3609231680063,1.23456567962461,1.04705448487926,0.176396064161529,0.240280347471211,0.176158425186652,0.42894458575736,0.155097952532202,0.0406145230772976,,,,,1.9993932608471,-112.620106358339,2.35962695518117,AttemptLanding,AttemptLanding,1,0.553501562916936,0.229530211954741,0.221419468003143,0.893874952340991,0.32170736658371
39,2.61663328963379,3.0,-0.627021246633675,-2.50852754958282,2.61663328963379,0.0092315172776445,0.0062599702384003,0.0111538396363364,-0.0293103055442447,-0.327665002064175,0.330133109271672,0.0213161818603987,0.197747350090925,0.200334625114243,15.3884305026778,1.88157253368251,1.79128599353935,0.0252472941049043,0.0699857071574712,0.127546283065824,0.480885978607565,0.0049948880246155,0.0054680105365781,,,,,2.9987372183553,-102.731971335258,2.03654091920264,AttemptLanding,AttemptLanding,1,0.737835802258525,0.0883023804323931,0.057189745960445,0.95851817880509,0.343312763081856
40,1.88159773653786,2.85170602798462,-0.299659795935751,-1.83157211533176,1.88159773653786,-0.0815617180131998,-0.0311176143014747,0.0872961612276282,-0.0102699916438353,-0.183613166234682,0.184252197354574,0.0118877404724027,0.199153937918557,0.20217327813545,15.3673546593951,1.16943054055241,0.928424408491396,0.1761756964863,0.240288507646492,0.170457045385478,0.468128551269917,0.155489036607213,0.0400211892566693,,,,,1.96262077332345,-97.9255988407311,1.5,AttemptLanding,AttemptLanding,1,0.542194052037185,0.234278661800587,0.224226595302145,0.895429005728649,0.32424131316201
41,1.90653486106847,2.67996668815613,-0.244000412644912,-1.87855442630219,1.90653486106847,-0.0455209951731749,-0.011155058214847,0.0468678602598075,-0.0055122429019133,-0.18562430463275,0.185798438891055,0.0119844295034017,0.125211498235216,0.128311420764619,15.4656702008105,0.992186094850288,0.691237225556401,0.176238121805396,0.240243298174304,0.163392828246938,0.426151358414908,0.158430781950133,0.0354606971450973,,,,,1.94919332297993,-97.076725643542,2.25168374791066,AttemptLanding,AttemptLanding,1,0.534071580437849,0.182614602142355,0.192877241113992,0.898654041579821,0.327380965223583
42,2.6099899469012,3.0,-0.622912500944831,-2.50127982908584,2.6099899469012,0.0082289249125327,0.0018393466680638,0.0084319867991725,-0.0293972614948029,-0.325951404406249,0.328455624646288,0.021210928224331,0.199923555562989,0.2025064736478,15.4164676781038,2.18399863897684,1.81793398523693,0.0264370830938798,0.0525739350258247,0.139965396894735,0.434952342977206,0.0090109227890475,0.0075705351312979,,,,,2.97766096785849,-102.83550377438,1.96825155577264,AttemptLanding,AttemptLanding,1,0.736498613903213,0.0892981261937449,0.0603366521550835,0.955337702119952,0.337793156935674
43,1.81670104933752,2.89877843856812,-0.262475185412915,-1.77346758033414,1.81670104933752,-0.0672243043109102,-0.0155073126950747,0.0689897371868359,-0.0082614750801532,-0.171324659402161,0.171768813744358,0.0110791898684944,0.186700378052208,0.18949188463047,15.4234041295832,1.05917465885262,0.737295975833251,0.176582164773825,0.240297807117793,0.155435820440036,0.398570395049701,0.159539898554084,0.0373382805902415,,,,,1.87761184680711,-96.9149867627548,2.18758549266088,AttemptLanding,AttemptLanding,1,0.522351990082765,0.256115531061138,0.238153496794545,0.897593791197699,0.330917413137762
44,2.53900501902511,3.0,-0.653190679057129,-2.4113439679964,2.53900501902511,-0.0415627189632921,-0.0091407648619474,0.0425560006330837,-0.0272584194070011,-0.303825837232611,0.306278032910978,0.0197693159546826,0.222626824380666,0.224360539417882,15.4026199589549,1.64127452666232,1.42127951475051,0.0637272011238613,0.240280881003888,0.124636905383927,0.484326458964137,0.0018369845982886,0.0106727753362796,,,,,2.70268226585959,-102.84402520654,1.5,HoldLanding,HoldLanding,0,0.721940112956938,0.11152580416875,0.071612929313682,0.944073474826969,0.344605819829366
45,1.68703057757906,2.43783068656921,-0.221749368745476,-1.66143477064063,1.68703057757906,-0.0402061402528011,-0.015429431465516,0.0430650794655829,-0.0045490596519435,-0.14716572335071,0.147312375891187,0.009501663627614,0.127130049130903,0.129561188244936,15.4481720267541,0.964044093186401,0.612467655160431,0.175984499487515,0.240209158686584,0.162058760583981,0.477171282307389,0.158908322837964,0.0380188734456221,,,,,1.74484723470437,-96.8322370152764,1.71296103435742,AttemptLanding,AttemptLanding,1,0.475787058336737,0.176825289091475,0.190546139605519,0.899620872233518,0.327973884184897
46,1.68633321854582,2.3410906791687,-0.215023515670242,-1.66101692802612,1.68633321854582,0.0019906846496243,0.0030367431606657,0.0036310651878064,-0.0044892286995145,-0.144595203126015,0.144749847326746,0.0093493049922176,0.118563912248452,0.119717626878571,15.4028256006703,2.17719040091794,1.81074275728647,0.0296102932410583,0.0502839341063231,0.143283339333776,0.37721038818533,0.0198898271180311,0.0054788384329116,,,,,1.71876069037497,-96.5690723186371,1.76350897172202,AttemptLanding,AttemptLanding,1,0.473632383654599,0.14798612392458,0.0996239024030125,0.953861092850722,0.336318515851655
47,1.73672771453857,2.57466435432434,-0.145186360671957,-1.71763593414032,1.73672771453857,-0.0308808508205109,-0.0288066739450505,0.0422309295561334,-0.00319236625009,-0.162255596432115,0.162342397672868,0.0104697496413272,0.137993019152665,0.139968081742515,15.4773888826442,0.716230262258754,0.746195915217603,0.175190110009115,0.241369813591162,0.240179852062899,0.502213248377219,0.147230905964219,0.0048085136438074,,,,,1.8330973949862,-93.5355183886098,2.39318649920388,AttemptLanding,AttemptLanding,1,0.491121006892123,0.196278081037089,0.184951357244503,0.900914453600985,0.293253399083156
48,1.67413842518058,2.54999208450317,-0.210020518819928,-1.64955035474054,1.67413842518058,-0.0542593458599,-0.0193714529640306,0.0576136251513641,-0.0043634707725938,-0.146747500557425,0.146886434198448,0.0094719811477075,0.125122736977688,0.127591644686715,15.4830905848538,0.745258250621549,0.450161059648633,0.174908165842187,0.240188742297026,0.131332054881454,0.38660710358286,0.156108526381707,0.0412982661776652,,,,,1.76093856199151,-95.8152911333806,1.74701681242081,AttemptLanding,AttemptLanding,1,0.47195524231883,0.207629571292001,0.208976861393292,0.903153336783927,0.341630197830465
49,2.61545260720605,3.0,-0.665419556099823,-2.49686347050483,2.61545260720605,0.0084328513486619,0.0050953701285563,0.0098527041270715,-0.0320345784493351,-0.324879346642691,0.3278076711748,0.0211661177596029,0.197906775550044,0.200436483113351,15.3919352169771,1.97185004417279,1.88109345129582,0.0300142627880778,0.0698461258435458,0.127805175813192,0.485312302425455,0.0223786409392118,0.0059999461889701,,,,,3.0,-103.690253195533,1.6703890267347,AttemptLanding,AttemptLanding,1,0.73754132521095,0.0883294924686018,0.0651255567349817,0.954719741141565,0.343197699638581
50,1.69634685403592,2.40204930305481,-0.16045563080991,-1.67674881096343,1.69634685403592,-0.0458212246133891,-0.0262053003043701,0.0527854372825771,-0.0029902642952332,-0.149477292620704,0.149557155119925,0.0096478663581546,0.120166785339485,0.122647244918277,15.4163854059305,1.02273786975921,0.835634446766099,0.176699602582364,0.240189312430677,0.14063516158692,0.44603141443846,0.158643994239267,0.0356033555019245,,,,,1.72627812567413,-94.411640590645,1.55806772822324,AttemptLanding,AttemptLanding,1,0.4768886100599,0.168460381197723,0.184531345330725,0.897048701936119,0.337495483739147
51,1.59378428797464,2.41408562660217,-0.123102657446439,-1.57860909988744,1.59378428797464,-0.0337398015797273,-0.0145348299138478,0.0367373854712588,-0.0020372209396098,-0.131792792601377,0.13184544112317,0.0085074575207297,0.116647544783378,0.118879115279524,15.3711882507922,1.18408432331264,0.960011831591667,0.177108072526149,0.240176406833149,0.150931509165166,0.483766209242128,0.157758769186109,0.033940152211323,,,,,1.64198518080473,-93.7945426045898,1.86207396676374,AttemptLanding,AttemptLanding,1,0.448784966515809,0.191302988527592,0.197238675175105,0.894599493948391,0.332919329259926
52,2.62628192885664,3.0,-0.638566961847799,-2.51722218475264,2.62628192885664,0.0043495416095075,0.0040445911519538,0.0059394637636154,-0.0297068003432406,-0.329896791058723,0.332408749902856,0.0214691296675457,0.19251989947419,0.195103526789034,15.3800657812592,2.21330298226893,1.9606831357592,0.0262664976517294,0.0507781623695242,0.141699189912838,0.427693155631821,0.0101030288218542,0.0094325833247201,,,,,3.0,-102.899260755177,1.97887393757085,AttemptLanding,AttemptLanding,1,0.73936255305291,0.085175467697253,0.0590255459501853,0.954071145961057,0.337022582260961
53,1.72168457830274,2.54152345657349,-0.156051543441107,-1.69845714108072,1.72168457830274,-0.0504873733949824,-0.0242147969254555,0.0559940288108065,-0.0035893273567294,-0.153972316616036,0.154099910110545,0.0099405410529827,0.142062823608167,0.144625679365953,15.42872099704,0.959153353121781,0.804257493157592,0.176533462642165,0.240243183989146,0.174744164703102,0.443915194215972,0.158805867308072,0.0366531924083152,,,,,1.76767167051157,-93.7767495596924,2.46646377155333,AttemptLanding,AttemptLanding,1,0.488041023420589,0.194729319559565,0.200746410809017,0.897877897743865,0.322335926798621
54,2.67876635560734,3.0,-0.5851613175978,-2.57853040925165,2.67876635560734,-0.0301862973035602,-0.0102042853796559,0.0318643999630997,-0.0254913991528115,-0.340399822070795,0.342411130317558,0.0221013890129814,0.203380845183223,0.20537968372696,15.3991580890069,1.66349669353826,1.40225824431812,0.0629306971291041,0.240237322403218,0.133409014189209,0.414611513579885,0.0018229171247929,0.008003311156063,,,,,3.0,-101.106544404973,1.76008107085417,HoldLanding,HoldLanding,0,0.755413631574016,0.0781193766482498,0.0505921063435878,0.944446576923719,0.340707104804796
55,1.6460880496212,2.39477252960205,-0.153279614545125,-1.62289864796428,1.6460880496212,-0.0498132142070821,-0.0269978520508395,0.0566589827388356,-0.0035391743865944,-0.140980789751526,0.141112755614989,0.009101378407514,0.132294855730322,0.134601839575452,15.4382761786015,1.02770050316785,0.441415662650095,0.175722361310539,0.24017305781792,0.149294767811621,0.35395198855194,0.157910507570884,0.034854323983491,,,,,1.6954412846166,-94.4207914550518,2.47195850280091,AttemptLanding,AttemptLanding,1,0.465877181147409,0.178841488164479,0.190161640338329,0.900595763756161,0.333646769861502
56,1.68237254232866,2.35936498641968,-0.0858960478575062,-1.66840392308193,1.68237254232866,0.0016439851967252,0.0035193994251876,0.0038844381371136,-0.0015517194933896,-0.146002945463908,0.14605123471381,0.0094294395491711,0.121612773767715,0.122871161727933,15.4163164741365,1.99444540096588,1.81362009929606,0.021275767217273,0.0651741837250256,0.12743435389833,0.453337636259139,0.0006417170054196,0.0090724325221076,,,,,1.73280982852964,-92.1431804697514,2.19676997225743,AttemptLanding,AttemptLanding,1,0.473206910299896,0.153035446912283,0.0954055420770098,0.959441601746448,0.34336250937852
57,1.56936421789028,2.38287234306335,-0.19324660547114,-1.53573413028541,1.56936421789028,-0.0577475990757058,-0.0272368534849276,0.0638485034027256,-0.0052122420864011,-0.128545841342374,0.12883652954494,0.0083105485904285,0.164534003084216,0.166566655639157,15.4244295356438,0.966653652791682,0.810173341492888,0.175983236787732,0.240196961636178,0.10883927100026,0.411329325860759,0.157103429980296,0.0413520027233783,,,,,1.65239533729994,-95.8334835366937,1.50783425566987,AttemptLanding,AttemptLanding,1,0.451810455898571,0.194744887121109,0.201707770829985,0.898047598079612,0.351626990666551
58,1.64805942129444,2.35362434387207,-0.091605480338445,-1.63486745538987,1.64805942129444,-0.0356310194883901,-0.0249803486751758,0.043515369350557,-0.0015685526458203,-0.14110554851025,0.141145597621539,0.0091033843793285,0.10633467173131,0.108638564342683,15.4726073978554,0.854600636793284,0.661337285962418,0.176706350945054,0.240210422531212,0.157061731832501,0.412801840751306,0.158554067694002,0.0362645559568608,,,,,1.68060545220575,-92.4282145747537,2.08791230758251,AttemptLanding,AttemptLanding,1,0.461210225213722,0.166729925294235,0.183693540964249,0.899735883705821,0.330194785852222
59,2.53242217059119,3.0,-0.523672125943952,-2.44617818036797,2.53242217059119,0.0025569353999278,0.0038127766883837,0.0045907716905643,-0.0231268518574985,-0.313450368424111,0.315197280816759,0.020359393565515,0.20598073314867,0.20840752097003,15.3711814643201,2.15844565574177,2.0664378451015,0.0291805919055501,0.0595752336387829,0.146870464244919,0.452239774590961,0.0213003932063319,0.0074885768231497,,,,,2.78982386220964,-100.41262924442,1.61503516046471,AttemptLanding,AttemptLanding,1,0.716994083018325,0.106046653093585,0.0758179521259689,0.952214190826314,0.334724238113369
60,1.66468084261224,2.25411701202393,-0.0808970811885414,-1.6525300711438,1.66468084261224,-0.0351960046169623,-0.018898972215919,0.0399490912514329,-0.0012945413792285,-0.144027609384035,0.14406054593399,0.0092945281977927,0.114714721190408,0.117111521754214,15.3521601263299,1.21493929916239,0.819698083091577,0.176880799492133,0.24018181641635,0.148895576272507,0.413408133725851,0.159626583943056,0.0346938355946855,,,,,1.72864210057146,-91.9462754292346,1.67357655309435,AttemptLanding,AttemptLanding,1,0.467337195714107,0.139947138180392,0.16752937154362,0.895573163679081,0.33382418832333
61,1.61025421401939,2.42755722999573,-0.204547704044068,-1.5808367347449,1.61025421401939,-0.0524664933555195,-0.0220285831961797,0.0569033514184866,-0.004989237093577,-0.133147004631436,0.133369951631098,0.0086035044482863,0.13339712988442,0.135584409915587,15.421792048221,1.03367487538155,0.767044270708793,0.176069948696432,0.240183843865908,0.167118571268583,0.386088036216132,0.156782383304812,0.0417866806832081,,,,,1.6541677253945,-95.777639022521,1.63220937534786,AttemptLanding,AttemptLanding,1,0.456518005721621,0.194325459688065,0.201471491671498,0.89781651807536,0.325725079436186
62,2.60689627844215,3.0,-0.539037883841695,-2.51626249432926,2.60689627844215,0.0063600672066257,0.0060441517739913,0.0087739515350746,-0.02461627949528,-0.329930410984625,0.331810637366176,0.0214251166927304,0.200573747029099,0.203207055792259,15.3999796109086,1.94795820221702,1.88265456848731,0.0175916415577925,0.0602175896007309,0.128957323682897,0.428780559960666,0.0002793247043378,0.0052377249249515,,,,,2.96888331606625,-100.576107342626,2.33425692754065,AttemptLanding,AttemptLanding,1,0.735813752076359,0.0900568951319461,0.0560629086376436,0.961106507451284,0.342685633918712
63,1.57705725850286,2.19929671287537,-0.0921788131900701,-1.56382500011004,1.57705725850286,-0.0352518298784313,-0.0189151807648921,0.0400059442226578,-0.0016475478572722,-0.129214072375484,0.129257783344862,0.0083381350955042,0.108671560518564,0.110848180113703,15.3952604653071,1.02144368829671,0.808196185482656,0.176481860019332,0.240182940742691,0.154004051039805,0.446676349838709,0.155552848965526,0.0426831427758302,,,,,1.60300708299886,-92.1234906695166,1.5100503615556,AttemptLanding,AttemptLanding,1,0.442718238290169,0.147338300341302,0.173058722572589,0.897383328124925,0.33155375509342
64,2.66714104895408,3.0,-0.627021789751935,-2.55935806505264,2.66714104895408,-0.025934900428713,-0.0060612150894069,0.0266337640713309,-0.0282660161546578,-0.337839185304276,0.340189253011051,0.0219566585838539,0.200967356756252,0.202969389686234,15.3964762741867,1.68465656954551,1.37480014645234,0.0627981062330924,0.240474000465167,0.121152787906384,0.357601594076152,0.0019127651616715,0.0096952331751262,,,,,3.0,-102.201792877698,2.03244774608979,HoldLanding,HoldLanding,0,0.751831490991669,0.0797761207317419,0.0522413296250865,0.944562358400613,0.346154316486052
65,1.5239910851389,2.1400671005249,-0.138297129184239,-1.50215251678598,1.5239910851389,-0.0574465930036314,-0.0183429508573059,0.0603040205448891,-0.0030264802441818,-0.119907358133651,0.120024941191969,0.0077410601978029,0.13138912428525,0.133302869379417,15.4496260453254,0.756903108499736,0.73302210573652,0.175299498389246,0.240151986525501,0.132004624080253,0.453649241635182,0.157531065468123,0.0394676440357262,,,,,1.55228808798252,-94.2268777224065,2.4359569464904,AttemptLanding,AttemptLanding,1,0.433058196579589,0.149672840561748,0.174169381770216,0.900643695550663,0.341331278186554
66,1.58666556834377,2.26817965507507,-0.123928428622246,-1.56551646811933,1.58666556834377,0.0050966476677205,0.0058826789303619,0.007783426549188,-0.0027091343515747,-0.129096900029053,0.129202539712895,0.0083437742820654,0.129195763700879,0.130278167763737,15.4100334352365,1.99503967531535,1.88598963226891,0.0137116960598721,0.0500505072495751,0.136108414675008,0.364669953762784,0.000211542338461,0.0057140646938426,,,,,1.60696450398557,-93.5145725727472,2.48131440000934,AttemptLanding,AttemptLanding,1,0.449166451777753,0.154767631048561,0.095032439153082,0.962650350267616,0.339507371255552
67,1.67733105936566,2.34975838661194,-0.107168227048813,-1.66304522314774,1.67733105936566,-0.0394326088772127,-0.0169343258391054,0.042915056035012,-0.0019804817093869,-0.146014287655744,0.146066498215392,0.0094198384243095,0.110390647742978,0.112834788469329,15.4634109313537,0.810527564861603,0.562356567146308,0.176774908104062,0.240190161793563,0.120862779529001,0.37157491547016,0.158332289682681,0.0345158555476058,,,,,1.70472744872138,-93.0615211949791,1.93640309091332,AttemptLanding,AttemptLanding,1,0.469855240191375,0.159163908903498,0.178419472066864,0.900825599196479,0.346283209098222
68,1.61865881246489,2.33784866333008,-0.142074566994679,-1.60143534518583,1.61865881246489,-0.0408729384067147,-0.0222186469156388,0.0465216655415616,-0.0026011867282251,-0.135270751528283,0.13534145646366,0.0087301526719068,0.102887428651997,0.105161054102042,15.4202833928857,1.00333141148994,0.648255289050134,0.177158754453284,0.240174096127199,0.137375206760413,0.367845994358753,0.15946092537032,0.0346567102819899,,,,,1.6346567991892,-94.1375227104005,1.81209743375887,AttemptLanding,AttemptLanding,1,0.452674560811047,0.170346688460619,0.185681975565722,0.898443870126258,0.338944352550927
69,2.60241264682948,3.0,-0.396360080788398,-2.53569711393235,2.60241264682948,0.0082860152074642,0.0061012777178269,0.0102899775416849,-0.0174374611270648,-0.334901459447918,0.335934217000091,0.0216877210240221,0.206495075836179,0.209129343545172,15.4225819289181,1.88107379458774,1.73565106828368,0.0295443098262433,0.0514407723270512,0.118323707749854,0.427080312724613,0.0219560902622971,0.0056178286527308,,,,,2.97762147861884,-97.4745863886534,1.66446862335035,AttemptLanding,AttemptLanding,1,0.73580257453023,0.0913436503460084,0.0666072993292149,0.956810721164317,0.34741168544451
70,1.67693481989355,2.48286652565002,-0.0832501356595994,-1.66404196172378,1.67693481989355,-0.037859893134179,-0.0193869375693825,0.042534983912664,-0.0014482286529829,-0.146636279384792,0.146678730812452,0.0094626066202765,0.113950835924444,0.116415702931861,15.4167951449754,1.08190792992949,0.792306376259631,0.177982887580682,0.240201923067379,0.175919186762019,0.417450732374841,0.146770226176258,0.0264397874094573,,,,,1.74106956136438,-91.9626622500687,1.9577345413,AttemptLanding,AttemptLanding,1,0.470465759224652,0.189132714179195,0.188325308290303,0.89628258666103,0.321813694772436
71,1.47467852460927,2.34384322166443,-0.197356132727472,-1.44692635402361,1.47467852460927,-0.0321262236963712,-0.0228257046596561,0.0394094790906848,-0.0046782723415109,-0.123911390741494,0.124111858693337,0.008003948236681,0.143636807024522,0.144490686137827,15.4742121140342,0.671478244353013,0.685593309458138,0.159602381629965,0.246350659184609,0.243778588906688,0.504622146622282,0.142497138180418,0.005326122984638,,,,,1.67774962146967,-95.9395937551425,1.95408818430385,AttemptLanding,AttemptLanding,1,0.422145743790037,0.202787128004036,0.186941110210355,0.909536104119358,0.291653960485916
72,2.56207710763682,3.0,-0.603447589274376,-2.45608241992131,2.56207710763682,0.0078993334473443,0.0052144459592968,0.0094651949570391,-0.0287354188553904,-0.321733401705333,0.324186969990353,0.0209265253845837,0.206081457858633,0.208544169271327,15.4390531759223,1.69605026764154,1.57145284680979,0.0233859552099945,0.0481571839154864,0.11440252545051,0.32439557798867,0.0015605463904158,0.0095607136130446,,,,,3.0,-102.28205700878,2.10618450397889,AttemptLanding,AttemptLanding,1,0.724929395890752,0.100267936523838,0.0643309612198374,0.962633783638599,0.349154433133106
73,1.65826512228798,2.5862295627594,-0.17442452187252,-1.63105121866909,1.65826512228798,-0.0590596397505655,-0.038490839448422,0.0704952889838092,-0.0043910997520479,-0.142599026170157,0.142779977696362,0.009208914948476,0.137379976998705,0.139695885481214,15.4368390744124,0.926494293416801,0.708970968117331,0.176345351646031,0.240187769341866,0.147977885590401,0.449631599819666,0.157985607157491,0.03553067075955,,,,,1.730743683828,-94.7490683234343,1.51141688746541,AttemptLanding,AttemptLanding,1,0.470143209706371,0.221716135419767,0.216165750567753,0.898977239979216,0.334232050848711
74,2.62459833468866,3.0,-0.537930452839578,-2.5358705525145,2.62459833468866,-0.0095658477377172,0.0032705981411921,0.0101095131011517,-0.0254737677868874,-0.332795136420215,0.334784575354755,0.0216116038175646,0.20322926427824,0.205172693292027,15.4021591750526,1.66992147188516,1.46596285942881,0.0631214576987699,0.240465962774458,0.132929928663386,0.449393196438416,0.0019037636714353,0.0090219462459749,,,,,3.0,-101.440236798872,2.49915609188716,HoldLanding,HoldLanding,0,0.740927427908714,0.0863187854302628,0.0559180961712714,0.943800179976005,0.340920031705162
75,1.67823233153369,2.36892819404602,-0.182734268931743,-1.65178978372323,1.67823233153369,-0.0471458531233802,-0.0123182484582445,0.0487285410392142,-0.0043157071394562,-0.145157726890415,0.145319548666156,0.0093743162451455,0.141665956070811,0.143967397383266,15.4439062414824,1.07397259312388,0.748986421459898,0.176858333956052,0.240232093173209,0.167706033889887,0.410094416602483,0.158266007694684,0.0354233290353957,,,,,1.72844746755899,-95.0560971705178,2.29562016083255,AttemptLanding,AttemptLanding,1,0.476322101218971,0.164340134922464,0.181825739376108,0.897247583621673,0.325463984937828
76,1.76421638994313,2.60093760490417,-0.21839870969324,-1.73922705479514,1.76421638994313,0.002732885671967,-0.0006714875681781,0.0028141712190733,-0.0045767860341349,-0.158865795513543,0.159011012551872,0.0102663468267777,0.131299541393565,0.132513653970106,15.4144745696651,1.8630720625862,1.73780433461366,0.0274357803816563,0.0584576747197582,0.123754720376864,0.470437644810279,0.0098361557085757,0.0050268899981329,,,,,1.80133462105751,-96.2777836497926,1.91578997437933,AttemptLanding,AttemptLanding,1,0.496960434778855,0.188778204756399,0.119466507612528,0.957989509545459,0.344997902054727
77,1.69472244945732,2.27525448799133,-0.13818011296446,-1.67714104979339,1.69472244945732,-0.0476765176303124,-0.0142810722641622,0.0497694621064736,-0.0027694587817046,-0.147429031218041,0.147508647276187,0.0095155755120078,0.109519483818617,0.111984358449959,15.4213558423624,1.07252578399438,0.753149891926805,0.176915794964805,0.240185683926183,0.125240193833539,0.396191209718437,0.158264467080682,0.0366992495711954,,,,,1.75923009576763,-93.8331549635916,1.64931333057655,AttemptLanding,AttemptLanding,1,0.474322858211945,0.139744110056339,0.167531410843026,0.897197507921074,0.344337691629538
78,1.76875702070223,2.48695158958435,-0.207302904985135,-1.74547348874352,1.76875702070223,-0.0371284569148988,0.0014313193401028,0.0371560356864783,-0.0044798938607789,-0.162353088709068,0.162495277577653,0.0104817339694499,0.132562347500687,0.135252023692835,15.4071476499436,0.965077120716278,0.726185688519755,0.176209607202492,0.240218171628591,0.124816492248353,0.413618291116955,0.15785216773147,0.0363331488155905,,,,,1.84421771642335,-95.6415120879709,2.31676436434154,AttemptLanding,AttemptLanding,1,0.498718943592496,0.168405717874331,0.184412003831123,0.898606702897614,0.344526003445176
79,2.62612927520035,3.0,-0.398988947645459,-2.56341548247538,2.62612927520035,0.0051080885341153,0.0056405297858498,0.007609740122857,-0.0166801952096586,-0.341478934215419,0.342423648294301,0.0221083390616372,0.196475787845525,0.199269999210882,15.3890632676922,1.86603414956434,1.93969266992945,0.0229460307969587,0.0665080225852687,0.126442561999678,0.452889013355225,0.0022549725938648,0.0074727395080204,,,,,3.0,-97.5958361626102,2.10885589624682,AttemptLanding,AttemptLanding,1,0.740155139895603,0.0855160321024448,0.0550291891242829,0.958624845305498,0.343803305777921
80,1.79509966518428,2.59706401824951,-0.2317192407156,-1.76159246784593,1.79509966518428,-0.0580327500836241,-0.0289676542331903,0.0648608130849594,-0.0061946376538881,-0.164659879325295,0.164944527680392,0.0106396520615771,0.14546321760464,0.148181506683827,15.39117923337,0.965662715962988,0.774697768373507,0.176529951754644,0.240227248380265,0.132342601823989,0.433171335855192,0.158657512462583,0.0369756784829868,,,,,1.84269174465958,-96.4089816842801,1.81335586377831,AttemptLanding,AttemptLanding,1,0.508329545385906,0.192333128505253,0.199360028353063,0.89806076317432,0.341181065856005
81,1.83076785222904,2.61025142669678,-0.193728655637631,-1.80699181207232,1.83076785222904,-0.039514335976198,-0.0166688422394303,0.0428862804314255,-0.0044911657658671,-0.1724610972273,0.172613394410483,0.0111335762595726,0.120953057834701,0.123771905015321,15.442061122844,0.980536242041621,0.689533043334504,0.176418693721456,0.240217614707976,0.142224568606069,0.402530780078556,0.161105406066695,0.0357615275545193,,,,,1.90149022471625,-95.3637271300002,1.95249312002141,AttemptLanding,AttemptLanding,1,0.512959141597475,0.183246289001002,0.194554367934917,0.898668680182745,0.336789080619525
82,2.59036788812848,3.0,-0.417330048046604,-2.52492077612871,2.59036788812848,0.008922724170182,0.0078319302894054,0.0118724108198486,-0.0173777719873926,-0.332588010913794,0.333578160594587,0.0215357257210051,0.20376553205176,0.2064045451678,15.431294123649,1.7099240815075,1.80860722555158,0.0291783741492659,0.0467752941917679,0.119513441702934,0.390073373810027,0.0222572055473912,0.0044649484723221,,,,,2.91783086718893,-97.7855854258006,1.71056469643541,AttemptLanding,AttemptLanding,1,0.732045679201154,0.0943438338213979,0.0681220092735338,0.957765209798474,0.346882914798696
83,1.69558957719163,2.39625978469849,-0.322115816774268,-1.64923610758839,1.69558957719163,-0.0566812385665864,-0.0231191933125236,0.0612148666980834,-0.0085558044593391,-0.14512459141351,0.145603958713352,0.0093931985474027,0.137964859487898,0.140268237123571,15.4067716993219,1.0671432749405,0.850652243945969,0.176650069258007,0.240213932710229,0.16425080268927,0.411525281624525,0.156741787619041,0.0401532442960085,,,,,1.75027764965131,-99.5200046041142,2.18338923351847,AttemptLanding,AttemptLanding,1,0.480210868009148,0.168873522250358,0.185588309813792,0.896606572008317,0.326999643249213
84,2.67466491808012,3.0,-0.461077007194198,-2.60041194530149,2.67466491808012,-0.0291457866544792,-0.0117396976655102,0.0314212886589014,-0.01831523776962,-0.346039638027044,0.347134202502245,0.0224079842310714,0.202654361928733,0.204781182285104,15.3955963204385,1.77474908281957,1.34892216861952,0.063499707383636,0.240347612741431,0.130311845321815,0.47568924787121,0.0018639403653803,0.009411597476398,,,,,2.95681470906161,-98.270421652992,1.84878897281697,HoldLanding,HoldLanding,0,0.754200214611719,0.078960963019439,0.051627394834159,0.943707015046875,0.342083624301415
85,2.042710525764,2.74380779266357,-0.426559038774823,-1.98411155918201,2.042710525764,-0.0487272725956525,-0.0118302171735327,0.0501428073903325,-0.0125495061412813,-0.20664916706595,0.207332738598404,0.0133717440695576,0.132559828900333,0.136059180398718,15.4434594067223,0.973706676417101,0.637116580235317,0.175822814667568,0.240273879635068,0.151067086876084,0.439141056118166,0.159623858139935,0.0380440811396458,,,,,2.10680641889481,-101.731697741666,2.42625476951068,AttemptLanding,AttemptLanding,1,0.571934642950144,0.166939733073965,0.184941988118969,0.89943212422109,0.332859072499518
86,1.97051362369372,2.88680505752563,-0.541354926735627,-1.88162969775541,1.97051362369372,0.0062883071176991,0.0067434047699001,0.009220429181834,-0.0181285434485345,-0.185372829883823,0.186745665605508,0.0120588522081916,0.138692397587051,0.140221415170209,15.4032252269568,2.08870411866058,1.88571276225935,0.0293838470311964,0.051445945226252,0.133681564167267,0.426459364935243,0.0175736009547841,0.0063153071380007,,,,,2.01104491577433,-105.279667622794,1.79285034794267,AttemptLanding,AttemptLanding,1,0.553514582685699,0.207855984628852,0.134820555413458,0.954080515277174,0.340585971481215
87,2.01803004983309,2.90273714065552,-1.16388864911155,-1.62515510192669,2.01803004983309,-0.0606188319070735,0.0037066672128564,0.0607320521932604,-0.0749397429472624,-0.141071418070201,0.164206866479719,0.0105914539849051,0.157929094013969,0.160711421643274,15.4690937797773,0.839321365355866,0.996161298158714,0.17646272681875,0.240305675899351,0.167327316345459,0.402397611323672,0.158964819336001,0.0357344930244715,,,,,2.06469467336038,-124.238920485483,1.91928391618106,AttemptLanding,AttemptLanding,1,0.570283630950812,0.21019330500381,0.209761374918095,0.897346987091582,0.325632303846463
88,1.92192127575745,2.98203349113464,-1.08945573076531,-1.55207012636839,1.92192127575745,-0.0748576145247587,0.0095451815448684,0.0754637193826402,-0.0692500265731672,-0.133306143309954,0.156226285645042,0.0100762586738701,0.196789276228134,0.1992365066409,15.4361897004035,0.949422288553527,0.908841049372158,0.17709112107548,0.240298251665158,0.184470413768554,0.469869395180931,0.159382210718227,0.0354570066407801,,,,,2.00959748573364,-123.70580417537,1.5,AttemptLanding,AttemptLanding,1,0.552359641530168,0.252360263680018,0.235146153265285,0.896853798949987,0.318013149436198
89,2.60062533676824,3.0,-0.234904935545737,-2.55872065619526,2.60062533676824,0.0065373056956808,0.0075607451665085,0.0099950604416213,-0.0089116923908445,-0.342293219761486,0.342671130751593,0.0221255828451899,0.196972169929074,0.199667646830841,15.3863877154566,1.90740451389489,1.75043759164598,0.0286441724073968,0.0518935782672189,0.125972351651934,0.453233070566405,0.0229524790140987,0.0059241156942619,,,,,3.0,-94.0907171926139,1.50072533504974,AttemptLanding,AttemptLanding,1,0.733433619171031,0.0916917269747774,0.0673703618577328,0.956937725824195,0.344012288154696
90,1.94774730785473,2.57851696014404,-1.0578732694605,-1.62193881628999,1.94774730785473,-0.05901378298791,-0.0099275927752491,0.0598429919109608,-0.0613331937545574,-0.139061114138336,0.154268354352114,0.0099533561870068,0.128868147277501,0.131400778930121,15.3768828999336,1.14468502332511,1.1309118148404,0.177099406134338,0.240252000867717,0.157442387053859,0.461445030542061,0.160832073742819,0.0378934287100522,,,,,1.99637079272466,-122.311062912018,2.26618082792282,AttemptLanding,AttemptLanding,1,0.545679437880619,0.152894386948772,0.176996982454575,0.893570607490102,0.33002560575384
91,1.86957223431484,2.80985260009766,-1.12950025006177,-1.4559619819749,1.86957223431484,-0.0724675199985933,0.0186438284408036,0.0748273599272127,-0.0738040942285526,-0.116482957296211,0.144565897146653,0.0093260314074977,0.18244178434647,0.184644316806791,15.3818135613149,1.0953156243128,1.02275911454402,0.177157922929494,0.240287526645992,0.122398079112841,0.483559426406196,0.158715431375564,0.0369499408870497,,,,,1.94546366280019,-126.251978914843,2.05056136567473,AttemptLanding,AttemptLanding,1,0.535481459178649,0.225281431621122,0.219145392835892,0.894779022729949,0.345600853727626
92,2.61241192642263,3.0,-0.481648544944812,-2.52991913273146,2.61241192642263,0.0059668443091246,0.0030933777554818,0.0067210279680598,-0.0221236392353689,-0.333820708000434,0.335382426340296,0.0216539377706374,0.207191907667808,0.209808414545225,15.360654150009,1.82068096219885,1.80600857281069,0.0202993413348087,0.0651870392306068,0.125938468290849,0.520281664330327,0.0003687252660676,0.0079736300241372,,,,,3.0,-99.2513675644137,2.22166977127201,AttemptLanding,AttemptLanding,1,0.738604863288413,0.0884395050157193,0.0561270827324207,0.961354911557521,0.34402734742629
93,1.68651985961038,2.45436120033264,-1.01593037732434,-1.32336291292362,1.68651985961038,-0.0545381538531149,0.0194391072672742,0.0578989560964153,-0.0571928921570678,-0.0943432160331824,0.114358538895605,0.0073768423800909,0.137647567729712,0.139515063642246,15.4556029890196,0.880020025119788,0.992671973732714,0.175843587153794,0.240199724278278,0.165547126532793,0.368775489535661,0.159553198428873,0.035883113387082,,,,,1.74681180591764,-126.657123786368,2.28872777182578,AttemptLanding,AttemptLanding,1,0.477641641957883,0.183379110280186,0.193988403671196,0.89736419786069,0.326423499318759
94,2.54274447232838,3.0,-0.22895878460409,-2.50026882210685,2.54274447232838,-0.008810341301952,0.0012764056489384,0.0089023213398261,-0.0094762234916163,-0.336883482154346,0.337324063401418,0.0217585719690448,0.203155700458005,0.204436976940887,15.4380310904794,1.1727115242802,0.862662167392035,0.0749316305623159,0.246880420061735,0.294666861301704,0.64990927302765,0.0962922386406701,0.118689465067083,,,,,3.0,-94.2734617915732,1.97410848797757,HoldLanding,HoldLanding,0,0.718952588009079,0.104514585971749,0.148665107568953,0.946541962855703,0.269036950532576
95,1.78171464075913,2.56842231750488,-1.12888681843796,-1.36628497515745,1.78171464075913,-0.0421672033972639,0.0022613595912689,0.0422277964088495,-0.0687906592595735,-0.0996203436400448,0.123430627941374,0.0079616812752689,0.11500523102739,0.117032660344792,15.4021379775117,0.902808734772251,0.987648827246927,0.176685053685598,0.24022438170483,0.156700877401382,0.492860903219107,0.159377009900586,0.0353851184901342,,,,,1.86493072097439,-128.583435678336,1.57595747062991,AttemptLanding,AttemptLanding,1,0.498530436271394,0.184750989942749,0.194552136402726,0.896803878027051,0.330355165599386
96,1.73894662801239,2.39908385276794,-1.06461480412171,-1.36077555679551,1.73894662801239,0.0038127555450325,0.0016984847852925,0.0041739615968581,-0.0612775561000689,-0.0973517890497917,0.117602444928118,0.0075951433618468,0.122835893733386,0.123830027784309,15.3714015926367,1.97890958552219,2.23231935268285,0.0240796148082766,0.0636868395945454,0.140963947678499,0.439032678530598,0.0057639084341264,0.0094741240958699,,,,,1.76269102467469,-127.19753908103,2.07730029307148,AttemptLanding,AttemptLanding,1,0.488485106360165,0.149296101862758,0.0955845342343505,0.954871965224251,0.337349356587334
97,1.76670132947448,2.59461879730225,-1.09070227045909,-1.37534420449486,1.76670132947448,-0.0383816613307764,0.0180291246612173,0.0424052032486596,-0.0646595201806848,-0.101047069643957,0.122739945931564,0.0079177961596608,0.132199956743234,0.134102105455559,15.4195616995043,0.943656341452264,1.06191451621506,0.176863830579083,0.240236525462683,0.142597408548824,0.499642365808303,0.155189993333103,0.0405443852631546,,,,,1.81622668042125,-127.513201967813,1.96495986470554,AttemptLanding,AttemptLanding,1,0.49794077561764,0.194055717523501,0.200150173707334,0.895810027971644,0.3366233739783
98,1.86660954597834,2.57110571861267,-1.17849590213124,-1.424215626812,1.86660954597834,-0.0615665890796959,0.0130934538417825,0.0629434939006012,-0.0768277685752667,-0.108603672399847,0.137745220961594,0.0088846335489906,0.137043187817148,0.13931377227224,15.4469278849581,0.872698162256276,0.977508945751061,0.176939065816559,0.240272911888823,0.144024429749404,0.426609996106979,0.158858544155437,0.036384752792833,,,,,1.91962505408224,-128.853168090004,1.79177786585496,AttemptLanding,AttemptLanding,1,0.525625300048672,0.170051279391168,0.185865384234511,0.896993125528806,0.335989142333598
99,2.62202826909796,3.0,-0.165830483725922,-2.58361869309284,2.62202826909796,0.0087781602388181,0.0038053239797471,0.0095674755170424,-0.0061211060354084,-0.34694425641064,0.347244074925524,0.0224248609558176,0.197749941281285,0.200500319517087,15.4131807800953,2.02599730173442,1.90947221780545,0.0201610606949972,0.0475862374280914,0.130387751340808,0.444077283538985,0.0001980071214923,0.0063524712185686,,,,,3.0,-92.2002194325483,2.23345370250539,AttemptLanding,AttemptLanding,1,0.739307602329539,0.0867976766310842,0.0544765986777832,0.958997923427545,0.342049888292974
100,1.63027233610282,2.30048036575317,-1.02625602055392,-1.25209063737266,1.63027233610282,-0.0517850948999757,0.005448344731523,0.0520709181224319,-0.0570523126551444,-0.0832220856509851,0.10346805500272,0.0066744396650621,0.117263528296187,0.119006783522912,15.4448346696838,0.858066992277204,1.05724748230901,0.176155798459146,0.240176879238919,0.147015194729757,0.411235153670299,0.157880780001046,0.0361844662035215,,,,,1.68546986904653,-128.540481584722,2.08462967562905,AttemptLanding,AttemptLanding,1,0.458540646332001,0.160343141660442,0.179533108262657,0.89687320132725,0.334659913453441
101,1.6387277664365,2.62512969970703,-1.05891911292936,-1.22361617901787,1.6387277664365,-0.0684200844097724,0.0089341455202776,0.0690009196084942,-0.0645625564571279,-0.0835786309109648,0.110660336943486,0.0071375721463337,0.168641571531896,0.170343926235743,15.4310934379694,0.70036330263228,1.10600856366177,0.176787935073903,0.240253545553228,0.154854629003169,0.486653218936744,0.156423747898494,0.0384027106198412,,,,,1.69807149429304,-129.55767099295,2.06113724406938,AttemptLanding,AttemptLanding,1,0.471062856296882,0.23459060358076,0.224240649924699,0.897413110656453,0.331175720443036
102,2.62503189267123,3.0,-0.155133862753037,-2.58566103007554,2.62503189267123,0.0103547058169431,0.0025196057941661,0.0106568450262463,-0.0057620177075082,-0.347615121858154,0.347920666931029,0.022470747450464,0.203850099547019,0.206766956256667,15.3874749567819,2.10582989691905,1.85544473621758,0.025276575616907,0.0663238083040301,0.131950244627429,0.49358796404721,0.005789371683938,0.004877687236906,,,,,3.0,-91.8482151525671,2.02334845553334,AttemptLanding,AttemptLanding,1,0.741361895963663,0.0863215790704508,0.0561397059738047,0.956237411502616,0.341355446832254
103,1.68469013394536,2.45261812210083,-1.06486357490923,-1.28592587964099,1.68469013394536,-0.0576793817862632,0.0097679527461732,0.0585006323392917,-0.0622903234988699,-0.0885841349456881,0.111822621435483,0.0072133655638506,0.129529690644713,0.131356054864933,15.3928174615154,0.907169290848497,1.01226747586133,0.177713796558089,0.240204655692041,0.139449755946422,0.400668840571187,0.1587034348788,0.0362314300356121,,,,,1.75398132014352,-128.600052606655,2.36768470010086,AttemptLanding,AttemptLanding,1,0.475521913358416,0.18350891326385,0.193815273371939,0.896061812839664,0.338022330690479
104,2.61273412610428,3.0,-0.329531207313961,-2.55947199882637,2.61273412610428,-0.0155633678532155,0.0120757729076253,0.019698799715999,-0.0142073595253715,-0.34880282945794,0.349542745345244,0.0225687470286845,0.197004182807099,0.199137309441807,15.3916714969149,1.90586554955551,1.51808086884651,0.0626084316096019,0.240539455922613,0.143462303351766,0.467729794912433,0.0019070356393178,0.0091924947584372,,,,,3.0,-96.2939600424606,2.36739162588584,HoldLanding,HoldLanding,0,0.736556562182836,0.0907462682411369,0.058638057706639,0.941793348050612,0.336238976288104
105,1.74743115821941,2.37931156158447,-1.11372011853509,-1.32968293358461,1.74743115821941,-0.0397440662294378,0.013708025778637,0.0420416551909855,-0.0669921346096662,-0.094365497410413,0.118846851763755,0.0076662460649698,0.120388541940214,0.122348250489601,15.4335791224562,0.909747525816904,0.992033951109168,0.175492015119013,0.240203797114302,0.134143662800861,0.432555034451053,0.156686921925684,0.0394167280001417,,,,,1.78074250763471,-129.221424924807,2.07838195525783,AttemptLanding,AttemptLanding,1,0.490451292289762,0.149880727542154,0.173900424128678,0.897311423693217,0.340380594310729
106,1.84125749981124,3.0,-1.08507523994314,-1.45609950332998,1.84125749981124,0.0058525607641007,0.00117823676442,0.0059699840343608,-0.0682063423981246,-0.11590994628937,0.140417629005714,0.0090665988319616,0.193798684974189,0.194859538064196,15.3815233968589,1.76025329461469,1.65305197186614,0.0271663611255472,0.0534234581410769,0.125775425763031,0.456332772048778,0.0188688142087306,0.0089796734356251,,,,,1.88415857146299,-124.959215831678,1.86652579462,AttemptLanding,AttemptLanding,1,0.529973907562504,0.261811559615437,0.168738411212359,0.959597992343448,0.344099810771986
107,1.67381774976447,2.22755980491638,-1.01050080424861,-1.32132621311138,1.67381774976447,-0.0436110643247378,0.007704294025214,0.0442863531797704,-0.0554898728926619,-0.0924553072788491,0.110031534806448,0.0070984300664243,0.108335243862448,0.110121500679488,15.4181873905481,0.998483848487551,1.01616270097366,0.17621075410452,0.240196592795342,0.159163784581198,0.388702902536748,0.157980303483166,0.0368112277229281,,,,,1.72726488943798,-126.550224489005,2.11112727098582,AttemptLanding,AttemptLanding,1,0.468375700073089,0.132711127158805,0.163226045500179,0.896065257201973,0.329260540186134
108,1.69135080887967,2.48225116729736,-1.03002765526972,-1.32215700246683,1.69135080887967,-0.0446375626874591,0.0144517200165794,0.0469186979158037,-0.0589268270639267,-0.0932545843237797,0.113722003322678,0.0073379306295436,0.130311441517649,0.132110067389667,15.3846140458174,1.02681183876115,1.20721136432394,0.176345230259531,0.240209361432803,0.178711640580125,0.462490007301113,0.158357223569307,0.0363631747541931,,,,,1.72684939224008,-126.925173742408,1.94365646435836,AttemptLanding,AttemptLanding,1,0.477448895845846,0.186554341928544,0.19553656604804,0.894274345417423,0.320572604186611
109,2.61561945609026,3.0,-0.300487091368163,-2.56550707699049,2.61561945609026,0.0055453437686175,0.0048329142829546,0.0073558070922592,-0.0119469047242756,-0.342594851949379,0.343172491670328,0.0221590392829609,0.205813335639625,0.208635482540979,15.4061624771318,1.88050751167925,1.88842134247022,0.0292411758176516,0.0569425350843445,0.130746715720259,0.434218555266075,0.0218845082257431,0.0059215286023451,,,,,3.0,-95.4171668207032,1.53105867029568,AttemptLanding,AttemptLanding,1,0.739225618132264,0.087834187013273,0.0645802434364196,0.955766399665714,0.341890348568774
110,1.61435462684439,2.41096353530884,-0.943506655789839,-1.28276044664118,1.61435462684439,-0.068469736877224,0.0104978278264358,0.0692698293422885,-0.0513461255135183,-0.0904362459009805,0.108519489813154,0.0069997903875002,0.157725620577768,0.159421160177287,15.4075837826967,0.839629579246599,0.967993687569562,0.176290331848514,0.240209842395283,0.13393833945489,0.457749825120733,0.155437996965429,0.040875031250835,,,,,1.65985778043302,-125.136897277648,2.08121443387813,AttemptLanding,AttemptLanding,1,0.462378799193962,0.191936473117253,0.199109085804785,0.897652079836473,0.34047184913116
111,1.54780722993451,2.30810761451721,-0.921729377553844,-1.22411478412478,1.54780722993451,-0.0494152674300243,0.0161196019719597,0.0519779782495936,-0.0473473351512803,-0.0809978428609857,0.0968876723499734,0.0062493729257752,0.131363387698228,0.132880536158151,15.4029858755919,0.878575727756291,0.942176791387568,0.176193899192645,0.240190345864234,0.144656334911635,0.434929773428202,0.157568921713737,0.0373097113326205,,,,,1.59306398738573,-126.486183134521,1.72335958039274,AttemptLanding,AttemptLanding,1,0.439324701880833,0.180596882543533,0.191955929156208,0.897597137753261,0.335708295594829
112,2.63002697520431,3.0,-0.244515642872577,-2.58497358154722,2.63002697520431,0.0074952283704724,0.0055559210485195,0.0093298824763722,-0.0095075040368576,-0.34822668634046,0.348658262404372,0.0225122875395971,0.196317693277619,0.199108321410068,15.3662520576978,1.89254444343986,1.80576192392859,0.0255958130331996,0.0585875914164221,0.123300494067866,0.463249798233065,0.0073151122000731,0.0059968842842779,,,,,3.0,-94.1056534981467,1.99575800855839,AttemptLanding,AttemptLanding,1,0.741162191003164,0.0849544090330308,0.0564044915919117,0.958143972025505,0.345199780414282
113,1.70859620155104,2.65425181388855,-1.00210526839824,-1.35552310117889,1.70859620155104,-0.0747821726779408,0.0033851663417113,0.0748587516700246,-0.058395867118118,-0.101880901609783,0.122353188979417,0.0078915396997538,0.179743533509814,0.181708859032327,15.4383389289029,0.832933779072554,0.923087671332142,0.175479687170384,0.240241521133878,0.169083232756407,0.411318733428866,0.155094589328219,0.0409036391630434,,,,,1.77528590773906,-124.910768203071,2.25972832286182,AttemptLanding,AttemptLanding,1,0.491967425553409,0.226496617248777,0.219702949544329,0.898462845018771,0.324851896552708
114,2.60165332742821,3.0,-0.396537461513785,-2.5393367910207,2.60165332742821,-0.0123789620735371,0.0118428684995165,0.0171316151111012,-0.0177371055167696,-0.344983448542492,0.346016693030256,0.0223391032940065,0.201789088595678,0.203881631009069,15.3381427240254,1.79135738618371,1.57136556451726,0.0626150362424027,0.240429912471744,0.134196777532293,0.536036984797574,0.0019005807310045,0.0098426592357155,,,,,2.9979851142919,-97.9705526263991,2.28110370560441,HoldLanding,HoldLanding,0,0.734550546849335,0.0927687974323556,0.060085129819514,0.942271087266148,0.340356987763425
115,1.8245571475701,2.47897005081177,-1.04876685537017,-1.4779659048273,1.8245571475701,-0.0593332169374066,-0.0038377165947491,0.0594572005799379,-0.0601325242341033,-0.11591442500516,0.133225638906043,0.0085927479985352,0.133129796166473,0.135270932576198,15.4621230284343,0.885268939774316,0.868847427600265,0.176129987794205,0.240235237674265,0.14595661273032,0.375120412407969,0.155883443839139,0.0397063871120182,,,,,1.89315516909655,-124.179562229341,1.77154249748375,AttemptLanding,AttemptLanding,1,0.513602759200601,0.158143390002363,0.178606250819143,0.898152663216383,0.33513039434208
116,1.7022895668004,2.37330079078674,-1.02779549535473,-1.34161453301746,1.7022895668004,-0.010416420783077,-0.0105622980623076,0.014834552985754,-0.0572598589195448,-0.0946968425627534,0.113352087933645,0.0073157237994321,0.118957275920805,0.119867542022299,15.367653436461,1.47338992806617,1.6923536307125,0.0171194147899426,0.0725682710807585,0.148622475882958,0.532504470679052,0.0030243967959559,0.0074154171973831,,,,,1.69700248239393,-126.66944677606,2.37430951426577,AttemptLanding,AttemptLanding,1,0.477917392884567,0.153697193444315,0.0962590077648503,0.966566593214625,0.333945566274241
117,1.56936705813688,2.26340818405151,-0.940099745581446,-1.24420312798653,1.56936705813688,-0.0409446993264558,0.0004078543405269,0.0409467306154833,-0.0501437561392341,-0.0859244534064718,0.101554898862682,0.0065498592780416,0.1239398763638,0.12501904102005,15.4529156202657,0.587762620307697,0.942231402529655,0.176190003111749,0.241436775416203,0.254141294656088,0.454296023321003,0.124827124062724,0.0050510171057824,,,,,1.6721231422542,-125.43586516234,2.29363294699651,AttemptLanding,AttemptLanding,1,0.443501690373846,0.16366615394363,0.155515147664845,0.899883616836118,0.287048313486183
118,1.72617593850638,2.55681228637695,-1.07613426430058,-1.31649441603328,1.72617593850638,-0.0659380931736751,0.0139401493667242,0.0673955480410007,-0.0665480873071647,-0.0960819532679446,0.123029248079504,0.0079348690254613,0.176733466321141,0.178700398482028,15.4305746912726,0.833345562688346,0.935983133639489,0.176068024160706,0.240248371280998,0.159912079950177,0.461463432132759,0.156432001292432,0.0408595606922773,,,,,1.78141492798702,-127.597402747289,1.74569782385579,AttemptLanding,AttemptLanding,1,0.496053663298108,0.199249028745061,0.203932773224703,0.898064119591357,0.328927964466588
119,2.57047704589805,3.0,-0.360481678620605,-2.51160690821385,2.57047704589805,0.0036405773813925,0.0069302747785787,0.0078283147724469,-0.0151018144108201,-0.329446900705935,0.330286186042718,0.0213206813115106,0.20168970443051,0.204389121569926,15.4398324606438,1.7582799954092,1.71252190660547,0.0285639497564179,0.0557657811335275,0.116115013732693,0.437442666822632,0.0192094978206872,0.0049633770201094,,,,,2.88139783872518,-96.8469577847742,1.79458598407625,AttemptLanding,AttemptLanding,1,0.7263383698868,0.098077855714553,0.0691891323866528,0.958447438748819,0.348393327229914
120,1.70287655012028,2.56224727630615,-1.00884818210249,-1.35163103125569,1.70287655012028,-0.0565362749969634,0.0012138781251579,0.0565493049527137,-0.0576421147090292,-0.0986949470434824,0.117825276862707,0.0076007064761075,0.146970258652957,0.148888918942591,15.4430840431639,0.903448151067443,0.956653619871465,0.176363415111853,0.240210591658937,0.178514802864445,0.438810084169102,0.158265374673789,0.0351452283582698,,,,,1.76744363452008,-125.864521808831,1.73746521754513,AttemptLanding,AttemptLanding,1,0.483878197153925,0.203725785966486,0.205355721140947,0.897203207100982,0.320660087615802
121,1.71772268034468,2.58945655822754,-1.00081019191121,-1.37054597076194,1.71772268034468,-0.0766473930240798,0.000762499894395,0.0766511856625631,-0.0580469564022954,-0.103649636647241,0.123330265857026,0.0079542139432107,0.171370894533235,0.173237439773817,15.4705687144957,0.805943359694593,0.886597099349614,0.175975036955601,0.24023035128602,0.150011108123428,0.421773521370725,0.155905061977314,0.0420973830423748,,,,,1.76448514358837,-124.664357217421,1.53782633364969,AttemptLanding,AttemptLanding,1,0.492706869380011,0.210192839895114,0.210714981881788,0.898713949343995,0.333328396389588
122,2.61910198005944,3.0,-0.37570828266936,-2.55966640834117,2.61910198005944,0.0032520595711198,0.0036772830761036,0.0049090021670305,-0.0154537557181164,-0.341125139284378,0.341935555061602,0.0220827885207099,0.199138916128149,0.201873414771368,15.4005403534785,1.9530657447382,2.0503501474241,0.015403494612625,0.0522612552466009,0.139394078811108,0.43381883410371,1.63398880752063e-07,0.0110108361016846,,,,,3.0,-97.1526305433791,2.43234190158021,AttemptLanding,AttemptLanding,1,0.738801877636791,0.0866020382172479,0.0559652359526861,0.960842842112412,0.338047076083952
123,1.6169301867485,2.34324383735657,-0.928611499598902,-1.3108311693204,1.6169301867485,-0.0445192440586868,0.0088010925758093,0.045380858542836,-0.0469451671712011,-0.0910491036393318,0.104453477707627,0.0067377736703432,0.104987500479709,0.10665773806955,15.4184433901884,0.883433464350072,0.903834608745834,0.177559391135813,0.240170158011718,0.116979587572972,0.38098443975353,0.158801443422847,0.0364079429439518,,,,,1.66518818535526,-124.488998271363,2.23094725649677,AttemptLanding,AttemptLanding,1,0.452512930746845,0.171740395453001,0.186861908550462,0.897177483857769,0.34800907218979
124,2.61365071474682,3.0,-0.506347821701672,-2.53256094716665,2.61365071474682,-0.0116652874640059,0.0180504880604134,0.0214918368418574,-0.0233135365828327,-0.342389138038771,0.344045542372138,0.0222111907931,0.195071136283688,0.197124611903787,15.3954993404635,1.70213135561396,1.56679636278307,0.0629343437874618,0.24045030562137,0.136273784430132,0.423697083686787,0.0019384058498403,0.0095925222922935,,,,,3.0,-100.530616564359,2.45422911127322,HoldLanding,HoldLanding,0,0.736398446313242,0.0908687592696398,0.0588709591972944,0.94284839603315,0.339433873586608
125,1.54138891640547,2.30162572860718,-0.80633733701418,-1.29550470759032,1.54138891640547,-0.0504790377355994,0.007208645349761,0.0509911543161233,-0.0371086393807926,-0.0898268773494983,0.099553325742775,0.0064207920716605,0.124991867560051,0.126573685194556,15.4568355882993,0.822227731050409,0.796982647066938,0.176104104123579,0.240171543594615,0.139501465400506,0.374707245215375,0.158118752451257,0.0375681521650157,,,,,1.59718321662841,-120.692341177793,2.09380817298866,AttemptLanding,AttemptLanding,1,0.436351781413704,0.180401661036673,0.192177143953275,0.899225580681574,0.337999348710886
126,1.54738423756532,2.33012223243713,-0.860633274619227,-1.26792472039989,1.54738423756532,0.0013879453754784,0.0001620000413496,0.0013973676605351,-0.0412514465552917,-0.0857375996357522,0.0977198441234836,0.0063109734287637,0.129688771091475,0.130443916454691,15.384969267071,2.00911129341425,1.91445070146428,0.0165932251692045,0.057066312303708,0.129676953222977,0.43392445816854,0.0002799313368025,0.0057907874651967,,,,,1.57811714801433,-123.111297136965,2.37631249943682,AttemptLanding,AttemptLanding,1,0.438724579975025,0.176372232917255,0.108053494574256,0.960875400312781,0.342365798567566
127,1.48151996248477,2.199862241745,-0.746476830233198,-1.26453408902196,1.48151996248477,-0.0476229906087136,-0.006054720061877,0.0480063419721324,-0.0313780587035115,-0.085627307864807,0.0928680261006203,0.0059902445092632,0.11039542992928,0.111808857464898,15.4031587512653,0.893881355030055,0.925635602934653,0.177774536251871,0.240161292709136,0.137285255285804,0.456896889561823,0.158226928532578,0.0365097626613379,,,,,1.53181850141805,-119.504479623187,2.30157611337053,AttemptLanding,AttemptLanding,1,0.417433761488919,0.170428175528441,0.185856261996273,0.896816527204342,0.338984330984087
128,1.63020230306161,2.28706097602844,-0.86387756480518,-1.37069557972704,1.63020230306161,-0.0472710831730968,-0.0062591658346143,0.0476836708035679,-0.0411141014442415,-0.0993286257016087,0.109127979046528,0.0070395353701035,0.104316399283119,0.10603387685856,15.3935965608375,0.891076194290732,1.02172127601786,0.177296663525208,0.240187177714837,0.151071146316206,0.486633989593601,0.158242047807691,0.0372613790409108,,,,,1.67347133841587,-121.814224359451,2.34809260771282,AttemptLanding,AttemptLanding,1,0.455927389521476,0.156535207731524,0.177800516043068,0.8963225452564,0.332857268303909
129,2.61137249836555,3.0,-0.512339872798666,-2.52849104786868,2.61137249836555,0.0080380018139374,0.0042197923715549,0.0090783324911513,-0.0225923649850242,-0.33352812033984,0.335099795902622,0.0216378903754898,0.199291290212278,0.201917154389626,15.4042877412551,1.90419605148312,1.94506348119297,0.0269151970865079,0.0511827276487011,0.133157510680465,0.419808137202119,0.0104873708353754,0.0063667905375731,,,,,2.98812679975473,-100.15154225882,1.94713405881881,AttemptLanding,AttemptLanding,1,0.736749430442072,0.0891055488244625,0.0604395795584063,0.956298219414291,0.340818884142016
130,1.61078591685037,2.21908450126648,-0.898488195509522,-1.32350364054518,1.61078591685037,-0.0392961319214419,0.0065866120381613,0.0398443150540779,-0.0442018700814247,-0.0927886242203365,0.104722674484949,0.0067545108083861,0.115746841203646,0.117475452915702,15.4623999132111,0.864072482178918,0.873815747032044,0.176991990248302,0.240172990139891,0.168352756881997,0.39118233703394,0.158139047190157,0.0360863579188424,,,,,1.67291748571223,-123.514973806059,1.89809131498483,AttemptLanding,AttemptLanding,1,0.45303800174324,0.144171972586871,0.169909516496014,0.897849168789192,0.32517655249689
131,1.49041850260786,2.28484773635864,-0.765525561444064,-1.2539978419619,1.49041850260786,-0.0644715068139395,-0.0025414397312006,0.0645215786134156,-0.0353449599443332,-0.086645261319061,0.0966589055152335,0.006234830623315,0.15208103541826,0.15351394427906,15.4435057930157,0.911420801802933,0.943695871589136,0.176614319056343,0.240184546361628,0.165718714491075,0.416501788661006,0.158129062923023,0.0357740635865481,,,,,1.54515709711904,-119.107877075441,1.98463568107268,AttemptLanding,AttemptLanding,1,0.428147722884575,0.190575533673052,0.197633654120283,0.89711692375232,0.326347238003966
132,2.62639275003835,3.0,-0.468906290161329,-2.55290709007425,2.62639275003835,0.0043935701514039,0.0055849751982185,0.0071060120067463,-0.0198874815183364,-0.338832477444573,0.340068112261279,0.021961444439873,0.195039110256284,0.197713813290504,15.3682709192733,2.02811242000132,1.97900131569329,0.023528579504395,0.0671356133174274,0.144087751851025,0.485472907671639,0.0012813673792656,0.0072594564847026,,,,,3.0,-98.8062245222683,2.11035308249457,AttemptLanding,AttemptLanding,1,0.739914162668328,0.0853644001092745,0.0544279390366454,0.95675124518163,0.335960999177322
133,1.6086425934289,2.45183420181274,-0.83811555588433,-1.34657252889221,1.6086425934289,-0.0634950813388694,0.0046385928860017,0.0636642906046372,-0.0418763154652962,-0.0993102424015946,0.111397217963254,0.007185850167927,0.15917530841855,0.160916721997548,15.4182921599386,0.977622584047786,0.996499317038673,0.176567849253093,0.240218518251045,0.157113466418887,0.409840979675936,0.15923995096358,0.0365413055227742,,,,,1.68330103474598,-120.509023497779,2.36038776521051,AttemptLanding,AttemptLanding,1,0.461154702647215,0.201389898497216,0.204894998100526,0.896205117579203,0.330171792702717
134,2.61800679051599,3.0,-0.589950605379546,-2.51596185622547,2.61800679051599,-0.01781345493983,0.0112236473601213,0.0210544398395614,-0.0283940310644292,-0.336067570581767,0.338434095722219,0.0218491114732949,0.204807611052079,0.206785014008389,15.3969921089052,1.77414769450791,1.573826454627,0.0626939866049097,0.240454771817256,0.14493314478892,0.483438874863237,0.0019431998668744,0.008857730423701,,,,,3.0,-102.269542710179,2.36094346313964,HoldLanding,HoldLanding,0,0.739492146939275,0.0898084527711555,0.0579697089293167,0.942347495525771,0.335585268982702
135,1.68095514822651,2.54951095581055,-0.868924270013677,-1.42620666707806,1.68095514822651,-0.0370582565091244,0.0036800967105743,0.0372405355398555,-0.0416587550765469,-0.107644221269618,0.117057651035024,0.0075515382838031,0.112903548255429,0.114869808476869,15.3659629705,1.00561633732737,0.969365326788122,0.177385023380151,0.240221776717343,0.137078776797274,0.497369560115921,0.159028428297105,0.036130681090188,,,,,1.71044333906111,-120.370167332204,1.95335308630455,AttemptLanding,AttemptLanding,1,0.471228667889109,0.202252488222049,0.205169223885951,0.895789775234731,0.339076099201211
136,1.63999660557329,2.43171334266663,-0.763018554043236,-1.43359540502499,1.63999660557329,0.0041265294765446,0.0028861195199251,0.00503566593452,-0.0333605115699516,-0.108922557713419,0.115760637285503,0.0074739077214737,0.132088839293999,0.132981283392974,15.4009496325582,1.87844597696495,1.91913781537016,0.0214401594699333,0.050507854601645,0.131133111510628,0.414348809854448,0.0004620851560881,0.0062135056932514,,,,,1.66149639163359,-116.91481150861,2.18007875664774,AttemptLanding,AttemptLanding,1,0.463928684831472,0.179059471267329,0.109900510556609,0.959441761896686,0.341718617106388
137,1.46808548392476,2.05799078941345,-0.699755653968591,-1.28097077879896,1.46808548392476,-0.0353882427440145,-0.0018765048019435,0.0354379597999238,-0.0272053481963865,-0.0867583496232678,0.0918860808742557,0.0059276298297768,0.103513423004306,0.105026339040946,15.3686952645577,0.965021748482578,0.957581079062819,0.177188488895154,0.240146487229154,0.15301642270713,0.457285737686105,0.158266620441323,0.0373901176636009,,,,,1.50463962214456,-118.009747287404,1.96416507646316,AttemptLanding,AttemptLanding,1,0.412494730188126,0.139225653031608,0.167472518438236,0.896299590478852,0.331992701019053
138,1.55066498469662,2.32434606552124,-0.717957784045442,-1.35848650618465,1.55066498469662,-0.0526872035495982,-0.006902046672613,0.0531373660068667,-0.0299068927298661,-0.0991506444589666,0.105153687467383,0.0067828348808009,0.121898174590239,0.123469255931247,15.4466962852686,0.880939215626988,0.913592034951402,0.176548847527487,0.240168493321641,0.14583238724736,0.42871367898966,0.15916504870064,0.0359063629066785,,,,,1.62198882751374,-116.427624599585,2.02883165458481,AttemptLanding,AttemptLanding,1,0.438204513772015,0.183820093620132,0.1940889370556,0.897625687838855,0.33518560566784
139,2.58281781951996,3.0,-0.443945114107482,-2.51339046696176,2.58281781951996,0.0151040099446918,-0.0033011923061714,0.0154605623135666,-0.0187272938310201,-0.335279846155228,0.336491799052613,0.0217055079605806,0.181477794044767,0.18393063440113,15.4724306175893,1.02178578813832,1.0256723172254,0.0306818624950237,0.0861889516828431,0.279612868821866,0.555196230322039,0.0219791668747663,0.0242679106553754,,,,,3.0,-100.33835635475,1.7235209848602,AttemptLanding,AttemptLanding,1,0.725537545418882,0.0967004270321627,0.0766134696140777,0.96857189792463,0.275727613856948
140,1.33132527658603,2.1372447013855,-0.618504460901512,-1.16921738517841,1.33132527658603,-0.0372868935469436,0.0006334936128563,0.0372922745959352,-0.0252275483181782,-0.0853623396138256,0.089962999278129,0.0058013721676292,0.110083724819739,0.111042500839786,15.4753306875865,0.540758843695455,0.653585249714548,0.151018766781924,0.244204550116059,0.232633285139357,0.397680272019628,0.15666008199505,0.0402754449249691,,,,,1.62484937329115,-117.662804067615,1.67788143240336,AttemptLanding,AttemptLanding,1,0.377228573924233,0.188168787589134,0.197173591998744,0.915106484446531,0.296607428826952
141,1.53070528915264,2.1973671913147,-0.763405118453478,-1.3100191926852,1.53070528915264,-0.0546014360484263,-0.0027201651916486,0.0546691514221708,-0.0333673192215378,-0.0920046160904949,0.0997968716851512,0.0064360945521769,0.116551106411525,0.118037348985719,15.4717064741247,0.586728166381646,0.881566163503528,0.175665176798815,0.240167039794977,0.141767504243212,0.429062348868881,0.156722332381941,0.042075913842368,,,,,1.58700801541868,-119.377240163094,1.70399855429744,AttemptLanding,AttemptLanding,1,0.431795546904516,0.160021605747193,0.180967665702161,0.900630813294352,0.33699222033635
142,2.61954651748058,3.0,-0.62891291667852,-2.5101954894253,2.61954651748058,0.0024787526632938,0.0090402572715038,0.0093739248077187,-0.0297056905915726,-0.328023304384825,0.330573174176632,0.0213477042952703,0.192775441386323,0.195319202085848,15.3964357139458,2.02660203822392,2.00822131421555,0.0175583773724606,0.0463658460946144,0.137625484738592,0.379251064548622,0.0002479346374845,0.0065524071687223,,,,,3.0,-102.460692774955,2.33300415986602,AttemptLanding,AttemptLanding,1,0.73760957841199,0.0873205864482855,0.0548852385570857,0.959518627830317,0.338833117893959
143,1.43733374049535,2.27355432510376,-0.634925910459865,-1.26810857891011,1.43733374049535,-0.058035342403952,-0.0093398808655233,0.0587820920223679,-0.0248021921226541,-0.0887695183062199,0.0940376177862612,0.0060657817623052,0.14722644066972,0.148631663400439,15.4494809890545,0.885883921883826,0.866604404700408,0.177251395925336,0.24019710298154,0.136097946918902,0.407630806354368,0.157846887545718,0.0365405055197476,,,,,1.50542716708844,-115.316950545559,1.57139934512136,AttemptLanding,AttemptLanding,1,0.413015330145514,0.19892634840766,0.202797437839773,0.897604750899884,0.339512023591599
144,2.67922713866779,3.0,-0.58578408499767,-2.57768123291841,2.67922713866779,-0.0339423901901317,-0.0050400210313032,0.0343145401224485,-0.0239303356764712,-0.342090372380798,0.343848811650049,0.0221952518285907,0.200113105419932,0.202185766260912,15.4190539076061,1.69787074513491,1.47147026314897,0.0631724806965816,0.240285216778991,0.124274365412305,0.47380111943644,0.0018883196420541,0.01058348969713,,,,,3.0,-100.955060334027,1.75411658382098,HoldLanding,HoldLanding,0,0.754897723563593,0.0784648928221959,0.0517667305756111,0.943511794586622,0.344766948705642
145,1.60595777107252,2.30007553100586,-0.73069245846383,-1.41783460278716,1.60595777107252,-0.0482479371915443,-0.0076137417956131,0.0488449844648298,-0.0300447084646107,-0.106322536268038,0.111666049160517,0.0072013566379723,0.115780253177408,0.117597843453429,15.4629803025268,0.713490615434797,0.722667548540672,0.17559968682371,0.240199821535883,0.157418503363454,0.459231165320811,0.159222788177195,0.0363478452044997,,,,,1.68254359450145,-116.590495520199,1.69393154774354,AttemptLanding,AttemptLanding,1,0.451774974310024,0.165131409803554,0.183061927772623,0.900916056728338,0.330036220727354
146,1.75377420517912,2.49181532859802,-0.831409518994661,-1.53101217835313,1.75377420517912,0.0032294367309193,0.0005990419703284,0.003284526279576,-0.0380817746979886,-0.122695807485571,0.129922645708314,0.008391747103882,0.115496622755186,0.11655635961788,15.3623655230894,2.03664181346377,2.16854574998161,0.0240255703318935,0.057785275475402,0.141140612226955,0.461757080551595,0.0058355464107184,0.007484583596728,,,,,1.779143412243,-117.297381887505,2.06107215784938,AttemptLanding,AttemptLanding,1,0.490984393304674,0.166661415920509,0.105312092497293,0.954946455406982,0.337270839010242
147,1.42369888212857,2.17783308029175,-0.705840143396131,-1.21388177273417,1.42369888212857,-0.0685692658335543,-0.0050183170328295,0.0687526561144704,-0.0303207506097902,-0.0810786461349816,0.0890675645355922,0.0057438676474345,0.143528039084216,0.144865697776831,15.4780595183709,0.703669332045044,0.677149328346712,0.176077556336915,0.240176335766644,0.103026607016269,0.396516997323654,0.155356646385417,0.0418662091564421,,,,,1.48754464037965,-118.732441752547,1.558944171907,AttemptLanding,AttemptLanding,1,0.408626174789651,0.182284848207702,0.193642383375028,0.901111932357036,0.354210396881658
148,1.70187420973042,2.50248408317566,-0.761129041545177,-1.51110066845358,1.70187420973042,-0.0434858850557704,0.0044112505610185,0.0437090531880497,-0.0324071068916205,-0.121865530703158,0.127137367268683,0.0082004775283183,0.125025001041016,0.127048324172701,15.4137250406887,0.932105680047608,0.856055432981625,0.175839118996538,0.240216023687778,0.131385597452046,0.483494518991024,0.155200482994607,0.0417965371911878,,,,,1.75445964810256,-115.915142708198,1.90439533694551,AttemptLanding,AttemptLanding,1,0.479242787429318,0.188150547942989,0.197067062004636,0.898030603185073,0.341606401132424
149,2.56870196655044,3.0,-0.608071844659302,-2.45905821050482,2.56870196655044,0.0066299085515956,0.0039843376054931,0.0077350264095908,-0.0294882614056601,-0.316873797525431,0.319553561218196,0.0206308615252658,0.209484012728912,0.211983788499223,15.4142048272337,1.80511902511796,1.93748767765699,0.020790613022835,0.0643453300046595,0.122699043249694,0.485573769957401,0.0003736954471033,0.0064252973472224,,,,,2.89228411426449,-102.374592577792,2.22073004498703,AttemptLanding,AttemptLanding,1,0.727383948779961,0.0984601457012432,0.0615786460487515,0.960198497966779,0.345467091889025
150,1.53918889904982,2.40986013412476,-0.661922677183786,-1.3717659609781,1.53918889904982,-0.0597187830350909,-0.004621441508167,0.0598973352396053,-0.0260756602905708,-0.100792406111456,0.105651993449184,0.0068147751843829,0.132574958735536,0.134149112316957,15.4413052339163,0.94327198371006,0.787333444964036,0.175650684338913,0.240169481897113,0.134187521898165,0.359017646516823,0.153981800927414,0.0417354214454418,,,,,1.57055207434036,-114.528428258895,2.33149967694875,AttemptLanding,AttemptLanding,1,0.437280195543344,0.206882206019121,0.207742196468464,0.898577043748104,0.340361101378593
151,1.48182146210928,2.1346161365509,-0.666199135224866,-1.31415583291487,1.48182146210928,-0.0392968460152142,-0.0014296678966868,0.0393228439591833,-0.0246604961546005,-0.0912224865432167,0.0953388193877839,0.0061500858801696,0.0918911428530355,0.0934148612601809,15.3810436126169,0.956130040891848,0.947921081150622,0.176245865792971,0.240168605125302,0.162806972590805,0.434389568387221,0.158400758191876,0.0345395561577967,,,,,1.53043490962982,-115.371127707452,1.91478263252307,AttemptLanding,AttemptLanding,1,0.413835362147845,0.154087989808548,0.175412969462131,0.896916665430324,0.327641345515198
152,2.61736736688327,3.0,-0.648401318883366,-2.50482096294414,2.61736736688327,0.0078699865668267,0.005127607173315,0.0093930316663932,-0.0305502361167685,-0.326450972309842,0.329104686136102,0.0212480554223085,0.192610618592386,0.195186051774798,15.4035096641742,1.94130450434008,1.73156673370668,0.0271499793556723,0.0504724856579922,0.128472748287189,0.46093041024409,0.0218200983953854,0.0045087878388676,,,,,3.0,-103.235441300153,1.61311016830725,AttemptLanding,AttemptLanding,1,0.737001841523831,0.08781439825677,0.0640260196772559,0.957566736308939,0.342901000761249
153,1.49125916005781,2.23782706260681,-0.708765264835214,-1.29525553713916,1.49125916005781,-0.0575553626433553,-0.0051301116093972,0.0577835427620444,-0.029252611666822,-0.0896798284823707,0.0960458905166524,0.006194320037198,0.121255733862465,0.122685919778622,15.4495471641062,0.921253753132565,0.689759244908767,0.175446408290452,0.240160357795774,0.13425456708062,0.412289734141305,0.155577904588008,0.0395549939545954,,,,,1.53053947457772,-117.277382087191,2.27367907265575,AttemptLanding,AttemptLanding,1,0.422206293304474,0.1785714275799,0.190672226085695,0.899618836584449,0.340331303519725
154,2.59616656828262,3.0,-0.621242251357403,-2.48616223938544,2.59616656828262,-0.0160262035563312,0.0168273410010112,0.0232378700743694,-0.0311534407519172,-0.333148154090708,0.336010745711835,0.021694410785604,0.201579893340611,0.203495227702373,15.4025196007435,1.75420403916622,1.61852778693408,0.063017767825478,0.240400818158326,0.140269948591335,0.483713003437428,0.00196144115423,0.0088735150233358,,,,,3.0,-102.931426400997,2.3135996945907,HoldLanding,HoldLanding,0,0.733010130415839,0.0951227983167123,0.0611721633498881,0.941991080310759,0.337657800626073
155,1.62444997317082,2.35103464126587,-0.768166594189601,-1.42006297746138,1.62444997317082,-0.0414443276572944,-0.0042732109838389,0.0416640447757726,-0.0328435013688614,-0.106844928013036,0.112997580888777,0.0072912715270232,0.113095042533972,0.115059129847611,15.353528057722,1.11502366650266,1.11603712142869,0.177307965690892,0.24353694932238,0.14827380048891,0.455965890838438,0.158858411278707,0.0357372334775095,,,,,1.68981233095603,-117.495671617653,2.38361214220692,AttemptLanding,AttemptLanding,1,0.456198485481741,0.171119958530277,0.186271071092444,0.893816253820808,0.33410053311604
156,1.6186947750806,2.39557003974915,-0.706725953073498,-1.44504444309887,1.6186947750806,0.0048145210432145,0.0032628820625299,0.0058160134309967,-0.0278916014007683,-0.109530430728757,0.114009801644217,0.0073623494390915,0.112121283081558,0.113069940319811,15.374424918176,1.94542609911687,2.08218905821185,0.0196428179678152,0.0541713879708656,0.143697727626053,0.44131086093311,0.0003870800316053,0.0055390747222601,,,,,1.64682358488304,-115.230680905002,2.24309725416731,AttemptLanding,AttemptLanding,1,0.454265928085456,0.175863203679439,0.107704166767178,0.958533043351367,0.33613434327731
157,1.63749163698506,2.36540222167969,-0.724296210384319,-1.45612316656739,1.63749163698506,-0.0506042184896235,-0.0118813827636549,0.0519803249828436,-0.0297909874209275,-0.113025410707523,0.1180526746462,0.0076135189023596,0.12522889440528,0.127133794653977,15.4614898443483,0.840113297890021,0.67286855710254,0.175817318565628,0.240183233827834,0.108328328337837,0.381433696132275,0.15756530370792,0.0361688186132419,,,,,1.69535374865113,-115.407012304463,2.21382123685331,AttemptLanding,AttemptLanding,1,0.462091195460144,0.173309607803146,0.187167086229617,0.900203626142244,0.351854076294294
158,1.62896839106405,2.39526557922363,-0.761708076850001,-1.42169551046507,1.62896839106405,-0.0612526183422752,-0.0052488482559119,0.0614770986774589,-0.033512535758009,-0.108590875105656,0.115563568776093,0.0074536481425664,0.132397758381382,0.134145104597381,15.4391161240934,0.952703829105851,0.798877426398182,0.176151944530025,0.240220041394924,0.140356793410158,0.44723424041692,0.158409615886933,0.0351055112330153,,,,,1.65925020896733,-117.23842078182,1.72686746143744,AttemptLanding,AttemptLanding,1,0.46122059186989,0.183687668760107,0.193382515431959,0.898161603584599,0.337619202928819
159,2.56572956225545,3.0,-0.731701492618309,-2.4229449920546,2.56572956225545,0.010951600129864,0.0061073759183901,0.0125394412161375,-0.0378784383268317,-0.307182160048491,0.311413928511939,0.0201132897818235,0.20861208714129,0.211010379431225,15.3769775644589,2.06803069691508,2.16386369589333,0.0256687212657616,0.0601555313974713,0.134275012114442,0.46955816263155,0.0105237300392368,0.0062293101780251,,,,,2.88835322200788,-105.56852442763,1.97222281983666,AttemptLanding,AttemptLanding,1,0.726396625821032,0.100009746048815,0.0669482646811612,0.953915040566482,0.340322216838026
160,1.50867567030159,2.25959467887878,-0.661760298865914,-1.34427911490894,1.50867567030159,-0.0463586022077881,-0.0082249557695195,0.0470825859110403,-0.0246955122043861,-0.09604152917691,0.100122296189698,0.0064585145708228,0.103641518982709,0.105259335390237,15.4180291249587,0.98723588500186,0.88704302930191,0.176217536265475,0.240169710540399,0.133737298830044,0.438374455393471,0.158777799869311,0.0348373439165832,,,,,1.56544004446909,-115.546181583882,1.89688011513206,AttemptLanding,AttemptLanding,1,0.423365379158472,0.177588584346892,0.189789186721738,0.897164754683447,0.340561200519981
161,1.64762050593459,2.28321433067322,-0.767171095016992,-1.44352450304588,1.64762050593459,-0.0468821206713618,0.0188457051102884,0.050528148983988,-0.0335548599286264,-0.111180076023437,0.117695265418027,0.007590611632942,0.122106805937823,0.123935570071627,15.4707298108822,0.766954000425303,0.794915932126045,0.175403704971446,0.240208917727047,0.152501486315782,0.379922633227015,0.155933335702687,0.041216902512385,,,,,1.70136515468512,-117.053321105748,2.15648203742981,AttemptLanding,AttemptLanding,1,0.46415258226355,0.152272104546588,0.175654932034661,0.900026312329945,0.33222156163743
162,2.41505980001737,3.0,-0.613384437615098,-2.30175988273651,2.41505980001737,0.0119021346018306,0.0068329046660986,0.013724044384076,-0.0298058270767376,-0.296894111992594,0.300003671814023,0.0193506951086401,0.208690693877334,0.210392626645678,15.4187693125101,0.947259214965988,0.827520706809544,0.0298469649131735,0.115352566350548,0.330264659342518,0.703840347847236,0.0129532259066392,0.0109224653536215,,,,,2.85921158454158,-105.062668776886,1.73374115313196,AttemptLanding,AttemptLanding,1,0.686094472000434,0.134127619799839,0.0902053667548782,0.971131818158034,0.253215706958881
163,1.64698801504686,2.35372352600098,-0.768750721394872,-1.44409677492106,1.64698801504686,-0.0430952972926308,0.0012054977237444,0.0431121545912772,-0.0333600472246473,-0.110404318236085,0.116744608226621,0.0075291053370071,0.118411079805413,0.12030894408834,15.4548257024419,0.850710884941475,0.65867627755484,0.175539966132219,0.240206757961494,0.108442723434603,0.40421681542094,0.156235626707904,0.0401429620197869,,,,,1.71874998102098,-116.787170824054,2.04412389919003,AttemptLanding,AttemptLanding,1,0.463258592830163,0.166919384973078,0.184187128032939,0.90037054637142,0.351803234029065
164,2.51265695388766,3.0,-0.775883877761556,-2.35274580985566,2.51265695388766,-0.0294110175197821,-0.0037980069917689,0.0296552323993331,-0.039079922596238,-0.291802382862567,0.296673357270498,0.0191486779440139,0.227934861064011,0.229662714073385,15.3972852543252,1.55086587922474,1.45779330828522,0.063020510837593,0.240224984400123,0.115999608068208,0.476917954464079,0.0018784181903376,0.0076090798471222,,,,,2.64390369362176,-106.697557678757,1.75764099818583,HoldLanding,HoldLanding,0,0.71597439718472,0.11508897798182,0.0726551774443574,0.944850279536482,0.348444618636352
165,1.59396023638296,2.24091172218323,-0.689638526540656,-1.42565766002827,1.59396023638296,-0.0489450491121305,-0.0018284759953448,0.0489791910616582,-0.0269630695646121,-0.107290162901718,0.111619790202161,0.0072003024335502,0.105342336259808,0.107113287144554,15.425018365444,0.894024097316621,0.974736794081186,0.176147545866856,0.240181562622261,0.17466517870657,0.508511013819663,0.155093242141051,0.0423984057956588,,,,,1.65443912380199,-114.70021335318,1.62843456789172,AttemptLanding,AttemptLanding,1,0.446478720464368,0.154543602666363,0.177074093547798,0.897243105777018,0.322371031685969
166,1.66707083732388,2.68672347068787,-0.733613822407172,-1.47846354949749,1.66707083732388,0.0038651348295337,7.98390619509684e-05,0.0038659593280695,-0.031346866336147,-0.115709704147382,0.121599820127107,0.0078505158251627,0.134597052118521,0.135482421329246,15.4237675164771,1.97254202349141,1.66158031691689,0.0272099885453697,0.0483583097143031,0.130866784446351,0.394661264847226,0.0212947454243949,0.0060420388435597,,,,,1.6985678915868,-115.061450151433,1.63959463669215,AttemptLanding,AttemptLanding,1,0.471648707552217,0.230130601717043,0.149739797363978,0.957841187338393,0.341836984690511
167,1.50312315531679,2.1052622795105,-0.694493052538529,-1.32163980187626,1.50312315531679,-0.0476504456000234,-0.0084148777391758,0.0483877580927869,-0.0269200807856043,-0.0920628124095341,0.0969540512273646,0.0062547374436139,0.0991607741403615,0.100731961131471,15.4052139365295,0.88780971803384,1.03378198502874,0.176043371378262,0.240161732546798,0.150775915632105,0.38547055270547,0.15567342637424,0.0394365658984242,,,,,1.53242316823457,-117.234742424214,2.38964058202062,AttemptLanding,AttemptLanding,1,0.420979233644105,0.144352391927262,0.170140194073628,0.896880093786806,0.332988481941287
168,1.72583652348132,2.49248075485229,-0.841521361290954,-1.48594285717949,1.72583652348132,-0.055411814697197,0.0163281351209077,0.0577674406959761,-0.0405700520527966,-0.117584631834383,0.126957473268972,0.0081899405100676,0.13791351442076,0.139916431694421,15.4013104237641,1.01948538035204,1.0156633288021,0.176339381996847,0.240217556413732,0.148307955835425,0.485671342280573,0.158168746421556,0.0370111207469944,,,,,1.76822611766951,-118.998443980142,1.62740726983925,AttemptLanding,AttemptLanding,1,0.488206359267235,0.183085649519399,0.193607199705985,0.895839854858223,0.334085352962033
169,2.47148076267944,3.0,-0.769901117097543,-2.31447580189809,2.47148076267944,0.0101480242160847,0.0067277996374879,0.0121756184012322,-0.0404086429211323,-0.283501424904124,0.288520167374215,0.0186304082539849,0.221668576465487,0.223908384133249,15.3929391528116,1.87424006107242,1.99375141801484,0.0214336411437935,0.0514753606003787,0.124335985641772,0.459028315788522,0.0024128312901835,0.0074424501080834,,,,,2.66549340284327,-107.193726307889,2.17745898557767,AttemptLanding,AttemptLanding,1,0.703843213541167,0.121149025104018,0.0764681300185633,0.958891817806703,0.34473956193699
170,1.74673775643916,2.44972062110901,-0.782754538812842,-1.54855365442897,1.74673775643916,-0.0486327403817683,-0.0121245398716145,0.0501213318272654,-0.0347597559326909,-0.127139030484353,0.133125289985952,0.0085875874039745,0.115653382442465,0.117799301850092,15.3969989414258,1.03292210755115,0.857078417192639,0.175653269068861,0.240200957483081,0.13957087240461,0.397908734456854,0.156901421968247,0.0404925510489822,,,,,1.77840570795084,-115.675983280215,2.25114724337356,AttemptLanding,AttemptLanding,1,0.48935659542046,0.167360055385715,0.184874562568462,0.897323361342583,0.337968501153507
171,1.63216630779967,2.27651357650757,-0.79625677975713,-1.40502316925548,1.63216630779967,-0.0585608825521741,0.003024249307852,0.0586389209413473,-0.0363841273365364,-0.105295970680575,0.113682892419634,0.007333789957569,0.133051318893486,0.134823352394645,15.3845638640782,1.00301442534942,1.02271220792028,0.176570648410194,0.240213745664051,0.144787682233098,0.492567508720859,0.160137140929302,0.0361165989229228,,,,,1.68221562017466,-118.331726157389,2.04527691226211,AttemptLanding,AttemptLanding,1,0.462209019225508,0.155728604298524,0.177742533913605,0.895798252247784,0.335649919007512
172,2.42593313778523,3.0,-0.853991201360031,-2.23795254511609,2.42593313778523,0.0070044712020014,0.0090243269404445,0.0114237075219782,-0.0467637339450427,-0.266258627490173,0.27294459833283,0.0176269840598791,0.223912115321898,0.225995700377224,15.4212893927414,2.02047590695594,2.18938096397309,0.0206230094042413,0.0522876975432932,0.13955928675938,0.411676463502614,0.0002021170032536,0.0086563391217585,,,,,2.5789773418386,-109.450212225276,2.21132860310045,AttemptLanding,AttemptLanding,1,0.69211464348484,0.131259390377352,0.0819932236862746,0.956611048454866,0.337973650329164
173,1.5525501193227,2.18597722053528,-0.72841340198045,-1.35918607690387,1.5525501193227,-0.0447820922568875,-0.0073753234789636,0.0453853630956472,-0.0294600859692181,-0.0980106368386179,0.103512782952486,0.0066763936225584,0.105723400906213,0.107358140220424,15.4613378016617,0.877239165467843,0.837452694170544,0.177079153975135,0.24017318647636,0.142661545955725,0.401745360513093,0.159813443823477,0.0365185964210641,,,,,1.60572032516396,-117.151648626796,1.67054640717111,AttemptLanding,AttemptLanding,1,0.435484993196805,0.150841747673699,0.174812735466758,0.897987844115274,0.336594868464122
174,2.31744395477184,3.0,-0.763481528959004,-2.15437364435545,2.31744395477184,-0.0259609686967139,-0.0056025094826938,0.026558614575603,-0.0373899692644806,-0.249309805031636,0.254341818246373,0.0164208671960753,0.233139222931429,0.234598936402645,15.3802061457514,1.79269423720865,1.54904308587665,0.0631461016304035,0.240216138232708,0.13706172670918,0.420581860235763,0.001936034559544,0.0090328838318523,,,,,2.36078838964489,-107.709824257803,1.66793080308943,HoldLanding,HoldLanding,0,0.664904841886354,0.158444189515196,0.0992116585431237,0.942170441646271,0.339083677018142
175,1.64874757056268,2.4224739074707,-0.806363011615732,-1.42548614544021,1.64874757056268,-0.0433697806172318,0.0097615789381108,0.0444547668327232,-0.0360721883145228,-0.107537668135882,0.114899625141148,0.0074102002169529,0.110195910244738,0.111995573147282,15.4426153723756,0.712542928205902,0.833888535173222,0.176445637194364,0.240188065007905,0.130672285072417,0.47172085315864,0.15683900217288,0.0401330749404971,,,,,1.70036876942666,-118.357386427334,1.7390679846771,AttemptLanding,AttemptLanding,1,0.462065133446172,0.182238466390304,0.193643148455037,0.899626648476268,0.341923428856704
176,1.75410346622052,2.77412438392639,-0.880738742663265,-1.48886283688055,1.75410346622052,0.0058487838918063,0.0021910955890721,0.0062457323744701,-0.0462245991062771,-0.120116664968347,0.132505231767197,0.008556724671267,0.181571058100549,0.1825933756263,15.4202956544309,2.05159891011033,1.97808485711996,0.0272265233173392,0.0513228363531467,0.144631744443782,0.412829215561697,0.0190388147181032,0.0059376490901973,,,,,1.79740384781532,-119.424856454763,1.61330780163758,AttemptLanding,AttemptLanding,1,0.504279599450733,0.23064975741914,0.14901069500546,0.954724937313092,0.335719224691652
177,1.96661273665076,2.68071842193604,-1.0069592068575,-1.67218270675262,1.96661273665076,-0.0558930076986813,0.0059894118946077,0.0562129999595122,-0.055746969002013,-0.147900962904575,0.160567539076342,0.0103558098684831,0.136611042162491,0.139186213911177,15.4523829765355,0.836267714960838,0.874629447215698,0.176404625421619,0.240269065509499,0.132360955988322,0.414432704285332,0.156810970645605,0.0404224844734406,,,,,2.00389774569212,-119.82849383685,2.19831599050669,AttemptLanding,AttemptLanding,1,0.552267305889105,0.170979495848431,0.186980547503507,0.898354923872089,0.341172908449634
178,1.81502212060464,2.680251121521,-0.97028184763546,-1.50094697823694,1.81502212060464,-0.0739501393122765,0.0031684875862447,0.0740179871240045,-0.0561784683868421,-0.123896806959674,0.141211998779893,0.009108977842862,0.184015951603926,0.186173753735374,15.4006802657113,1.01400474099687,1.05846185077653,0.175881549093247,0.240317585123005,0.171101604770201,0.506763308783754,0.15765169816658,0.0405232314758613,,,,,1.88108853169074,-121.75609313085,2.10441809938937,AttemptLanding,AttemptLanding,1,0.52124064957498,0.208246489512247,0.209751035651394,0.895775559375157,0.323954842324355
179,2.4975233309245,3.0,-0.660735857299758,-2.37607545248644,2.4975233309245,0.0041179065830828,0.007177463186419,0.0082748493895295,-0.0318586040042078,-0.297332967617929,0.300509411669708,0.0194146592862577,0.211671703645839,0.213967424767084,15.3719815613141,2.37557685401103,2.02745848536915,0.0237036429578237,0.0581221697500788,0.148628517211115,0.475875296892038,0.0074411214066888,0.005784530868133,,,,,2.73243854491602,-104.018907315581,2.04850022497353,AttemptLanding,AttemptLanding,1,0.708799706533284,0.114574306263401,0.07415521459791,0.95355290085453,0.333942881239504
180,1.79614127930757,2.65639543533325,-0.919474083653856,-1.51307632712432,1.79614127930757,-0.0859308922978115,-0.0180694037741634,0.087810145221676,-0.0516185536384857,-0.125231773408538,0.139817248856279,0.0090185855253575,0.176777358085223,0.178963374889337,15.3773427111733,0.964406099542808,0.994382221194844,0.176660707025347,0.240269370694013,0.139056600033193,0.462548213891958,0.158750048864397,0.0357481096034897,,,,,1.85620598441334,-119.444845846151,2.09697553158633,AttemptLanding,AttemptLanding,1,0.51476368279322,0.209655711729752,0.209348316894003,0.896279166824388,0.338197066651914
181,1.8510480735126,2.57773065567017,-0.90419063786241,-1.5972110311899,1.8510480735126,-0.0552439635213146,0.0059003166519808,0.0555581608959294,-0.0463239790860879,-0.135849464064294,0.145874371413617,0.0094107254157821,0.148780022561532,0.151172627117924,15.3741241161704,1.0357771792872,1.07426873631485,0.176361468765563,0.24023346148754,0.178171790773899,0.529022639939515,0.156339754428239,0.0394309980439556,,,,,1.8944468966032,-118.434379956689,1.8310461336971,AttemptLanding,AttemptLanding,1,0.523847345026944,0.173689243816374,0.18803642633452,0.895240333423202,0.320812537433823
182,2.43923822613464,3.0,-0.452279302103381,-2.36652966880475,2.43923822613464,0.0056898174692675,0.0077851278678145,0.0096427298392003,-0.0189870175132984,-0.296405743116719,0.297665095713866,0.0192205502972667,0.219241567184849,0.221585199621778,15.4168421735392,1.86279423066525,2.08419014971726,0.028176076496657,0.0504375661671837,0.134420958247584,0.451547434137543,0.0201222847308171,0.0063079928987167,,,,,2.61222307005049,-99.3162222201901,1.59852367654218,AttemptLanding,AttemptLanding,1,0.694780566893593,0.127939232923559,0.0880005930118097,0.954899941620095,0.340257351889963
183,1.81410889770534,2.53196334838867,-0.954778953623679,-1.52200256048047,1.81410889770534,-0.0571698992790082,-0.0025277340567159,0.057225753145183,-0.0513562097791048,-0.123148834149214,0.136485198444856,0.0088066278603593,0.13985207327369,0.142026469952185,15.3552734843612,1.17473287409922,1.15190809851754,0.177188147528753,0.240239845840414,0.15877141831712,0.441288343560751,0.158701538589751,0.0341841330364754,,,,,1.87171872539055,-121.350351106356,2.03940271155935,AttemptLanding,AttemptLanding,1,0.51216766671186,0.172008639480367,0.186169794670666,0.893125175736492,0.329434925192391
184,2.49518188260826,3.0,-0.239968715163759,-2.44865440870113,2.49518188260826,-0.0141854183433676,0.0049700187130551,0.0150308742122496,-0.0106273432598123,-0.323365305351906,0.323917111406672,0.0209027075658019,0.227725399716306,0.229409202479836,15.3757447223203,1.38168298482965,1.3091540023822,0.0797506856595644,0.247050618444367,0.283866120934562,0.715839392884792,0.0791054754405997,0.119648970353055,,,,,2.70378156394852,-95.0700514349474,1.62220382578536,HoldLanding,HoldLanding,0,0.711263675858171,0.116339736685386,0.148470547587963,0.93898236655641,0.273837279584639
185,2.11739817583883,2.97650289535522,-1.22874653825995,-1.7076186032371,2.11739817583883,-0.0599874987309035,-0.0014991935302595,0.0600062295535332,-0.0831802946138396,-0.154919123355537,0.179310417663192,0.0115645126225322,0.145616761713901,0.148509640656326,15.48057663568,0.803523214788296,0.912704403651467,0.177184293265538,0.240352044597522,0.160702605039139,0.376103207391065,0.159335526346855,0.0364412017092356,,,,,2.15708888634091,-124.745911655981,1.53251611991892,AttemptLanding,AttemptLanding,1,0.594341441688287,0.204299703976003,0.206646957949178,0.897923207793776,0.328576619982605
186,2.06470691200881,2.86941766738892,-1.12843144821596,-1.71298340403583,2.06470691200881,0.0046368897732758,0.0020417043916257,0.0050664882899592,-0.069394373094929,-0.153734416620634,0.171647830164448,0.0110851672567455,0.147955513883716,0.149437286429757,15.3853559963166,1.92763394783502,2.14323318978728,0.0151739605811371,0.046268035608624,0.148451993136977,0.434809996412619,0.000459786682601,0.0081749781664736,,,,,2.10837557196529,-122.363616262261,2.44390948470174,AttemptLanding,AttemptLanding,1,0.580475967154969,0.181988776147015,0.112370334658184,0.960427635056685,0.334021336383566
187,2.05886323065371,3.0,-1.12434273363569,-1.68995026273598,2.05886323065371,-0.0876045856227622,0.0095983793022497,0.0881288392489413,-0.0740708867153651,-0.157080564659331,0.180114641690517,0.0116190092947851,0.200991382102735,0.203739109569556,15.4083352295914,1.01722083632994,1.10858131566581,0.177176267863924,0.241249748730414,0.176617324365381,0.47337578743143,0.158047293299517,0.0373249587536349,,,,,2.09849345512064,-122.244984043751,1.65875116707549,AttemptLanding,AttemptLanding,1,0.589778016754901,0.227912726965221,0.220563589919634,0.894709134873786,0.321503411393164
188,2.02965074213775,2.76781964302063,-1.15718722595265,-1.6534909209364,2.02965074213775,-0.0525449037612084,0.0026114539169014,0.0526097576770199,-0.0726733698073889,-0.14434408751082,0.164294227461055,0.0105983009711382,0.122581756196915,0.12530335481563,15.3843085596977,0.997731481724192,1.06875644873779,0.177383857316648,0.240266597046169,0.187817555325994,0.516416369527652,0.158184080629284,0.0347116371528424,,,,,2.08252249604559,-123.526280590972,2.16967964811236,AttemptLanding,AttemptLanding,1,0.566300868866527,0.175733124939434,0.188366324309022,0.895071380459475,0.316525530966225
189,2.47871616931265,3.0,-0.76899545574131,-2.32414148567674,2.47871616931265,0.0087964390745494,0.0056924057354439,0.0104776344395658,-0.0398122316939507,-0.28618748622381,0.290955746663802,0.0187927372541776,0.216044657560788,0.218220511638617,15.380939425827,2.15248327597277,2.03412279493576,0.025652348447313,0.0525041267050385,0.141313301052422,0.42750568791252,0.0095151399801302,0.0080669643281031,,,,,2.71977714743149,-106.924123588306,1.97284111947905,AttemptLanding,AttemptLanding,1,0.704635080811096,0.119209761551908,0.0786882496072808,0.954279063790634,0.337194088421146
190,2.00936841964722,2.82024264335632,-1.09081003554912,-1.67378673955452,2.00936841964722,-0.0523859386456726,-0.0009883338283738,0.0523952609645613,-0.0647411540604038,-0.148260000648892,0.164159292259768,0.0105893159668284,0.141407459253189,0.144093077059507,15.4235913567119,1.00414461128088,1.01453537557242,0.176123989969414,0.240317211759817,0.174327864612938,0.438749022326309,0.155750076405216,0.0406354869207483,,,,,2.06580628279313,-122.281189709167,2.06946849540481,AttemptLanding,AttemptLanding,1,0.564650193984492,0.192052498178052,0.199230295785381,0.896076947975732,0.322520949060916
191,2.02161065549464,2.7929379940033,-0.990271346716633,-1.74645613815601,2.02161065549464,-0.058214170052242,0.0041910096921097,0.0583648366493963,-0.0543692197731972,-0.161344862876572,0.17256597199468,0.0111318796117501,0.139655552934318,0.142523913114041,15.4059896468498,1.00397984173112,1.00524249642929,0.177230182360551,0.2402757286458,0.165300031255797,0.511096813762543,0.157234979251445,0.0351392798690589,,,,,2.07634549688122,-118.754548572983,1.91367789304667,AttemptLanding,AttemptLanding,1,0.567600957421379,0.184248871216837,0.19320945568313,0.895598161877036,0.326533319441868
192,2.46551791202264,3.0,-0.946205686442568,-2.24360449289253,2.46551791202264,0.0083273354954261,0.0052932041586511,0.0098672451433288,-0.0552995351716035,-0.266057581649823,0.275190598411176,0.0177760601246686,0.217244560946779,0.219332932971855,15.3751575513472,2.24767408739105,2.17822053500196,0.0164203450498746,0.0699204251942767,0.143509163685788,0.493647676499133,0.0002292678870657,0.0089597211617021,,,,,2.68099720733185,-111.612146549017,2.41266324154659,AttemptLanding,AttemptLanding,1,0.701338029800409,0.122067464737849,0.0766004561038422,0.957014941156261,0.336218149472983
193,2.0389259360932,2.92005062103271,-1.06126771384357,-1.72616277004965,2.0389259360932,-0.063589739289426,0.0112859729782352,0.0645834973422981,-0.0616937122778181,-0.157407809738321,0.171468190215193,0.0110606945711326,0.137419089515164,0.140214935128149,15.420638714056,0.928744013952345,1.05589463142587,0.176983719773819,0.240300443106179,0.138855344176445,0.439355005047796,0.160383394790598,0.0356715260456063,,,,,2.11900443077325,-120.570247299149,2.2300599017602,AttemptLanding,AttemptLanding,1,0.571756569983817,0.210093361957479,0.210308989986893,0.895914550756548,0.338286513699358
194,2.4205631789203,3.0,-0.945287920442733,-2.19478967545497,2.4205631789203,-0.0126767039328318,0.0150983670433216,0.0197144492688874,-0.0573037562778246,-0.264700948202267,0.274654383969959,0.0177326942942333,0.225672558363687,0.22722471390636,15.3173560349017,1.62237735481981,1.67774325201977,0.0626277100717878,0.240417830806364,0.137243984479749,0.504421583360227,0.0019797541564749,0.0093692676967397,,,,,2.61715863552686,-112.220792726245,2.31120892403814,HoldLanding,HoldLanding,0,0.690928457160019,0.133987600442228,0.0846794574367263,0.942756625910367,0.339002673564556
195,2.03283172443106,2.76191449165344,-1.01573033440646,-1.74631412979413,2.03283172443106,-0.0442287140331987,0.0117209132368342,0.0457554253847111,-0.0566745988017809,-0.161295625947689,0.173108774639974,0.0111685706066693,0.15008879589463,0.152891979657219,15.3955710431518,1.08943023710236,1.09957688429122,0.176787201400362,0.240289711419504,0.158881248873025,0.405488515713863,0.157520387071638,0.0411167999726396,,,,,2.08957514186263,-119.371133784789,1.6184872578286,AttemptLanding,AttemptLanding,1,0.572666855779728,0.172432117278899,0.188419894914482,0.894407057631726,0.329386111611989
196,1.94006901042517,2.75348711013794,-0.9114722912676,-1.69125465259558,1.94006901042517,0.0064969739811097,0.0029963570376543,0.0071546367069417,-0.0473172007736889,-0.15110520927292,0.161019024192377,0.0103973944741955,0.153019493929216,0.15423015555421,15.4209891965905,2.16488486142308,1.78474305060669,0.0273903561460202,0.0479570899009039,0.1343307627332,0.412796558014926,0.0201405421007784,0.0055048417177243,,,,,1.98818975952798,-117.123132335998,1.53057069017866,AttemptLanding,AttemptLanding,1,0.548197767224221,0.184330755831645,0.121551566168405,0.955272031189613,0.340297438785244
197,1.88468743170668,2.62014985084534,-0.8275807811789,-1.67880764162837,1.88468743170668,-0.055044721055884,0.0010526143962104,0.0550547846529908,-0.038364007877421,-0.1487981639244,0.155155577185433,0.010009181491087,0.12848454363775,0.130935856928894,15.4243137236343,1.0787616781036,0.926220253030558,0.176527368591034,0.240230821620105,0.153562010568342,0.407794390161509,0.155516509970787,0.0410356679776541,,,,,1.96491164649544,-115.571452830696,2.33309971766696,AttemptLanding,AttemptLanding,1,0.52877048650756,0.17557242149258,0.189383962854236,0.895982886245572,0.331750217525181
198,1.8154479961943,2.72289371490479,-0.808084962644219,-1.59688623312258,1.8154479961943,-0.0790920752340481,-0.0099342636176281,0.0797135243133363,-0.0408429031030785,-0.138869242980418,0.147983704971881,0.0095476122586831,0.183647349967938,0.185883352011281,15.413941850534,1.02381635701618,1.06324567767308,0.17657968494853,0.243423189892565,0.144700486267161,0.432524612296129,0.158232608650354,0.0359384394394349,,,,,1.88489007794024,-115.359098105949,2.22110126166419,AttemptLanding,AttemptLanding,1,0.521296136054069,0.218789432833971,0.214667786977506,0.895311812967462,0.335688672770151
199,2.47606544231491,3.0,-1.12623334574716,-2.17099342946494,2.47606544231491,0.0098253733093824,0.0088064161800679,0.0131943520722045,-0.0747565437358084,-0.250280563601203,0.266230831012279,0.0171903579441318,0.217190967184917,0.219173940877555,15.4125222730567,1.96519288591312,1.7979701656972,0.0223371754644872,0.0476574252544532,0.130926784856088,0.435636981992611,0.0031376416856558,0.0062906611249245,,,,,2.68563096804021,-116.007396076949,2.14365340117496,AttemptLanding,AttemptLanding,1,0.704118906126155,0.120304240025715,0.0758645645676124,0.959263702576532,0.341810317841739
200,1.90308615887487,2.57904648780823,-0.820692588506444,-1.7026127314696,1.90308615887487,-0.0526141729122266,0.0007567771827493,0.0526196151918846,-0.037991850686176,-0.154208579357039,0.160324191141596,0.0103414012512059,0.134333492148859,0.136729855425038,15.4169395439533,1.05928238957873,0.840151116507208,0.176172532953719,0.240278518632012,0.142044712954772,0.408981438113262,0.160028439146967,0.0374031025140685,,,,,1.97177383483815,-114.893051128023,1.5246221944205,AttemptLanding,AttemptLanding,1,0.53483561345164,0.16173800346185,0.181767680996029,0.896989613118179,0.336869016464546
201,1.82214454460788,2.53415775299072,-0.760455021248914,-1.64080619201039,1.82214454460788,-0.0548193476070689,0.008302855344282,0.0554445513908511,-0.0327638684354768,-0.1431186055107,0.148088113250113,0.0095523807425888,0.131856333884747,0.134058024380653,15.4278685540215,0.977122954745273,0.964431665076269,0.176554074123834,0.240239242902811,0.184134984030886,0.465212839696714,0.160273934573416,0.034479130384819,,,,,1.87135485490829,-114.338554000358,2.22534601000756,AttemptLanding,AttemptLanding,1,0.512716816771566,0.170367806307795,0.185991409189564,0.896467890925199,0.318162229319606
