scenario_id,mean_wind_speed,max_wind_speed,wind_velocity_x,wind_velocity_y,wind_velocity,wind_acceleration_x,wind_acceleration_y,wind_acceleration,wind_body_force_x,wind_body_force_y,wind_body_force,mean_wind_body_risk,mean_wind_gust_risk,mean_wind_risk_raw,min_thrust_margin_n,mean_abs_roll_deg,mean_abs_pitch_deg,mean_abs_vz,max_abs_vz,mean_tag_error,max_tag_error,stability_std_z,stability_std_vz,mean_imu_ang_vel,max_imu_ang_vel,mean_imu_lin_acc,max_imu_lin_acc,wind_speed_cmd,wind_dir_cmd,hover_height_cmd,gt_safe_to_land,label,success,onto_wind_condition,onto_gust,onto_temporal_pattern,onto_drone_state,onto_tag_observation
1,2.04478953064305,2.69862031936646,-1.26509634761815,-1.5879292088813,2.04478953064305,-0.0642903214875966,0.0111225677814765,0.0652453596130182,-0.0865991451548571,-0.132599703685656,0.162300220693839,0.0104687164675148,0.126609837095854,0.129376537009748,15.436469306774,0.775939775269114,0.991376542124251,0.17758889383061,0.240284970084534,0.166001923262726,0.453043751427704,0.158840782977063,0.035810032737012,NaN,NaN,NaN,NaN,2.0716688985117,-127.374480982322,2.31472368639318,stable,stable,1,0.571152515573428,0.159073576725154,0.17906187966664,0.897319496305176,0.326221367438788
2,2.3135692004076,3,-1.34000067950793,-1.84553660507841,2.3135692004076,0.024355472699859,-0.00995064832265448,0.0263097786473913,-0.101817377135304,-0.1861882672774,0.221862976910913,0.0143134317184022,0.233236627451344,0.234854536366089,15.41494131697,1.20683554538154,1.04170168700084,0.0264019481549086,0.137847857151163,0.217497500584547,0.61214125413046,0.00254510116512507,0.0049877203645276,NaN,NaN,NaN,NaN,2.42882567996652,-126.095851442396,2.32706635135918,stable,stable,1,0.663922694048577,0.159270389326979,0.098507106165768,0.969131947668113,0.303334444184646
3,1.64436007232566,2.68910193443298,-1.03183534818059,-1.26483168408229,1.64436007232566,-0.0439542399383372,-0.0143448488697501,0.046235807526774,-0.0641613180303154,-0.0943016160519786,0.117064982987455,0.00755004311979483,0.142496814015189,0.143388772858448,15.449460002388,0.567829126382399,0.943998768799263,0.166419543120428,0.246942890976439,0.228287013312445,0.457387363698462,0.192395870965756,0.00528194774756739,NaN,NaN,NaN,NaN,1.87319628751653,-127.297520073929,2.46577494169175,stable,stable,1,0.467173773858533,0.243543483687389,0.233556074469057,0.90491158069193,0.298539105194469
4,2.3058566476507,3,-0.61695610749456,-2.18922492172827,2.3058566476507,0.00438944289578571,-0.00278807981571161,0.00520005749911884,-0.0301576382739728,-0.263230411756013,0.266508470480691,0.0171894352060619,0.220944711538871,0.221465316420758,15.446250056381,0.91893557881447,0.762989299712499,0.0615848447423682,0.242719226122163,0.318647943045519,0.780069754888349,0.00535298048529338,0.00837295047906553,NaN,NaN,NaN,NaN,2.46779887999601,-105.553838771394,2.45316151647757,unstable,unstable,0,0.659188169324337,0.157135598153432,0.099705170595082,0.955992453583247,0.258378691979769
5,1.75013876219054,2.72726106643677,-1.01552207091898,-1.40058646097484,1.75013876219054,-0.0516601110336449,0.00873962900181261,0.0523941617653899,-0.0624257863169461,-0.113112837388108,0.133794948568134,0.00863466738413344,0.163667666279968,0.16483695427552,15.3712960790181,1.08035108347946,1.12971029045574,0.177973212182231,0.247392920249048,0.239583554525865,0.45249471770516,0.159892964336513,0.00637242548676872,NaN,NaN,NaN,NaN,1.88084050141636,-125.058018224367,2.27023784750877,stable,stable,1,0.49967106077258,0.229458114779057,0.211055654204103,0.893648625970822,0.293518420210727
6,1.8890599363225,2.52492237091064,-1.04304489956586,-1.56006109606769,1.8890599363225,0.00390170602112877,0.00175783224567321,0.00427940230397202,-0.059158394858888,-0.12781845809754,0.143341858248346,0.00925400872598155,0.124691738768338,0.125848669626563,15.425824270203,1.82949658919153,1.80101315344628,0.0305919166438651,0.0532977257273509,0.117731818501306,0.465936835233006,0.0213573258802463,0.00502810023040099,NaN,NaN,NaN,NaN,1.9161886291726,-122.783489357006,1.64545787275238,stable,stable,1,0.528919050277978,0.143853604871395,0.0976327078422842,0.956178607985913,0.347674747332753
7,1.93261363135802,2.60722398757935,-1.07928858774671,-1.58568400233007,1.93261363135802,-0.0553996712088993,0.00369735963346756,0.055522914533671,-0.0637806152009878,-0.133183644901837,0.150750465487419,0.00972433187531161,0.129842382517169,0.132258212180755,15.4261202787691,0.821754764686921,1.11459381395655,0.176241804630251,0.240241862365921,0.170433723814359,0.441908239723849,0.159108598660959,0.0364044779510276,NaN,NaN,NaN,NaN,1.96867067391655,-123.586570068552,1.85031636382627,stable,stable,1,0.541815277464956,0.161966531147638,0.181132843408979,0.896664930281247,0.324251678304729
8,1.91487019609761,2.79020690917969,-1.13166189163813,-1.52198397366966,1.91487019609761,-0.072762593151231,-0.00456858228697985,0.072905877034739,-0.0711770005460598,-0.124912415658264,0.148135300892815,0.00955390872759904,0.16140595888715,0.163787062319152,15.4652290572884,0.832323817450989,0.871099993234505,0.176138263135518,0.240274084095075,0.173290666521136,0.422371784731202,0.159466140853608,0.0355825381995008,NaN,NaN,NaN,NaN,1.96461919299708,-125.030810267647,1.72212340450204,stable,stable,1,0.543389464756525,0.210316837899837,0.210003047919102,0.898546824205426,0.322981925990606
9,2.6235187316818,3,-0.803777318365315,-2.46412043339175,2.6235187316818,0.0111301294113867,0.00345450854970091,0.0116539010650585,-0.0425176881492727,-0.316139011164117,0.321065365838487,0.0207317009922671,0.191487508093049,0.194099702651085,15.3953641360691,2.08823383189518,1.85598823316455,0.0301251735790716,0.0746624423475835,0.134197797257465,0.535284878836923,0.0242660350131633,0.0090506430735585,NaN,NaN,NaN,NaN,2.98365709536118,-106.900241715489,1.68679911651546,stable,stable,1,0.738424935645363,0.0868448339001895,0.066182947726248,0.953947096984995,0.340356534552238
10,1.88692913989763,2.63790678977966,-1.13418579360687,-1.48613820327037,1.88692913989763,-0.0632563007679179,0.00378872892227154,0.06336966193446,-0.071066982582723,-0.118382952252649,0.142365491848319,0.0091819160850802,0.153833590425961,0.156106598904199,15.4692811731436,0.892500452722895,0.877711961851482,0.175864379657631,0.240249483143963,0.15627905748289,0.371058632375611,0.158447272215839,0.0350574895208962,NaN,NaN,NaN,NaN,1.92399487038037,-126.353098118705,2.34473474123082,stable,stable,1,0.534402423753541,0.180587742578108,0.19152183342817,0.898158998342386,0.330542641118715
11,1.84877067321056,2.70789217948914,-1.15402483846057,-1.42774311267905,1.84877067321056,-0.0443810547178419,0.00359954571762509,0.044526786850629,-0.0728557185021255,-0.108474262169704,0.133948182688539,0.00864309953355954,0.12489669404355,0.127085615760734,15.3720987994573,1.09113343053885,1.24705175240353,0.17631978297465,0.24021774948975,0.180369153893431,0.53558858338712,0.156985398744101,0.0420323297284319,NaN,NaN,NaN,NaN,1.90759543141243,-127.844704273722,1.94688053413463,stable,stable,1,0.518422636008295,0.201465583168629,0.2059351217695,0.893468653503842,0.319835931602919
12,2.62651080192132,3,-0.793260871573754,-2.46810817931009,2.62651080192132,0.00834381683996806,0.0052074386165234,0.00983548150340357,-0.0423353127532877,-0.316874334393337,0.32192986559912,0.0207867961332674,0.194050282447122,0.196533665380624,15.3954562941062,1.93545416377421,1.82744374636642,0.0290362593366786,0.0546080423595258,0.132213871911266,0.454289954645019,0.0129133766828735,0.00971440860130528,NaN,NaN,NaN,NaN,3,-106.299635778902,1.83374852870631,stable,stable,1,0.739709613588477,0.08583824117666,0.060774735450374,0.955916243894842,0.341238279150549
13,1.99962220481924,2.79172110557556,-1.06576595665633,-1.67106458282628,1.99962220481924,-0.0639058299689173,0.00149760015014778,0.0639233753037642,-0.0636024588835206,-0.149357790678642,0.165828120189682,0.0106954189325153,0.152284584364691,0.154863243258083,15.4635562647383,0.868275527527085,0.927509551881187,0.176179172303291,0.240302333720981,0.175520052379166,0.397976293164829,0.159404141338934,0.0350237726578141,NaN,NaN,NaN,NaN,2.02726066309477,-121.319262228342,1.61686359449972,stable,stable,1,0.564205236603414,0.189941538142529,0.197547125255158,0.897800673938718,0.321991087831482
14,2.67083104268691,3,-0.739192591983268,-2.53259622521825,2.67083104268691,-0.0260217008992886,-0.00742466842167981,0.027060203599824,-0.035500939501549,-0.328611097084285,0.332208932688677,0.0214434818817487,0.202927752094604,0.204848656287165,15.4222385024301,1.64676381548281,1.46948642938326,0.0626790526545589,0.2402646364626,0.126654817743444,0.487414606966467,0.0018506780486456,0.00894609122381036,NaN,NaN,NaN,NaN,2.96211416560549,-104.652706865072,1.95055345433661,unstable,unstable,0,0.753191342640608,0.0790240527220806,0.0514900792918098,0.944175650320201,0.343708969891803
15,1.76298771033416,2.50534796714783,-0.951606733055543,-1.462638885248,1.76298771033416,-0.0588375166152938,0.00789707970643178,0.0593651179510722,-0.0507458897048685,-0.114104433621206,0.128180174192473,0.00826964174065874,0.129740597758324,0.131659176057998,15.4128921198731,1.01979970484747,1.1478499744823,0.177185079093816,0.240234165852149,0.183478166152979,0.474500378107341,0.160657268583413,0.0366358123027885,NaN,NaN,NaN,NaN,1.78867162897179,-121.8764556945,2.34145320052897,stable,stable,1,0.496461891300709,0.177914662740772,0.19147414169063,0.894375927258358,0.318454148376454
16,1.74847492166985,2.77829098701477,-0.998226143383284,-1.40618182498264,1.74847492166985,0.00527212333804814,0.000743950988690648,0.00532435419230968,-0.0582715158822476,-0.108540140293529,0.128328208399601,0.00828626016287976,0.18743379842439,0.188387243279363,15.4254812576797,1.911224811407,1.8283225671387,0.0302592913357422,0.0488627967154664,0.135642680406145,0.428462289603981,0.0233563845406929,0.00628214889547134,NaN,NaN,NaN,NaN,1.79698325918466,-123.928221238646,1.62689424368737,stable,stable,1,0.503937427767832,0.232684746304531,0.152275880914309,0.955488196357841,0.339714364263935
17,1.84743740607281,2.81636214256287,-1.01796999709919,-1.51964176654839,1.84743740607281,-0.0603802848852629,0.00583498616483271,0.0606615682814853,-0.0582049305202848,-0.123788069631185,0.140475189465093,0.00906159767418257,0.146744515760955,0.149069368332094,15.4291226377623,0.965571475727206,1.02379949345612,0.176389767957497,0.240249295462215,0.13709793921242,0.46673400499643,0.161232673206155,0.0338400510234992,NaN,NaN,NaN,NaN,1.90606506718967,-122.683382350962,2.29545928514517,stable,stable,1,0.522463848619168,0.229129353228535,0.221442050905977,0.896174344120526,0.339067582572258
18,1.80948335093421,2.59230971336365,-1.04725357311943,-1.45110202685976,1.80948335093421,-0.066024475385307,0.00110495061065745,0.0660337206717674,-0.0613027390907324,-0.112953493726517,0.132834364015976,0.0085675147382714,0.139400660040398,0.141456775064779,15.4319461057137,0.807909833660297,0.979524077524324,0.176478855366049,0.240234242900915,0.145857487454724,0.478598686359746,0.159788661355411,0.03692689830683,NaN,NaN,NaN,NaN,1.87952489310621,-124.36494621675,1.62317312507663,stable,stable,1,0.510820248595412,0.188242113669781,0.197390414047161,0.897716448729097,0.335174450020123
19,2.62329372992882,3,-0.779205774025677,-2.46811770274479,2.62329372992882,0.0072283718298686,0.00278587736311368,0.00774664262717386,-0.0413986679892626,-0.317527516926088,0.322425426225564,0.0208238430113878,0.202570518355398,0.205084692048487,15.3974309590096,2.13786101052047,1.85558824382388,0.0219370154558965,0.0598146482934182,0.139300750412034,0.442897897382445,0.000154670119102739,0.00712841345069788,NaN,NaN,NaN,NaN,3,-106.031594526481,2.16025941743583,stable,stable,1,0.740561933057384,0.0861791285809966,0.054368369769463,0.957654390987918,0.338088555372429
20,1.86012213182129,2.85341882705688,-1.00213794425289,-1.54063038994213,1.86012213182129,-0.0800760522242324,-0.00113399083212858,0.0800840812835194,-0.0585958384983115,-0.129996563915985,0.146955355447786,0.00947816797655648,0.180254177735172,0.182510476203389,15.4683068251163,0.883918163498308,0.837605119794793,0.175241999031353,0.240241466959103,0.136515981827335,0.36557426187732,0.157570136756523,0.040702516256667,NaN,NaN,NaN,NaN,1.95533603544456,-121.682915799118,2.32949813748158,stable,stable,1,0.532534663726356,0.238173837996653,0.227736389692204,0.898852746115592,0.339326230298962
21,1.95971151726358,2.70956087112427,-1.0806584458226,-1.6184755631202,1.95971151726358,-0.0575155150580493,0.00178237686547067,0.0575431259116435,-0.0640153863027287,-0.138482389793342,0.155445994747174,0.0100252776212304,0.130892102201711,0.13346992076897,15.4642133564877,0.896037741145199,0.765620516075537,0.175707318605893,0.240263136995564,0.124937697964382,0.439465949937972,0.154132594473963,0.0436601459937407,NaN,NaN,NaN,NaN,2.01006102178809,-122.843348050567,2.0353930548517,stable,stable,1,0.549283722090748,0.179265677702456,0.191939198668232,0.899090454390319,0.344472134238053
22,2.62841988726204,3,-0.734833920902426,-2.48970707637034,2.62841988726204,0.00721702801653518,0.00551159624913726,0.00908092432547247,-0.0373003241732614,-0.322402500403722,0.326352314559115,0.0210746379034851,0.197098256153796,0.199666036682061,15.4040136542732,2.0774921979624,1.80126283862218,0.0276847620159344,0.0595075763696197,0.136876918586457,0.502078042836262,0.00838120393207695,0.0082981536673819,NaN,NaN,NaN,NaN,3,-105.373889448931,1.93445766235293,stable,stable,1,0.740845177272957,0.0852703614923767,0.057904706845296,0.955681686561725,0.339165813961575
23,1.70898350056885,2.38549757003784,-0.837414469431688,-1.47750483808101,1.70898350056885,-0.0423723730135316,0.00117464115894878,0.0423886515078052,-0.0388793584410473,-0.116006800169094,0.123781569611238,0.00798338013927868,0.12366472000573,0.125299655705492,15.3870986962993,0.848422736436321,0.823249615388112,0.184881766230105,0.240191048703403,0.160796713547973,0.470422779593959,0.185867589350766,0.00455800697654042,NaN,NaN,NaN,NaN,1.75191981509009,-118.497538474994,1.8043330350936,stable,stable,1,0.480788864626126,0.159986918406953,0.18025742561578,0.894424548406327,0.328534793978679
24,2.50277961581667,3,-0.554358801588816,-2.40972883524726,2.50277961581667,0.0147465523280202,0.0050605629114459,0.015590705646113,-0.0268404065423608,-0.319452106280001,0.321654388812396,0.0207472899224116,0.190847221762193,0.192109698502323,15.4562301911208,1.0991762275661,0.765853963078586,0.0469894183995015,0.243920943574469,0.279068106921319,0.684998591988617,0.00190264496938947,0.00804488150686421,NaN,NaN,NaN,NaN,3,-102.185830974197,1.92300408212139,unstable,unstable,0,0.705829837251576,0.11473288247637,0.072610760929259,0.96185148215947,0.275969730257192
25,1.7141841577517,2.47448134422302,-0.931724111087064,-1.4201192141002,1.7141841577517,-0.0464621149097824,0.0109293337642997,0.0477302677388393,-0.0489219447493184,-0.109181493924328,0.122491781911797,0.00790143271365474,0.14542731783763,0.147241312949868,15.375699335007,0.937839029495752,1.06345447520255,0.177391921863664,0.240223996241781,0.159863233915946,0.446618710479016,0.158002045072384,0.0342681566038484,NaN,NaN,NaN,NaN,1.79680657025774,-122.144595008979,1.98979027482016,stable,stable,1,0.486564037990427,0.179817416041501,0.190574728624127,0.895579590102681,0.328949673815135
26,1.85550737500589,2.58866548538208,-1.03035456884745,-1.52777285137355,1.85550737500589,0.00295468803972791,0.000320553232738666,0.00297202553608316,-0.0574777006741718,-0.122483458639926,0.137842481627289,0.00889958516019776,0.125270561659089,0.12639695567498,15.4119693275981,1.93755013136171,1.6987152720296,0.0279182013473666,0.0496700512000508,0.13230728970337,0.454290725147507,0.0103482675013756,0.0082128289548059,NaN,NaN,NaN,NaN,1.89015622586425,-123.159855511628,1.91607541913115,stable,stable,1,0.520081357803235,0.165505446182924,0.106888980966659,0.957470242585385,0.341196760131836
27,1.71614903694875,2.48896312713623,-0.825705218826191,-1.48316442919129,1.71614903694875,-0.0562144760991939,-0.00687293077351102,0.0566330689661466,-0.0397410321199312,-0.11821390469326,0.127310767116357,0.00821222651926563,0.143487322173914,0.145438207189933,15.4118960462243,1.01540867470408,0.955544660076494,0.177333282427396,0.240207581849803,0.154664904566642,0.482034770765228,0.157116705415719,0.0358272317011273,NaN,NaN,NaN,NaN,1.77620387229689,-117.832865156267,1.50964251931407,stable,stable,1,0.486727384624319,0.184265899602644,0.193417270867972,0.895847296870169,0.331260042414826
28,1.73076133389731,2.47206735610962,-0.977720312588953,-1.40875219075952,1.73076133389731,-0.0531309321347825,0.00923651623835695,0.0539278145462274,-0.0534104145702239,-0.106552971258301,0.122414919745522,0.00789714213992174,0.144465596024673,0.146442575553734,15.4262921680127,0.964860560597302,1.06158748790545,0.176434074725922,0.240210899672767,0.167396596107974,0.487720355326676,0.156507515345129,0.041164842530244,NaN,NaN,NaN,NaN,1.77693740749085,-123.63065316624,2.16628987015994,stable,stable,1,0.490824870816695,0.176680620997912,0.190536301955055,0.895860870827375,0.325601512840901
29,2.62349722257825,3,-0.522263769233142,-2.5384320115355,2.62349722257825,0.00730362054834638,0.002252429173686,0.00764305634525216,-0.0232819922290088,-0.334969077433421,0.336611177929575,0.0217364595642145,0.196470813229384,0.19924551085531,15.3797964615217,2.01300468169241,1.92339266000009,0.0267227417163079,0.055546809854678,0.129529141287546,0.447824031600776,0.0093004440883032,0.00899622281152744,NaN,NaN,NaN,NaN,3,-100.208461528465,1.95003563947064,stable,stable,1,0.739448361525261,0.0861143519165241,0.0590734956054733,0.955709792885691,0.342431492761091
30,1.84572119648392,2.56396269798279,-0.939909353734006,-1.57237655445991,1.84572119648392,-0.0550241467570195,-0.000851389154274265,0.055030733139129,-0.0486772659790287,-0.130337574313521,0.141365754363609,0.00911763916333812,0.116493787806871,0.118751041568904,15.4644769664779,0.848826682332056,0.882431908399632,0.176408928608987,0.24021755722659,0.145941321437485,0.391641434906384,0.159281501190596,0.0368237551437758,NaN,NaN,NaN,NaN,1.90894849737311,-119.745808657761,1.65086138619398,stable,stable,1,0.51594252737616,0.171693305579419,0.187198218070501,0.898192789625472,0.335137190472229
31,1.89476398962575,2.82194209098816,-0.946790719766157,-1.60906849453936,1.89476398962575,-0.0849893794742242,0.000373035216012297,0.0849901981329969,-0.0541142220333762,-0.14146114787777,0.156078995809182,0.0100669149791225,0.193877048463093,0.196232625949038,15.4593191120904,0.852972829200236,0.913415836694508,0.176242419721158,0.240328273698522,0.148094232051196,0.426651966871688,0.158803471665914,0.0355766229670143,NaN,NaN,NaN,NaN,1.95935225919259,-119.13516242978,2.16431476683281,stable,stable,1,0.544516922423341,0.224196609130925,0.218034240025148,0.898000022050248,0.33418034131058
32,2.61489750071114,3,-0.641882181833894,-2.50169029399372,2.61489750071114,0.00583924714213295,0.00464127889337058,0.00745910698092976,-0.0305780744497398,-0.325965554708814,0.328714245266702,0.0212284374994426,0.197568728035768,0.200121348782476,15.3945578456458,2.05116982627161,2.12661030389198,0.0239713529889019,0.0726713747627412,0.135353173480005,0.518641613242355,0.00101335268985674,0.00611994545975964,NaN,NaN,NaN,NaN,3,-103.01941117063,2.10920373287197,stable,stable,1,0.737330269946133,0.0880155652864971,0.0554851528578078,0.955188908197121,0.339843034008887
33,1.87178787186339,2.8884289264679,-0.825641460768545,-1.64965930259263,1.87178787186339,-0.0848235458307361,-0.0156466961733441,0.0862545826518217,-0.0429383630611441,-0.148642344798038,0.158061443804932,0.010194143800092,0.190766637190911,0.193108412810376,15.4658092708003,0.912868035265997,0.79049378740128,0.177212971410635,0.240291152916209,0.159084570811198,0.392332428466629,0.158726216366334,0.0366666626299786,NaN,NaN,NaN,NaN,1.93692079365451,-115.089103932968,1.57653914493404,stable,stable,1,0.53776511505898,0.244557577438848,0.230612863380459,0.898009957116582,0.329295746306134
34,2.68699165533349,3,-0.609903588063753,-2.57627549268456,2.68699165533349,-0.0329011576741868,-0.00820514132211999,0.0339088560765128,-0.0266185561434884,-0.340977374536993,0.343180256583098,0.0221523596490895,0.201715711867483,0.203781699667357,15.3560423067304,1.74366969623764,1.42767429563775,0.0632432199566108,0.240341941480953,0.129645490812818,0.509288937247541,0.00183520649387529,0.00958620885906396,NaN,NaN,NaN,NaN,3,-101.157933097739,1.80065331743856,unstable,unstable,0,0.757287448022402,0.0766435011639924,0.0502876421595754,0.943460687228388,0.34237978186097
35,1.80990543236604,2.62685704231262,-0.804007704201768,-1.60758062662609,1.80990543236604,-0.0549960033500043,-0.0246256042303552,0.0602576200009905,-0.0367737873662662,-0.136964238997112,0.143314799301701,0.00924589437821338,0.123480638710291,0.125713721903821,15.3852895891205,1.09645996047833,1.0688202033424,0.176025507407475,0.240234348548943,0.18549230772739,0.451532202164632,0.159158500689177,0.0362414973933636,NaN,NaN,NaN,NaN,1.86137587595629,-115.841095627455,2.10843150623029,stable,stable,1,0.507784193011707,0.194861342571497,0.20083264328517,0.894974330723385,0.317558974343382
36,1.96750354846584,2.99474883079529,-0.895901336667464,-1.71939929032187,1.96750354846584,0.00857637405834526,0.00591756815098859,0.0104197794991186,-0.0493964867465819,-0.160107315070042,0.171583976394943,0.011080682808349,0.205321542284297,0.206601505310351,15.3733866579376,2.05919922744702,1.86899672753468,0.0238182326824707,0.0515328039125995,0.132900356991504,0.42607008149083,0.000453963826614137,0.00822965725972193,NaN,NaN,NaN,NaN,2.00134863438598,-116.022448666907,2.09265925918199,stable,stable,1,0.565987913986295,0.233040481432297,0.143018653199994,0.957226486869623,0.340933174670443
37,1.82241038776733,2.51347184181213,-0.81745755314901,-1.61654089882821,1.82241038776733,-0.044624794729945,0.00229752628369768,0.0446839001399162,-0.0373478033210355,-0.138945540176803,0.145192442036599,0.0093642905909279,0.124051448362057,0.12635058152718,15.4699797738671,0.90236231198724,0.775961283793565,0.175032190252393,0.240243724654434,0.153057346780844,0.369725545978179,0.158087412864067,0.0371834367433356,NaN,NaN,NaN,NaN,1.84847057739295,-116.145839673518,2.31309432607257,stable,stable,1,0.511246219710057,0.163680875519066,0.181990847420319,0.89929707662124,0.331974512541847
38,1.93965358622122,2.68614315986633,-0.767201858640647,-1.76859851782339,1.93965358622122,-0.0527685626790924,-0.0118984163548422,0.0540933777737209,-0.0337286532533219,-0.165042200597794,0.169511412358673,0.0109328470705453,0.130928347800312,0.133720181867028,15.4448281418917,0.998236544905817,0.72682584730384,0.176068255421767,0.24025797434551,0.155080650310288,0.430798997935718,0.155970341386297,0.0416113802191055,NaN,NaN,NaN,NaN,1.9993932608471,-112.620106358339,2.46410178823439,stable,stable,1,0.543984992699065,0.177877273328666,0.191177926713208,0.898411810636041,0.331075266528761
39,2.63125940509464,3,-0.639024545634723,-2.52019897133686,2.63125940509464,0.00620937056986113,0.00113301534891857,0.00631189406238275,-0.0302726305060564,-0.329997300348405,0.332635608337785,0.021477770728147,0.195990832894184,0.198775960502159,15.4324474710606,1.98432351729464,1.75113598331348,0.0300998325275516,0.058409283553742,0.133047960425758,0.458425412216857,0.0227217163395502,0.00613102797672261,NaN,NaN,NaN,NaN,2.9987372183553,-102.731971335258,1.72451934793445,stable,stable,1,0.741424366792337,0.0841238144318085,0.0628022939732489,0.955600044802875,0.340867573144108
40,1.91611960208094,2.76030850410461,-0.297028057163633,-1.87485983701282,1.91611960208094,-0.0632681656760014,-0.0243520437414189,0.0677929408005726,-0.00859088868957795,-0.185989456039028,0.186416901959934,0.012026974011099,0.144265782567123,0.147441719167751,15.3924203934944,1.15767690161082,0.719443329416015,0.176651541314381,0.240250454231478,0.172157363183054,0.366464742559354,0.158925447268414,0.0347661779523732,NaN,NaN,NaN,NaN,1.96262077332345,-97.9255988407311,1.90314674194345,stable,stable,1,0.540453571055134,0.202371208768766,0.20469850390869,0.896925427527599,0.323485616363087
41,1.87857056711171,2.59710001945496,-0.271774326879054,-1.84100386750489,1.87857056711171,-0.0538244246217727,-0.0267681032733136,0.0601132268200242,-0.0073982714417062,-0.179796138449976,0.180127499301118,0.0116239480508124,0.145695177239541,0.148690721994788,15.3516238709654,1.24077234923409,1.0398037363547,0.176054496819939,0.240701762634067,0.1391171482285,0.466445030647512,0.1554798853551,0.0385447537671279,NaN,NaN,NaN,NaN,1.94919332297993,-97.076725643542,1.86871387949312,stable,stable,1,0.530690295628747,0.172689885027568,0.186732376382611,0.894053939488976,0.338170156342889
42,2.61415373362028,3,-0.630347503391956,-2.50541907268596,2.61415373362028,0.00596644386397595,0.00761641301295128,0.0096751330515828,-0.0296361497763774,-0.327475040826628,0.3300233292818,0.0213113873589246,0.192071842962915,0.194682730984111,15.3503381335992,1.88929133369383,1.97741714033942,0.0262798585622601,0.0612347925137378,0.128245851359171,0.414179356124577,0.00859618163713107,0.00565269603622859,NaN,NaN,NaN,NaN,2.97766096785849,-102.83550377438,1.98005995603129,stable,stable,1,0.736044208495563,0.0885891843282279,0.0590295616003508,0.956478789851466,0.343001843840368
43,1.82224905732516,2.54607725143433,-0.254751810483685,-1.78810590552353,1.82224905732516,-0.0551060730795385,-0.0274086466142916,0.061546025050157,-0.00665620529076257,-0.169703927208911,0.1699846116095,0.0109648938657887,0.13135252108193,0.134093029081266,15.3691243652851,1.04311963138431,0.818004230893282,0.177799680381465,0.24022194515814,0.124752937308138,0.439602466003641,0.157324006729757,0.0356014593624025,NaN,NaN,NaN,NaN,1.87761184680711,-96.9149867627548,2.30568970558128,stable,stable,1,0.512751687769628,0.174144781600425,0.187354634951728,0.896477043748515,0.344554250085272
44,2.52711651359613,3,-0.640515824570137,-2.40969300778037,2.52711651359613,-0.028384457823808,-0.0034095518770401,0.0285885027581677,-0.0294118499470259,-0.307606230362866,0.310404816179328,0.0200359397753429,0.221520185005445,0.223326638444439,15.411882714545,1.60990777426191,1.47765463805035,0.0627776847757677,0.240278087413605,0.131008922985326,0.441511757441387,0.0019403647727151,0.00953623645247975,NaN,NaN,NaN,NaN,2.70268226585959,-102.84402520654,2.03184911222889,unstable,unstable,0,0.718563064647856,0.111640009946535,0.0713141126577059,0.944351738658234,0.341773812006522
45,1.67401448752256,2.73883080482483,-0.252932350337029,-1.63112546073415,1.67401448752256,-0.066697880548743,-0.0165695749412386,0.0687252361467585,-0.00771594518814102,-0.145940932699172,0.146408697162739,0.00944276707655215,0.173642816827949,0.176006942238376,15.433739818565,0.878513929140523,0.587334322747115,0.175689889154101,0.240220209146498,0.119033991445063,0.427807120992265,0.155720953892751,0.038827732832761,NaN,NaN,NaN,NaN,1.74484723470437,-96.8322370152764,2.10085014607124,stable,stable,1,0.481605251787025,0.252183298019916,0.234638467228722,0.900637676300975,0.347096003802194
46,1.71659032476915,2.35598349571228,-0.233318361349861,-1.68954014292353,1.71659032476915,-0.000599730232957999,-0.000863421632070272,0.00105127221358255,-0.00484411022202245,-0.149127510039234,0.149290702388646,0.00963747614425237,0.116974681640841,0.118171179230926,15.4046280058261,1.80593065039189,1.69379700229763,0.0149478698670023,0.0458875556833481,0.137977158785338,0.365297931707107,0.00101011568234499,0.0106086947888688,NaN,NaN,NaN,NaN,1.71876069037497,-96.5690723186371,2.49135975897878,stable,stable,1,0.481391655784625,0.144056196701361,0.0907403655200336,0.965028204938224,0.338676818317628
47,1.72909141351832,2.38618063926697,-0.139243186415191,-1.71273838125285,1.72909141351832,-0.0397030212250957,-0.0245820498548199,0.0466969706668993,-0.00270683153915764,-0.163093471350193,0.163160153013808,0.0105224907180034,0.134166184347248,0.13606911811545,15.4764218837726,0.867618519316042,0.524293580253134,0.171262549929721,0.241349160911858,0.224095684339866,0.450272994665274,0.14631967808071,0.00496742733155171,NaN,NaN,NaN,NaN,1.8330973949862,-93.5355183886098,1.56104584873761,stable,stable,1,0.488304867227976,0.156406187082376,0.16068101749677,0.903432272824239,0.300401918071171
48,1.70640869478922,2.51927471160889,-0.201519072942823,-1.67671959834109,1.70640869478922,-0.0524695011183484,-0.0206398272913272,0.0563830738628552,-0.00496861184370994,-0.149467357061433,0.149672815294945,0.009656154234467,0.136435315598595,0.139034400008004,15.3596973394123,1.04338491484053,0.882273240419429,0.176661031341631,0.240188028645587,0.146523674464432,0.428957475351557,0.156262797160324,0.0408148443288632,NaN,NaN,NaN,NaN,1.76093856199151,-95.8152911333806,2.49852277252281,stable,stable,1,0.482849198612058,0.193231750659283,0.200230944040957,0.896539313109285,0.334878366904697
49,2.61877927772177,3,-0.683926254340897,-2.49557364467588,2.61877927772177,0.00768431961275912,0.00743075808904861,0.0106894777088965,-0.0332047585067667,-0.324012876852063,0.327125549498757,0.0211272024966227,0.193420984519063,0.195977675179028,15.3585572305488,2.06013322280752,1.98114909621635,0.0296019760640957,0.0718766905742619,0.142421233613183,0.466312224819318,0.0167286239499323,0.00575012150121759,NaN,NaN,NaN,NaN,3,-103.690253195533,1.79488317496736,stable,stable,1,0.737536675761612,0.087734400092565,0.0621665373064567,0.953446079461336,0.336701673949697
50,1.66402541543986,2.32384204864502,-0.144768360940825,-1.64681615920149,1.66402541543986,-0.0398341601046342,-0.01358246014337,0.0420861442138368,-0.002735897783581,-0.143162107896872,0.143234812414959,0.00923955234809057,0.103873021786556,0.106176049826975,15.4474041614889,1.00835491816633,0.758917850891845,0.176926372632194,0.24020708670548,0.174547591342747,0.401208378353262,0.1588757037414,0.0356777707134638,NaN,NaN,NaN,NaN,1.72627812567413,-94.411640590645,2.49913048966048,stable,stable,1,0.464975320749359,0.15617453557703,0.17728988003618,0.897651099069874,0.322423292736557
51,1.610302643196,2.31339311599731,-0.137802360346167,-1.59434925393669,1.610302643196,-0.035783142160356,-0.0137813413199951,0.0383452556575967,-0.00248337896195491,-0.13381394994167,0.133881414421224,0.00863442511649843,0.109428093779141,0.111596985321209,15.4622488269022,0.91124298250735,0.504976383621905,0.176444759162524,0.240186961397495,0.1119924255444,0.390190113301704,0.158942641224028,0.037795905330298,NaN,NaN,NaN,NaN,1.64198518080473,-93.7945426045898,2.39977303805108,stable,stable,1,0.451733435249843,0.165225319917521,0.183520331402512,0.900650182542008,0.350225588646933
52,2.62281636131248,3,-0.636183933449399,-2.51160867797625,2.62281636131248,0.0066108811501347,0.00646308645889913,0.00924528183217859,-0.0302148672344302,-0.328286429825943,0.330983516558829,0.0213730795508548,0.192142268432519,0.194733312716073,15.387032372132,2.00822169511779,1.93047975765607,0.0232509556148249,0.0618638349227845,0.135655394366145,0.439261985650251,0.000549127072263908,0.00535065714605297,NaN,NaN,NaN,NaN,3,-102.899260755177,2.1249415326407,stable,stable,1,0.73836435889321,0.0865612870405907,0.0541265222085718,0.957427582206507,0.339708713615047
53,1.72287120435062,2.32999491691589,-0.127283434780186,-1.70696719046376,1.72287120435062,-0.0433399488422835,-0.0179257116212816,0.0469007708122276,-0.00245158965632886,-0.153966689070811,0.154032806767374,0.0099370787753028,0.113185957938442,0.115697840564256,15.4139817197528,1.00864447909397,0.848164373831179,0.175734887617722,0.240191367870572,0.14968411708298,0.422444875568944,0.155169403279929,0.0404930399917484,NaN,NaN,NaN,NaN,1.76767167051157,-93.7767495596924,2.32007987453837,stable,stable,1,0.482571889273016,0.145201309976095,0.170809707036362,0.897543343775299,0.333473725740898
54,2.68387122900741,3,-0.575994392013727,-2.58726751627978,2.68387122900741,-0.024344364227694,-0.0123416071142837,0.0272940164837271,-0.025461740695948,-0.341722853977686,0.343667093404172,0.0221837123848423,0.204202526381478,0.206272907492418,15.4115141943476,1.6944721185124,1.49472834801375,0.0632283063860215,0.2402621016799,0.125565613286314,0.397232870979246,0.00185797433241495,0.00894226738332559,NaN,NaN,NaN,NaN,3,-101.106544404973,1.87617487026328,unstable,unstable,0,0.756953575900459,0.0761328764953502,0.0497572258611089,0.943327843141427,0.344193060761638
55,1.66731041267111,2.23598599433899,-0.160937309910993,-1.64884213169815,1.66731041267111,-0.042079009732816,-0.0217361704619042,0.047361420654826,-0.00308095953642012,-0.143100478763533,0.143186487464718,0.00923848574599527,0.112591208586399,0.11504479293548,15.3794444554575,1.11861760337338,0.900479642696141,0.176852396115298,0.240201793064266,0.17439125125414,0.479217233630965,0.157706802117178,0.0348974668929667,NaN,NaN,NaN,NaN,1.6954412846166,-94.4207914550518,2.22481524073372,stable,stable,1,0.467625068632727,0.136634932995323,0.164762859810352,0.895709466437519,0.322492777220382
56,1.69865159884743,2.58592510223389,-0.108165692080684,-1.67028323342202,1.69865159884743,0.00201838525540083,0.00421828087429742,0.00467629902526377,-0.00293371586024163,-0.150975853603829,0.15114560678601,0.00975705436260399,0.180204588579381,0.181414481361351,15.4300603346109,1.7869796248936,1.81853473454222,0.025459675587239,0.0512502165681165,0.124431063939189,0.382369371176242,0.00593888977338443,0.00549253495463116,NaN,NaN,NaN,NaN,1.73280982852964,-92.1431804697514,2.02670620193365,stable,stable,1,0.489256655964918,0.200493859749918,0.124933107853947,0.958941120810813,0.344697304915916
57,1.58437832849938,2.14925837516785,-0.185579137162391,-1.56409084987793,1.58437832849938,-0.0390068038222659,-0.0138495442452563,0.0413925188920661,-0.00342180475131142,-0.128913381319274,0.129012628130068,0.00832104600129539,0.105878899856045,0.108012840935817,15.4625315893843,0.903469589156846,0.661350141487232,0.175664501351805,0.240178253899711,0.137172814952799,0.378582298695205,0.157305195972388,0.0422382405371824,NaN,NaN,NaN,NaN,1.65239533729994,-95.8334835366937,2.25856727711773,stable,stable,1,0.444103455786998,0.134686638963951,0.166084764005882,0.899872737154751,0.339034304465423
58,1.63654860154094,2.36358499526978,-0.0950321347440907,-1.62363057588998,1.63654860154094,-0.0387592931970893,-0.0135373779875099,0.041055370074019,-0.00153678934291349,-0.138608467639074,0.138645800339914,0.00894318751855414,0.108903607942676,0.111141867208072,15.4447797903751,0.891794497995756,0.760460799887207,0.175719423656775,0.240178908322148,0.145264513609566,0.389947523855708,0.155822929724236,0.0413680762736287,NaN,NaN,NaN,NaN,1.68060545220575,-92.4282145747537,2.478922876353,stable,stable,1,0.458641333852533,0.171110006435891,0.186963576121302,0.899158282259675,0.335437993951304
59,2.53187064701897,3,-0.516907510928167,-2.44171989059604,2.53187064701897,0.00779874862050627,0.00567430279703055,0.00964459394055744,-0.0239879255575485,-0.312870514332847,0.314780035959832,0.0203211385204716,0.218922182381088,0.221403143150655,15.3883924709619,1.81995627007251,1.82615242017672,0.0274340784613796,0.0565135447082389,0.120899933816991,0.442112659016476,0.0115486913801891,0.00522978941767778,NaN,NaN,NaN,NaN,2.78982386220964,-100.41262924442,1.89705651590872,stable,stable,1,0.719446134501856,0.107097279976501,0.0712928613168574,0.957634963917352,0.346266696081337
60,1.68358297847413,2.35042595863342,-0.10034297159492,-1.67093647960183,1.68358297847413,-0.0298230890285297,-0.0221874830475981,0.0371712394626687,-0.00167159106783458,-0.147992035128399,0.148027332160424,0.00954827308986779,0.119573100752953,0.122017896678225,15.4485596905242,0.960488297608884,0.712655042331378,0.176820896664073,0.240237835401043,0.140761558594263,0.358429294196072,0.158305000552002,0.0373247604116357,NaN,NaN,NaN,NaN,1.72864210057146,-91.9462754292346,2.12930020871106,stable,stable,1,0.473359040262079,0.156854397770664,0.178043056835196,0.898443425425576,0.337439307291439
61,1.59352964726654,2.3800220489502,-0.1875644032313,-1.57149637778102,1.59352964726654,-0.0385623321789494,-0.0125566666234547,0.0405551888144071,-0.00367809436602771,-0.130552068084124,0.130675123725521,0.00842941606051389,0.120396873907983,0.12253469146566,15.410632834496,0.983387788800342,0.819528627551239,0.176890721399576,0.240158714357271,0.13786687417333,0.419683210162313,0.158809228770488,0.0376625452760476,NaN,NaN,NaN,NaN,1.6541677253945,-95.777639022521,1.68357533620728,stable,stable,1,0.44944817756421,0.18439590832813,0.1949148954599,0.89738886745745,0.338725833700742
62,2.61177658516428,3,-0.538983772294681,-2.52349910125965,2.61177658516428,0.00794659391257821,0.00587549440162274,0.0098828027034301,-0.0240325065613079,-0.331650594406185,0.333402796960715,0.0215300249751354,0.196342975962628,0.199132499328168,15.4032997542895,2.01371320752085,1.96962446604899,0.0228552497292098,0.0684524776752283,0.126743901093826,0.456446902805855,0.000818079895930122,0.00513267341765387,NaN,NaN,NaN,NaN,2.96888331606625,-100.576107342626,2.13369049603505,stable,stable,1,0.736300255909441,0.0891621155003331,0.0557272870623864,0.957274721985918,0.343669377291633
63,1.55674895104146,2.4136323928833,-0.0849548375338128,-1.54407261993515,1.55674895104146,-0.0371721055327769,-0.0151509945906717,0.0401412265236934,-0.00126428269745576,-0.126287533730209,0.126328030033919,0.00814837202209233,0.108063949925945,0.110121525390843,15.4177243068277,0.795351868228405,0.811066220210608,0.175630593851492,0.240196081659742,0.135473726568622,0.405604709257248,0.155905489241766,0.0413225169973297,NaN,NaN,NaN,NaN,1.60300708299886,-92.1234906695166,1.96279541825872,stable,stable,1,0.437157358689224,0.200157999277092,0.204412497935362,0.89956284666509,0.33978945485839
64,2.68932635422732,3,-0.652160822931943,-2.57107920828834,2.68932635422732,-0.0294289585327316,-0.00711191882650267,0.0302761125264787,-0.0288807967875108,-0.339685839770752,0.342182020544201,0.0220945335473254,0.203414653967678,0.205529051786096,15.3742308018528,1.87491630170916,1.62179361104145,0.0635075984275428,0.240347120772616,0.137872916838146,0.420476406543594,0.0018443484147773,0.00861079138043812,NaN,NaN,NaN,NaN,3,-102.201792877698,1.6766753439131,unstable,unstable,0,0.758259504817838,0.0754521909287069,0.0492222218294057,0.940772051471759,0.338723148071935
65,1.53634292727349,2.08983635902405,-0.141766228539212,-1.52051344966925,1.53634292727349,-0.0437469123419462,-0.0301213047938314,0.0531138902918701,-0.00242702944103844,-0.12201749695094,0.122078338874657,0.00787508755001014,0.103156543654667,0.105162108852083,15.4345019460412,0.905640829847574,0.80176693454089,0.175507161344955,0.240169289169725,0.177963591316792,0.406439269117384,0.154578393983726,0.04072114486623,NaN,NaN,NaN,NaN,1.55228808798252,-94.2268777224065,2.1459564712446,stable,stable,1,0.430723869043347,0.134273568697386,0.164073338697908,0.898831072607327,0.32090507052587
66,1.59875586088872,2.23890113830566,-0.123645732915451,-1.58387534992505,1.59875586088872,0.00135304485392392,0.00581275893252802,0.00596815690011701,-0.00216680085001894,-0.131622990054849,0.131677330731976,0.00850081523418923,0.111271897570072,0.112353743433438,15.4151211025816,1.76189358523837,1.95470976430819,0.0208533212296289,0.0620119487957907,0.118523049711427,0.480240330578571,0.000193344588589548,0.00812342291177645,NaN,NaN,NaN,NaN,1.60696450398557,-93.5145725727472,2.20953461751582,stable,stable,1,0.448805644923679,0.145126849517168,0.0901160126064813,0.960371455924463,0.347323089017143
67,1.68229976215878,2.32494354248047,-0.121001610383533,-1.6672537879305,1.68229976215878,-0.0410769118626902,-0.0180854066501052,0.0448820077745513,-0.00225120122084163,-0.146862342936702,0.146918897667365,0.00947634553680928,0.122059579050202,0.124484249585486,15.4425494730563,0.868916401428104,0.671359659695351,0.176067696693331,0.240203321149851,0.140159090882579,0.356172306411096,0.159797011188617,0.0362038306594383,NaN,NaN,NaN,NaN,1.70472744872138,-93.0615211949791,2.24835160422234,stable,stable,1,0.473510119826105,0.152823218664381,0.175879854390941,0.89986398260165,0.337707070718854
68,1.61678805302929,2.22511506080627,-0.127182988244773,-1.60059886473568,1.61678805302929,-0.0405207260627999,-0.0188388077071228,0.0446859028831512,-0.00227577788171474,-0.135153277376239,0.135212356435743,0.00872578171542217,0.109177964136809,0.111369372886325,15.3383026076168,1.22485034150208,1.03941798887351,0.177785302848571,0.240181033180686,0.142000056696263,0.466769135687686,0.1580687718507,0.0366006565348366,NaN,NaN,NaN,NaN,1.6346567991892,-94.1375227104005,1.86441063853407,stable,stable,1,0.453417355385076,0.145065992278399,0.170601712505271,0.893316668837049,0.33688886369055
69,2.61665336862456,3,-0.397471689150384,-2.55331377164645,2.61665336862456,0.00520669851588639,0.00644109007820876,0.00828235176933054,-0.0164999076296353,-0.339011094839663,0.339918288531266,0.0219490451294421,0.200676645430403,0.203505676051909,15.4215592376175,1.99197410664054,1.6454147583946,0.0295662545523127,0.0530183539745856,0.121495809903142,0.383960467734898,0.0222512591845128,0.00556271085983563,NaN,NaN,NaN,NaN,2.97762147861884,-97.4745863886534,1.66384750147535,stable,stable,1,0.738475366843597,0.0877714232171854,0.0645751064057925,0.956637388784282,0.34600186226527
70,1.63350405347975,2.6527156829834,-0.13012261566181,-1.60693999286821,1.63350405347975,-0.048171865712268,-0.0478249390887182,0.0678804349208252,-0.00348183851558067,-0.150627812722537,0.150777766452711,0.00972533979696872,0.182188147709399,0.183594448744101,15.4375112886646,0.768157595524769,0.761465573250524,0.172814803388582,0.244861743410423,0.250198836085829,0.538347077162575,0.138303365305211,0.00484926504858763,NaN,NaN,NaN,NaN,1.74106956136438,-91.9626622500687,2.35612777636469,stable,stable,1,0.472319970676753,0.241767363040473,0.208291949290732,0.901574130551046,0.288800517295187
71,1.54797411793694,2.26912522315979,-0.187253149706968,-1.527518324571,1.54797411793694,-0.038966114046928,-0.0071862105061061,0.0396232212894947,-0.00357448329267773,-0.130977215694221,0.131084908943284,0.00845448003239799,0.122663996300375,0.123999514850067,15.4368005712435,0.785419624390928,0.665163505604977,0.175788830381403,0.243748023256207,0.235914874602311,0.484878857896068,0.221666786663686,0.00493236739918812,NaN,NaN,NaN,NaN,1.67774962146967,-95.9395937551425,1.63833727016862,unstable,unstable,0,0.437593001086529,0.16952325591155,0.202026113542616,0.900708145930759,0.295148944621195
72,2.61798283766743,3,-0.619306753334973,-2.51051292093073,2.61798283766743,0.00558076546291671,0.00416092720696388,0.00696119661938493,-0.0292746738991165,-0.327865421036958,0.330368612126081,0.02133029233211,0.19693613042068,0.199660987727549,15.3920918696613,1.92037284859393,1.78449439576885,0.0247762224757787,0.0483248492148935,0.122874608283776,0.349924709218465,0.0062249808939527,0.00621997353830774,NaN,NaN,NaN,NaN,3,-102.28205700878,2.04817216513785,stable,stable,1,0.738060954256825,0.0872300809050481,0.0573665152775036,0.958502217556403,0.345389062984989
73,1.6776782709199,2.6198136806488,-0.174473762409678,-1.65196913004877,1.6776782709199,-0.0505175268744583,-0.00751663738687708,0.0510736757940665,-0.00396090352503328,-0.144653861387223,0.144819434987374,0.00934138112001984,0.13153371096784,0.133912166916986,15.3808247411725,0.922396891965847,0.811359001623475,0.177287359277079,0.240222863716088,0.152857427399474,0.452607347913833,0.158406954854136,0.0367926527742919,NaN,NaN,NaN,NaN,1.730743683828,-94.7490683234343,2.42554581221294,stable,stable,1,0.474163305628705,0.221343974417915,0.216588622160411,0.897733952626116,0.332063365600234
74,2.59396713720241,3,-0.561530271502654,-2.49884048942588,2.59396713720241,-0.0155702393720322,0.0140381858396272,0.0209643272195959,-0.0264714657042475,-0.336572598265129,0.338689994124763,0.0218602398676337,0.203402745227513,0.205318462307039,15.3990122639432,1.67821652931347,1.39636115839973,0.0629419035806677,0.240310630465264,0.12108217971531,0.489804288291237,0.00192055494747708,0.0097744379976033,NaN,NaN,NaN,NaN,3,-101.440236798872,2.24839308568204,unstable,unstable,0,0.732788262382051,0.0952008541197169,0.0615284335385242,0.94437165209192,0.346185697904307
75,1.669069217669,2.37082147598267,-0.169427235515621,-1.64606860575802,1.669069217669,-0.0478385013187827,-0.0138242273620151,0.0497958981301056,-0.00365053684062313,-0.144180488872037,0.144303126523075,0.00930821738995218,0.127330619641363,0.129627411190642,15.4066713054409,0.967261596710422,0.824327711771188,0.176951070979893,0.240223216933275,0.15306135156593,0.451522811036179,0.158773465939533,0.0358829970348953,NaN,NaN,NaN,NaN,1.72844746755899,-95.0560971705178,2.12076120055511,stable,stable,1,0.471010606949861,0.167023506111095,0.183828451086815,0.897447691371984,0.331972732637364
76,1.74255257067473,2.4592809677124,-0.215436112499807,-1.71762148943439,1.74255257067473,0.00384996731930855,0.00269433291450793,0.00469911462021779,-0.00450893633837258,-0.154836976855991,0.154983300499382,0.0100079336853789,0.125148773510084,0.126349535224023,15.3999603529971,1.86151616216786,2.10044026500641,0.0287920735329502,0.0680302778403169,0.133524519786922,0.449945418358646,0.0168101556421759,0.00558587438070032,NaN,NaN,NaN,NaN,1.80133462105751,-96.2777836497926,1.78249409408851,stable,stable,1,0.489950592558066,0.162125393680516,0.106777643541249,0.954474305591441,0.34065576898359
77,1.71229463735142,2.65181422233582,-0.158409926310085,-1.68051249287753,1.71229463735142,-0.0655315463366358,-0.0455083894265099,0.0797834385913864,-0.00459698062385474,-0.154347026856721,0.154579222598238,0.00997066365989979,0.173026008397447,0.175628197611773,15.4047307943008,1.00741954425365,0.742471211729976,0.176547878037399,0.240220951112713,0.114949554336173,0.445858518202201,0.156613220319289,0.0390756650225549,NaN,NaN,NaN,NaN,1.75923009576763,-93.8331549635916,1.82643777417062,stable,stable,1,0.491737542816067,0.226018870363243,0.219426530650882,0.897976919327144,0.348911309183923
78,1.78062415606267,2.39214587211609,-0.19867628919338,-1.75822029092784,1.78062415606267,-0.045582976513546,-0.0182526501468345,0.0491015986014429,-0.0040808451488635,-0.16231433920339,0.162431363227413,0.0104788083346214,0.117142306009903,0.119794449600694,15.3887463766018,1.0158218258195,0.862426473001882,0.176073099283059,0.240673560800089,0.149273025703498,0.394971383328527,0.156150215539247,0.0406565336035803,NaN,NaN,NaN,NaN,1.84421771642335,-95.6415120879709,1.91719869801632,stable,stable,1,0.498791998203517,0.146594345855618,0.172140897346257,0.897205785153446,0.333656433020667
79,2.62744885144824,3,-0.41315167559281,-2.56485204815162,2.62744885144824,0.0079438761481723,0.00298008815089245,0.00848446189481633,-0.0169059812035034,-0.341875888001456,0.34280957472262,0.0221508296813547,0.191229591135442,0.193997283893555,15.3882449605967,2.42464417128867,2.34866856965007,0.0190036204253725,0.0546820288259606,0.156594631995351,0.390612555669775,4.82309627614396e-06,0.0068275813380666,NaN,NaN,NaN,NaN,3,-97.5958361626102,2.32777624397544,stable,stable,1,0.739452483831574,0.0853794931048629,0.0537125963114687,0.952993589679938,0.330402385779844
80,1.80127125052181,2.60516762733459,-0.23333937961253,-1.76911646262472,1.80127125052181,-0.0589834417641433,-0.0203255514275959,0.0623872939241632,-0.00609309861278855,-0.165829346526126,0.166091590740207,0.0107169579326599,0.144020165230004,0.146822481532967,15.3921679288717,1.19069056031868,0.902055191383536,0.175895818701127,0.243032925710084,0.162487097969463,0.412533479636172,0.157235078422176,0.0403906033611858,NaN,NaN,NaN,NaN,1.84269174465958,-96.4089816842801,1.5853238130638,stable,stable,1,0.509703496445744,0.192314355335639,0.199958362409246,0.895609088314633,0.327783512013572
81,1.86731765318561,2.75634837150574,-0.199317530926616,-1.84430796506817,1.86731765318561,-0.044898433187819,-0.018201678195386,0.048447604603834,-0.00444936439095198,-0.179444131628087,0.179577525596539,0.0115841687244386,0.133924140404931,0.136881229120813,15.411445067962,1.1153003288244,0.790887739788671,0.175911942734325,0.240244839075153,0.133695148929214,0.474587463727299,0.159251000645559,0.0373883935546204,NaN,NaN,NaN,NaN,1.90149022471625,-95.3637271300002,2.04190936219596,stable,stable,1,0.525327620006993,0.208913972466064,0.209722385463183,0.897066836665163,0.340579933809238
82,2.58424561438353,3,-0.407077332214477,-2.51877756849944,2.58424561438353,0.00251208922742536,0.00851931896634223,0.00888196982300801,-0.0173528575176736,-0.33143208581644,0.332462684364805,0.0214638822676113,0.206160035196603,0.208774388420162,15.4158728550793,1.71347129857901,1.76782449938578,0.0290784900562106,0.0538363985663533,0.120155404632293,0.370957313574083,0.017042716334948,0.00587240806158208,NaN,NaN,NaN,NaN,2.91783086718893,-97.7855854258006,1.81659421303983,stable,stable,1,0.730887041519641,0.0951730978979235,0.0668138204453669,0.958107716559314,0.346597597941203
83,1.69061058239649,2.43868637084961,-0.317170903685355,-1.6445647125484,1.69061058239649,-0.0542532592401751,-0.0221581329703326,0.0586037455706765,-0.00846964080811979,-0.143779155336505,0.144260255297909,0.00930663133507974,0.127842230667868,0.130336182604652,15.4296232215373,0.998784796132377,0.827393896361463,0.176257811881094,0.240246255049128,0.135411203563589,0.410119954163872,0.154493322005372,0.0414089774741048,NaN,NaN,NaN,NaN,1.75027764965131,-99.5200046041142,1.57597381565307,stable,stable,1,0.476896725159994,0.179061072423243,0.191158152113583,0.897522547189858,0.339817242860627
84,2.66118715100172,3,-0.444834556057094,-2.58907157422166,2.66118715100172,-0.0242803807629058,-0.0109051133943805,0.026616881638088,-0.0183561087844914,-0.3418878728163,0.343026442606292,0.0221457911350159,0.206018416350649,0.208180837526148,15.4061458223715,1.75712886231707,1.52914984384399,0.0633698207276019,0.240307881598777,0.13505312267366,0.382761045934905,0.00188398408051393,0.0089449434450252,NaN,NaN,NaN,NaN,2.95681470906161,-98.270421652992,1.5,unstable,unstable,0,0.751286074439022,0.0811126526582623,0.0527576245602454,0.942494328373505,0.339976389922818
85,2.00790059324857,2.83447933197021,-0.417492187604842,-1.94992502761962,2.00790059324857,-0.0514408124479182,-0.0147027119472508,0.0535007189101766,-0.0121864101956794,-0.201892759805328,0.202545583159549,0.0130628077168231,0.147249243463327,0.150501081554483,15.4611046017692,0.963179030939737,0.649387974202931,0.176320923613083,0.240302997339484,0.151685661183029,0.407127584981301,0.158876128207087,0.0364190675529742,NaN,NaN,NaN,NaN,2.10680641889481,-101.731697741666,2.00769634332308,stable,stable,1,0.565540374510516,0.195788681345902,0.201328118636015,0.899169368867338,0.332584150585321
86,1.9679830923527,2.90022754669189,-0.554930754269192,-1.8597572250093,1.9679830923527,0.00822096039638416,0.00800566488658041,0.0114749666716354,-0.0230067770636247,-0.186882203721069,0.189466706354246,0.0122331430667229,0.207760933930398,0.20922755834972,15.3991498857122,1.92090834125947,1.98327652649227,0.0294336304195116,0.0714180707210032,0.129839520519981,0.482983060163321,0.0211010451090715,0.00570653311314411,NaN,NaN,NaN,NaN,2.01104491577433,-105.279667622794,1.5,stable,stable,1,0.566641002963997,0.211858746116119,0.138568592890604,0.954607446543623,0.342293546435564
87,2.02600971644357,2.73656582832336,-1.17177561194052,-1.63001219274331,2.02600971644357,-0.0687971515540127,0.00579779739645732,0.0690410205355929,-0.0763840058886552,-0.141254047045381,0.165119559591806,0.010651882527956,0.153229403470039,0.155836853075976,15.406154300693,1.0329326637343,1.09007056658759,0.176043693460314,0.240278333924013,0.146312250382379,0.473672691421388,0.155168505306261,0.0404593224441938,NaN,NaN,NaN,NaN,2.06469467336038,-124.238920485483,1.80329944898022,stable,stable,1,0.57143662833348,0.17253264560448,0.187195848387602,0.895297413603028,0.334972333163387
88,1.93620124039234,2.99916291236877,-1.09485341788775,-1.56403116621109,1.93620124039234,-0.0854429704232778,0.0136968337542207,0.0865338341323432,-0.0704239421212659,-0.134701432339831,0.158197392328252,0.0102028543112776,0.182309985420523,0.184824093657885,15.4477100924217,0.769035872587444,0.857669623755596,0.176012345743684,0.240312788099987,0.125077203396014,0.503581504791466,0.155818107302548,0.0408397315072306,NaN,NaN,NaN,NaN,2.00959748573364,-123.70580417537,1.73070837204791,stable,stable,1,0.553285149502867,0.255030912452294,0.237121851063017,0.899212569656891,0.344410131823994
89,2.61211735468644,3,-0.248142874675833,-2.56616605975998,2.61211735468644,0.00583914641209091,0.00573993611629698,0.0081879483047345,-0.00999529465500732,-0.343200949387907,0.343690992191039,0.0221926595011155,0.198868842742531,0.201634250325232,15.4113707488741,2.04684360349649,1.86686308586617,0.0291845456925702,0.0641602069350336,0.126077150019846,0.538149611775264,0.0221285773907408,0.00663590133908153,NaN,NaN,NaN,NaN,3,-94.0907171926139,1.75698645110652,stable,stable,1,0.736891477981431,0.0887747190514181,0.0655128097480178,0.954657174594437,0.343965711102291
90,1.92560044736476,2.88954520225525,-1.05107564714716,-1.58865044394919,1.92560044736476,-0.0742440782630371,0.0110798681038197,0.0750662816071638,-0.0630223632054214,-0.136384328089782,0.15453497062672,0.00996971740188089,0.1603275869155,0.162733518974251,15.3976327359972,1.08952878873469,1.06535011948481,0.176235408499101,0.240299375933262,0.155727165845219,0.354703364446149,0.15756912781042,0.0365677247894902,NaN,NaN,NaN,NaN,1.99637079272466,-122.311062912018,2.16969872220459,stable,stable,1,0.546040156425452,0.230649721478341,0.221717910827208,0.894951104328725,0.330787926291014
91,1.89666528315158,2.61418390274048,-1.13158386739156,-1.50879671313089,1.89666528315158,-0.0447798571413657,0.00621256143282088,0.0452087549613755,-0.0688508518745292,-0.120080348396951,0.140909246468296,0.0090903900520848,0.122516228198409,0.124899957832845,15.4230431179038,1.02169118804621,1.07090879713257,0.1768839703816,0.240221309702861,0.163214149128913,0.500572043057328,0.159137620804135,0.0365441792785548,NaN,NaN,NaN,NaN,1.94546366280019,-126.251978914843,1.96652057373766,stable,stable,1,0.530757400406989,0.169729961150422,0.185854600623687,0.895116157782795,0.327460378164928
92,2.62247791298257,3,-0.478538528570828,-2.54628199926216,2.62247791298257,0.00412862256553899,0.00546430038109453,0.00684865701751136,-0.0207424858066738,-0.338399951998597,0.339731179630834,0.021934572009167,0.200110028599629,0.202726062047006,15.3875628517587,1.81474076814959,1.77679988460957,0.0257729415773611,0.0553791372737678,0.125346246568827,0.456468054557557,0.00892779085396243,0.00742728464017204,NaN,NaN,NaN,NaN,3,-99.2513675644137,1.99649859529581,stable,stable,1,0.73987265587142,0.0861980566987987,0.0583875718437291,0.958894281225355,0.344290557080521
93,1.7131369148576,2.54897475242615,-1.05079451482609,-1.33417231637052,1.7131369148576,-0.0638342520666693,0.0203109251235971,0.0669876512223518,-0.0609365189264704,-0.0955453791654386,0.116724907518416,0.00752925144604405,0.136864047931274,0.138444211812718,15.4008831883822,0.95102445731668,0.96552527221354,0.18789453919086,0.240222421690429,0.159819888053714,0.419003311510583,0.121115305016571,0.00492776863142838,NaN,NaN,NaN,NaN,1.74681180591764,-126.657123786368,1.94363066266444,stable,stable,1,0.484525352991236,0.200344582843688,0.175827690023996,0.890994125386833,0.328968938642794
94,2.50262052721257,3,-0.254973133074349,-2.46133127639229,2.50262052721257,0.00723811826405246,0.0074731160328944,0.0104037406371705,-0.0101900704753907,-0.336004561272597,0.336451749059549,0.0217009749386986,0.189456530117559,0.190892078738239,15.4641151478278,1.0919443469184,0.70773588053045,0.0594836497918815,0.240401897383119,0.264734262834838,0.668051667777023,0.00193243095870769,0.0108039377353065,NaN,NaN,NaN,NaN,3,-94.2734617915732,1.69042223365122,unstable,unstable,0,0.705543889670999,0.11381773382732,0.0730782031312827,0.956117830459818,0.282340327628961
95,1.83119325299521,2.65376806259155,-1.15577790599168,-1.40686024613586,1.83119325299521,-0.0488457202215548,0.00507911264986874,0.049109080313853,-0.0719208452014349,-0.105335825445288,0.130241668499256,0.00840000254275716,0.124896614646164,0.126999305596616,15.4421659898106,0.837589480358155,0.906890489691941,0.176451853654972,0.240223099127293,0.120642620067558,0.411641814375321,0.158545760525478,0.0338530160270108,NaN,NaN,NaN,NaN,1.86493072097439,-128.583435678336,1.67520303799522,stable,stable,1,0.513718061918045,0.194082663550051,0.199224568231984,0.898067444836406,0.346381057747752
96,1.71952696149564,2.66954827308655,-1.0598067510026,-1.32273204873787,1.71952696149564,0.00701563273938469,0.000443271657382963,0.00702962250026027,-0.0641518914935363,-0.0957878002844275,0.121088148585562,0.00781941018803433,0.178749550370541,0.179670437688178,15.4011125774064,1.90402241545667,1.86493650679989,0.0186533661840091,0.0530248873855328,0.129623379305849,0.444984990937989,0.000135996456453498,0.0047324854559952,NaN,NaN,NaN,NaN,1.76269102467469,-127.19753908103,2.28646125247603,stable,stable,1,0.494474610603141,0.215043559233001,0.130807482211515,0.961060068233122,0.342389609197401
97,1.78428350026543,2.43939900398254,-1.10158312511677,-1.38316346055065,1.78428350026543,-0.049928544744624,0.0171889101525104,0.0528045283337234,-0.066301939531237,-0.102389975073673,0.125844455350571,0.0081169636487684,0.137488802920463,0.139569810201275,15.4590112805883,0.880710567679999,0.949978646187925,0.176877341037352,0.240219923883809,0.160364861332375,0.432068874260359,0.159048757491926,0.0357828704711295,NaN,NaN,NaN,NaN,1.81622668042125,-127.513201967813,1.71496527769985,stable,stable,1,0.50372289544437,0.157081818530866,0.177949380680191,0.897177342800933,0.328726728296722
98,1.87017918438525,2.54409503936768,-1.19200269393861,-1.42628099290552,1.87017918438525,-0.051916928378845,0.00184008968525779,0.0519495272581369,-0.0773822621006609,-0.108555792910264,0.136344312389086,0.00879424301687533,0.130533389091098,0.132768942426351,15.4236748660837,0.667300458736499,1.08892408346224,0.176481424021923,0.240236825386593,0.156542847902003,0.519299162719426,0.158601022666756,0.036128819359829,NaN,NaN,NaN,NaN,1.91962505408224,-128.853168090004,1.74392883081165,stable,stable,1,0.52526823765467,0.161155147368371,0.180320184322953,0.897960380871763,0.330425400932443
99,2.63025667914579,3,-0.169903573550054,-2.59166315526556,2.63025667914579,0.00486360513072675,0.00520307814647586,0.00712226628721268,-0.00646876941405859,-0.349237308097325,0.349558597340161,0.0225768707955784,0.200556791156592,0.203378327342851,15.4042806087516,2.09155422138002,1.90498942037193,0.0179838003687585,0.0510758582653048,0.141196963036479,0.468667110867775,0.000250832681517044,0.00623502476673959,NaN,NaN,NaN,NaN,3,-92.2002194325483,2.33404371563821,stable,stable,1,0.742077446574113,0.0844979960115202,0.0530775605320573,0.95960668548757,0.33724579420601
100,1.65508313356219,2.27427697181702,-1.05325307275003,-1.26173520577088,1.65508313356219,-0.044103600472472,0.00931214212392212,0.045075975481087,-0.0597399342287854,-0.084600982148643,0.106214010405294,0.00685298058669094,0.112239352538263,0.113970139274469,15.3814532501861,1.05031412113468,1.15554754407216,0.17697996929843,0.240188646188774,0.159012242648698,0.443942006359313,0.160626864829227,0.0353203328573063,NaN,NaN,NaN,NaN,1.68546986904653,-128.540481584722,2.37604882440935,stable,stable,1,0.464149530138145,0.147582542445535,0.172783000571856,0.89417824512416,0.329327892156134
101,1.6589538366408,2.29264378547668,-1.06815754409887,-1.25601683341636,1.6589538366408,-0.0436243846362391,0.0112841802856037,0.0450601782021392,-0.0616468601463425,-0.083895143519595,0.106526454271361,0.00687205963646968,0.11148281266219,0.113341572013637,15.4238866499886,0.829301171595877,1.12685821021787,0.176779821027429,0.240201560194688,0.168143412629398,0.478556756047586,0.159225820035264,0.0365667295522507,NaN,NaN,NaN,NaN,1.69807149429304,-129.55767099295,2.07055450199708,stable,stable,1,0.465056004173606,0.150841271158467,0.174568786386319,0.896240265772035,0.325269594386934
102,2.63213882956616,3,-0.134258198303571,-2.59671453458089,2.63213882956616,0.0053085860540673,0.00495873569196731,0.00726430626806362,-0.00486123735013914,-0.350423626517546,0.350676188675984,0.0226531814812975,0.19590785913025,0.198731610823059,15.3796332221902,2.13557449902878,2.10794242143431,0.0283054427372636,0.05412095564515,0.148719728564597,0.438026721885547,0.0207555333184014,0.00738212847481934,NaN,NaN,NaN,NaN,3,-91.8482151525671,1.53561098220539,stable,stable,1,0.741650010048922,0.0841005528300913,0.0623694235273796,0.952505359970587,0.333902342860179
103,1.68250389907184,2.43857336044312,-1.07941250909496,-1.26990999652448,1.68250389907184,-0.0535854205291579,0.00826222355240356,0.0542186465278928,-0.0641676072126717,-0.0866997017353084,0.111654115267245,0.00720189510779079,0.138241073067541,0.140053864695967,15.4514005011797,0.796216197051918,0.995337097899038,0.175085779813346,0.240196962565642,0.138890181665689,0.383698004156799,0.156462349823994,0.0406689704016313,NaN,NaN,NaN,NaN,1.75398132014352,-128.600052606655,1.63289515783925,stable,stable,1,0.476678479358351,0.180055714005317,0.192360967056872,0.898380619918712,0.338271030370805
104,2.65213131130888,3,-0.341201956785211,-2.59655624132008,2.65213131130888,-0.0203328008937857,-0.00843713614683934,0.0220138151747178,-0.0143561770583381,-0.349230187409963,0.349999743787598,0.0225963098046833,0.2031540947973,0.205248070470572,15.383114116824,1.7388089773086,1.57911718036518,0.0629926904018661,0.240446066557601,0.137240047330932,0.427852415075201,0.0018805417038018,0.00961887922536823,NaN,NaN,NaN,NaN,3,-96.2939600424606,2.03799967414842,unstable,unstable,0,0.748284630443149,0.0823063210708672,0.0537173632190914,0.942434234988773,0.339004423408475
105,1.74072098490354,2.51899528503418,-1.11025165343822,-1.31888734811051,1.74072098490354,-0.0537345138619294,0.0175426718317436,0.0565255987582099,-0.0681116141843064,-0.0944245808804452,0.120538120512618,0.00777490480917772,0.143315445788453,0.145240864063354,15.4222014322911,0.806016829465162,0.948112966789484,0.176654116488696,0.240232500441101,0.143178461858468,0.380908272571179,0.158888674339459,0.0384939825468294,NaN,NaN,NaN,NaN,1.78074250763471,-129.221424924807,1.78409080784572,stable,stable,1,0.493240435453615,0.185474743968399,0.195899846811565,0.897890493356508,0.336365128062903
106,1.84586928560582,2.60740566253662,-1.07516087620068,-1.47664142538946,1.84586928560582,0.00746604156191503,0.00322928603799176,0.00813449844301486,-0.0645739950323838,-0.116113834098538,0.137083207263389,0.0088514399902638,0.155089914689355,0.156176616849699,15.4099122321291,1.89908763166238,1.74652060318758,0.0274431483793885,0.0482297746014071,0.134509173628905,0.424336245023247,0.00883647462066534,0.00533466758789009,NaN,NaN,NaN,NaN,1.88415857146299,-124.959215831678,1.92315222639291,stable,stable,1,0.523467132864826,0.172837009523982,0.109569406890888,0.957634361107913,0.34021814505382
107,1.68079639286608,2.73862195014954,-1.02214355722876,-1.31364117936093,1.68079639286608,-0.0562718908400037,0.00876278375199893,0.0569500840894338,-0.0582096966753595,-0.0929007712646875,0.113335506895428,0.00730956273368574,0.136863633941705,0.138697066785544,15.4422064169752,0.686261570827017,0.906508121082143,0.176567241090642,0.240198745696956,0.131891068988297,0.395913733679483,0.160092047254445,0.0375840465291208,NaN,NaN,NaN,NaN,1.72726488943798,-126.550224489005,2.14908151236155,stable,stable,1,0.475951784788064,0.248451599138506,0.233889906495669,0.899201760446821,0.341381747116312
108,1.70047959645052,2.5048987865448,-1.04066382508928,-1.32399591748579,1.70047959645052,-0.0552248304237898,0.00537456573288956,0.0554857445850147,-0.0599217160942206,-0.0942523353724741,0.115459612504381,0.00744752053674969,0.136720260069019,0.138465970518039,15.4365358224505,0.732610018214127,1.08232318500632,0.176224433363786,0.240226007663571,0.154297943025216,0.435664770591477,0.158811151376371,0.0364183022694237,NaN,NaN,NaN,NaN,1.72684939224008,-126.925173742408,2.10067609356655,stable,stable,1,0.481154419823747,0.191166704278465,0.198525775519196,0.897627593864232,0.331423136433237
109,2.63309583616097,3,-0.30593445038837,-2.58508614878258,2.63309583616097,0.00182258644633366,0.00377150734527487,0.00418880520074896,-0.0118906743214242,-0.347005199134053,0.347548675045512,0.0224479696846592,0.188990800858871,0.19181630455024,15.3772276204983,2.16530438414958,2.05905713863605,0.0191249193598842,0.0691430176932928,0.136384906256616,0.495072162143674,8.60786978080827e-05,0.00824412524405446,NaN,NaN,NaN,NaN,3,-95.4171668207032,2.30552952146738,stable,stable,1,0.740522150552974,0.0833213844839185,0.0530289516144876,0.957246128355314,0.339384486108171
110,1.59130840133501,2.53786063194275,-0.930162171504913,-1.26312774718854,1.59130840133501,-0.0794283927390807,0.011498187444565,0.0802563261532947,-0.0507951412705884,-0.0890958289621545,0.107222237292513,0.0069154273806742,0.17009248299264,0.171720810738514,15.3934508988219,0.867032543258079,0.836263894923695,0.176385251291384,0.240229799378268,0.157107461073941,0.430699532304322,0.157043107860798,0.0411309399048014,NaN,NaN,NaN,NaN,1.65985778043302,-125.136897277648,2.12485335294082,stable,stable,1,0.458693069170371,0.227687911681513,0.221366389255857,0.898424330911451,0.330174461744915
111,1.56340500229114,2.3068470954895,-0.943969250862356,-1.23387714157264,1.56340500229114,-0.0422959797944373,0.00508210699137789,0.042600207960094,-0.0484658141117953,-0.0807301897721874,0.0961910587281818,0.00620442476873315,0.11025787716033,0.111875425436426,15.4493489878019,0.830352770728201,0.927300152698542,0.176571633215841,0.240157184099245,0.15452466514237,0.453171191525892,0.159477346797487,0.0364545352823022,NaN,NaN,NaN,NaN,1.59306398738573,-126.486183134521,1.77012011937957,stable,stable,1,0.439283085698255,0.175084509095649,0.189185720904382,0.897904053279441,0.331322371047836
112,2.63797860679818,3,-0.245846625310741,-2.59276792147635,2.63797860679818,0.00733808782207595,0.00656977988690644,0.00984934214284893,-0.00967527155866006,-0.349098606576426,0.349552554742666,0.0225755787536336,0.197779760970193,0.200542985959035,15.3575858046736,2.07864982394097,1.95102610678259,0.0180379752165454,0.0481739054102525,0.134680467449317,0.425087617767734,4.23132173810636e-05,0.0136665520175471,NaN,NaN,NaN,NaN,3,-94.1056534981467,2.32815464326208,stable,stable,1,0.743569559004655,0.0832605261965988,0.0549447768714589,0.959319272936042,0.34014201446697
113,1.7109708375222,2.48132848739624,-0.983400610720018,-1.37740638730818,1.7109708375222,-0.054094800508574,0.00842285458577216,0.0547466156162687,-0.0542391650254573,-0.102182207127185,0.119504079652303,0.00770865959014935,0.143831387784627,0.145759200338091,15.4468777011488,0.929388178858281,0.992542920561404,0.1766435838974,0.240226964961625,0.159588604576271,0.418853409689703,0.159971324437733,0.0358850694498101,NaN,NaN,NaN,NaN,1.77528590773906,-124.910768203071,2.06371926933301,stable,stable,1,0.485410730073538,0.183367350751309,0.194167893031123,0.896577320841574,0.329071731299435
114,2.68553173193966,3,-0.448344481279011,-2.61100861791314,2.68553173193966,-0.0312345602131632,-0.0120088890630036,0.033463579728374,-0.0172584989924174,-0.349406998424301,0.350424933038979,0.0226170163504142,0.201973255400182,0.204181149329458,15.4098214603221,1.64626833316284,1.3772103438037,0.0636202461676614,0.240287438119232,0.115463491903215,0.426414294923481,0.00183423344574116,0.00793937732562358,NaN,NaN,NaN,NaN,2.9979851142919,-97.9705526263991,1.5219847587747,unstable,unstable,0,0.756978025049802,0.0768903499304442,0.0498364711232671,0.944433973025718,0.34868289248746
115,1.85848836721601,2.71973419189453,-1.0623386039856,-1.50921872305051,1.85848836721601,-0.0577563248231507,0.00931254996358751,0.0585022789633157,-0.0615768306984282,-0.120392165609333,0.138101425634839,0.00890922970037565,0.122750295162096,0.125016075868331,15.3823108376884,1.05084775044616,1.03268090487877,0.176119173787839,0.240219955287333,0.163598603568622,0.511633635054271,0.159419841548533,0.0367217566862978,NaN,NaN,NaN,NaN,1.89315516909655,-124.179562229341,1.76153371359527,stable,stable,1,0.520600113097935,0.204505728362609,0.206910065995769,0.895569830814242,0.327289509525057
116,1.64300452442299,2.66022181510925,-0.981785654664246,-1.28780876884407,1.64300452442299,0.0117612149351988,-0.016815898950399,0.0205207366890659,-0.0551755093926655,-0.0918478636248158,0.112357582145419,0.00725004131600845,0.184588695841347,0.185452086578671,15.3980651211339,1.24511646540929,1.45011894930451,0.0259030608027134,0.0979072597252834,0.149717147917173,0.456906778242807,0.0161700324505499,0.0100069347709475,NaN,NaN,NaN,NaN,1.69700248239393,-126.66944677606,1.6497364680442,stable,stable,1,0.475224957161866,0.23263602546407,0.150407181738829,0.965871619911606,0.333459045370145
117,1.47462695806454,2.32467246055603,-0.862631409428269,-1.17824887669574,1.47462695806454,-0.0224928922596953,0.000282132393394854,0.0224946616087832,-0.0459911007931793,-0.0821680446359852,0.0970932084706831,0.00626124058130357,0.144066786351306,0.144826424369769,15.4660400149245,0.469984269108822,0.788207742188486,0.163789705866254,0.246544941656791,0.239392777860852,0.439389067241496,0.277585200457832,0.00591477932121507,NaN,NaN,NaN,NaN,1.6721231422542,-125.43586516234,1.70634825542218,unstable,unstable,0,0.422199140357832,0.195384259355528,0.242752584660876,0.908219352692394,0.293603209839621
118,1.70052051057621,2.46327757835388,-1.04133603121451,-1.33090668605211,1.70052051057621,-0.0377862616365221,0.0201138740466468,0.0428061852730195,-0.0589747080397969,-0.0947748758029678,0.114061011968357,0.00736167003311997,0.124899058052909,0.126740346951414,15.3455998294162,1.19570230511039,1.30429788920363,0.177291326682496,0.241988216793122,0.185492354461978,0.503198164706879,0.158313561299932,0.0370302777123999,NaN,NaN,NaN,NaN,1.78141492798702,-127.597402747289,2.31621778480618,stable,stable,1,0.478820205543939,0.179468140883363,0.191508022861769,0.891711477989142,0.317558953572454
119,2.56634981456808,3,-0.366893451799422,-2.50666274889797,2.56634981456808,0.00899708388994479,0.00860800135668392,0.0124517149774389,-0.0151244301140465,-0.329390220662614,0.330207928324155,0.0213212281995582,0.204204840733705,0.206834298283795,15.3849737314233,1.96602143277435,1.79552014092586,0.0278299617313985,0.0538594819808882,0.131388951430516,0.450738761207457,0.0203298674157844,0.00776361911709313,NaN,NaN,NaN,NaN,2.88139783872518,-96.8469577847742,1.60460664548194,stable,stable,1,0.725726810208246,0.0998541061347133,0.071771094534463,0.956530049626656,0.341604910475326
120,1.73063902274982,2.32268834114075,-1.02678133057813,-1.37820228705174,1.73063902274982,-0.0486757180354152,0.0108383873161777,0.0498677868556319,-0.0574437665000048,-0.100533854676778,0.118370359419328,0.00763555201429674,0.113357674583416,0.115250244925366,15.3987518802495,0.952712163700997,1.036818768363,0.177271214390574,0.240203149861531,0.168224974732405,0.448232564764762,0.159084456918858,0.0360305597170003,NaN,NaN,NaN,NaN,1.76744363452008,-125.864521808831,1.60664210279274,stable,stable,1,0.484553788385026,0.142353524228157,0.169218339327215,0.895732364052782,0.325233344563375
121,1.6986653249006,2.48159694671631,-0.988935146019422,-1.36198868232751,1.6986653249006,-0.0517353503761986,0.00758910629762747,0.0522890142663324,-0.0544756735095534,-0.0993104000053142,0.116525706557899,0.00751821428715263,0.132779781700137,0.134762578579405,15.4001928158584,1.03151431953828,1.12279660087189,0.177750924284834,0.240225763584573,0.158334207148381,0.487240509278198,0.159590630240257,0.034093824258429,NaN,NaN,NaN,NaN,1.76448514358837,-124.664357217421,2.19206585333912,stable,stable,1,0.479929935689375,0.185745934190695,0.194774483785879,0.894197809197217,0.329629241267386
122,2.62906666423963,3,-0.379189363056835,-2.57036080990681,2.62906666423963,0.00666432927447146,0.00398462394535234,0.00776469655971516,-0.0154828546030875,-0.343576945062144,0.344401870875572,0.0222453371260781,0.193387051713708,0.196194163992132,15.3704420660729,2.24490412879781,1.94269727494995,0.0292856758384432,0.0583802859222597,0.142214947617778,0.452279883689658,0.0203728864671213,0.00669736260051428,NaN,NaN,NaN,NaN,3,-97.1526305433791,1.60597309271469,stable,stable,1,0.740323276595662,0.0848835282486966,0.0624201377388326,0.95245457962276,0.336793356614321
123,1.60228575484173,2.42556190490723,-0.915657520929133,-1.29618186741453,1.60228575484173,-0.055412100058252,-0.000291369087480054,0.0554128660945351,-0.0465939815754601,-0.0904236405907945,0.104577515521085,0.00674453816451612,0.127724189227635,0.129399224116847,15.4477504789076,0.786461642176518,0.835401105471914,0.176079590810693,0.240176000306551,0.139600540985463,0.399756665389683,0.158912165335356,0.0361776526765895,NaN,NaN,NaN,NaN,1.66518818535526,-124.488998271363,2.11634706650697,stable,stable,1,0.453156046114497,0.195396159215402,0.201020834631392,0.899216997291701,0.337955315117572
124,2.67539571149506,3,-0.541001541759888,-2.58806226945568,2.67539571149506,-0.0243840862226727,-0.0113525734549244,0.0268972969824886,-0.0228014745290194,-0.342088099982305,0.343728179633349,0.02219176457985,0.198330112712648,0.200467072161558,15.3778410007025,1.81478503684117,1.58206652156083,0.0630963880931915,0.240527392625299,0.133695650742813,0.491129768580121,0.00189798020119332,0.00882639785147633,NaN,NaN,NaN,NaN,3,-100.530616564359,1.76825634194319,unstable,unstable,0,0.753532270830994,0.0779671360270681,0.0508334275910454,0.941762257994532,0.340579710780972
125,1.56168233301188,2.11183452606201,-0.803860985664209,-1.32668538628448,1.56168233301188,-0.0384912632050244,0.0108914299864552,0.0400025072997721,-0.0357575918189719,-0.0934779888755932,0.10157504363836,0.00655286348301486,0.118388352881481,0.120041077358099,15.3667327017362,0.973774300051695,1.04549640159332,0.176932686312023,0.240179311820499,0.163723145276896,0.487933685251829,0.158167799106596,0.0367866984625613,NaN,NaN,NaN,NaN,1.59718321662841,-120.692341177793,2.4573830689206,stable,stable,1,0.440456837608122,0.131118036441237,0.162344602726787,0.895667958473921,0.327234157654713
126,1.54546579808296,2.34534025192261,-0.860815680684041,-1.26579439819569,1.54546579808296,0.00529087439812185,0.00267568817566942,0.00592896779466025,-0.0412670749177931,-0.0851060275859084,0.0970936254863403,0.006270058707924,0.122027251472356,0.122801150672235,15.3730720519828,1.92029151123516,2.02987434636403,0.0205049988479711,0.0668447277131466,0.127492971646985,0.424161650843521,0.000687128465938241,0.00559027855198451,NaN,NaN,NaN,NaN,1.57811714801433,-123.111297136965,2.22571488333071,stable,stable,1,0.436684442956569,0.181058729542942,0.110973456719429,0.958710483123449,0.343336457045784
127,1.49067757782098,2.12530088424683,-0.749508682814184,-1.27546997332216,1.49067757782098,-0.0382312568433746,0.0012402040269185,0.0382513673723236,-0.0312618489930274,-0.0860786781631603,0.0929969918170135,0.00599927041670157,0.107057151855958,0.108572990483511,15.4328870557918,0.925201058811469,0.960954147744077,0.176744428344533,0.240151562013572,0.155966130285268,0.419771943710151,0.157991394870421,0.0366716790307761,NaN,NaN,NaN,NaN,1.53181850141805,-119.504479623187,2.09027318444568,stable,stable,1,0.419228618848965,0.14980299463074,0.173435350509823,0.896807994919083,0.330681719873214
128,1.63321204282142,2.41973686218262,-0.877617996547187,-1.35039220766224,1.63321204282142,-0.0553230897347179,0.0119447657617874,0.0565978947214436,-0.0451113891135808,-0.099635708054159,0.113251808176318,0.00730491826143492,0.154874214924909,0.156655834660435,15.428355932524,0.855249570331662,0.909874705702879,0.176939715311271,0.240204364924432,0.170744779784658,0.463950209616286,0.157504992770291,0.0356154912458742,NaN,NaN,NaN,NaN,1.67347133841587,-121.814224359451,1.65445809036236,stable,stable,1,0.466854378351132,0.187344365055201,0.195359925767911,0.89766130874695,0.324113431206818
129,2.61263197799989,3,-0.516690602798295,-2.52769926476385,2.61263197799989,0.00818503187018591,0.00901233938629118,0.0121744407645548,-0.023080814419397,-0.332559341364984,0.33418421640074,0.0215802910065385,0.198847054869481,0.201478934670131,15.3888137413765,1.94847642126988,1.93146114359266,0.0291633072856359,0.0511133362472565,0.140424434612149,0.467504100233984,0.0194346288300119,0.00514159182846787,NaN,NaN,NaN,NaN,2.98812679975473,-100.15154225882,1.5,stable,stable,1,0.736997647733996,0.0893897857568602,0.0641411540232613,0.954933122633262,0.337589140172378
130,1.6425500640998,2.4071159362793,-0.918036086823238,-1.34023029484613,1.6425500640998,-0.047331189039993,0.0123872770324224,0.0489253113246868,-0.0474842732464374,-0.0967322867764213,0.111053649852898,0.00716239820920714,0.13916495417411,0.141004869332827,15.4562878087124,0.881986366258282,0.751237770239513,0.176208642772121,0.240232219712661,0.168350029695388,0.386651977727208,0.158924501437166,0.03654826111573,NaN,NaN,NaN,NaN,1.67291748571223,-123.514973806059,1.75441546590606,stable,stable,1,0.466214324293179,0.180996961649912,0.192521565509155,0.899063203255743,0.325177764579827
131,1.49776279080558,2.24841403961182,-0.745860864814696,-1.28405261235382,1.49776279080558,-0.0518161737878918,-0.0120687763809453,0.0532031129667266,-0.0315423479626025,-0.0880200086889182,0.0951146222578937,0.00613433861726589,0.118910258267726,0.120365317912658,15.4484500634988,0.847888258258441,0.745331866977179,0.176664527047664,0.240180612033741,0.117764492728566,0.472478145188238,0.159122294657671,0.0377425927354268,NaN,NaN,NaN,NaN,1.54515709711904,-119.107877075441,1.54971969407718,stable,stable,1,0.423476474464021,0.178650435025302,0.191635860039554,0.899149578349317,0.347660225453971
132,2.61775213978362,3,-0.457529430679223,-2.54500068453208,2.61775213978362,0.00919266609135724,0.00574966276023533,0.0108426810210218,-0.0196767737845101,-0.336775173949895,0.338000976804432,0.0218321019449842,0.199627880846651,0.202356066789604,15.3334315507035,2.15062949925654,2.10929861039901,0.0289613717014514,0.0565363154447896,0.1522230123517,0.429818135277986,0.0251826831207279,0.00760368471260644,NaN,NaN,NaN,NaN,3,-98.8062245222683,1.57885851073975,stable,stable,1,0.738538450633554,0.0879935934025388,0.0667534359098653,0.952048450430552,0.332345327843689
133,1.62858122867226,2.50266361236572,-0.857956215322703,-1.36044994719538,1.62858122867226,-0.0592829287731,0.00582792306928636,0.0595687026148629,-0.0433841013680837,-0.10176094671929,0.113973559371666,0.00735079850448767,0.161731908994503,0.163512991574579,15.4542773544117,0.748456711569063,0.910095902747718,0.175332009143018,0.240220350494327,0.151349689523688,0.429066565479361,0.156006953038817,0.0422210609367747,NaN,NaN,NaN,NaN,1.68330103474598,-120.509023497779,1.73230132956395,stable,stable,1,0.466990925960851,0.207589465143754,0.209243215726978,0.899302510601717,0.332733471322805
134,2.65438008907309,3,-0.627097787898203,-2.54425793202379,2.65438008907309,-0.023770695958374,0.00142784685817899,0.0238135409587879,-0.0294505053281062,-0.339549676107297,0.342151118618309,0.0220894907515481,0.201473878485004,0.203503379217445,15.3526901559514,1.82088484222498,1.49282628443746,0.0630705187647581,0.240289098056579,0.132129523183819,0.509633249137788,0.00189721356922176,0.0101928550838107,NaN,NaN,NaN,NaN,3,-102.269542710179,2.07262050305625,unstable,unstable,0,0.74853536626298,0.0821302958009992,0.0538278762691141,0.94242843890813,0.341275767473858
135,1.65120704310971,2.42047214508057,-0.848809757454989,-1.39088865370737,1.65120704310971,-0.0612607615104916,-0.0102789502705755,0.0621171290346736,-0.0426029776660393,-0.106069052599293,0.11777621275476,0.00759655068331832,0.152430028768916,0.154153091609896,15.4337833984748,0.843754183263395,0.881314839427404,0.176755078358515,0.24024463279469,0.138733582256899,0.441087679753631,0.158293176342985,0.0378142155909598,NaN,NaN,NaN,NaN,1.71044333906111,-120.370167332204,2.26228931320999,stable,stable,1,0.471152496484569,0.184472788266465,0.194786819630242,0.898068347071029,0.338340630108045
136,1.62553340475695,2.35338687896729,-0.758356633513118,-1.41937278619632,1.62553340475695,0.00431288506622356,0.0063185329931123,0.00765015272916188,-0.033407741708685,-0.106582083587549,0.113637309819711,0.00733765547361015,0.136343801499314,0.137246959571179,15.3546352501178,1.9262927686136,1.97135238198672,0.0259453054895601,0.0629534144954421,0.135165702230102,0.465614297813803,0.0100276212994658,0.00722822235315442,NaN,NaN,NaN,NaN,1.66149639163359,-116.91481150861,1.95379134360867,stable,stable,1,0.460924966516089,0.165169559697672,0.1061869008882,0.956402992500503,0.339926354564399
137,1.4564187587113,2.34931182861328,-0.69772560943651,-1.2537014162437,1.4564187587113,-0.0600522892098623,-0.00513016713794764,0.0602710216788153,-0.0298790848190789,-0.0872241777541929,0.0947863505311014,0.00611315050373263,0.163466204565554,0.164977334853446,15.4640302135866,0.798092344788141,0.755963993777951,0.176437899117161,0.240169719886448,0.130709834781759,0.345281407730731,0.158647479416308,0.0368122450050692,NaN,NaN,NaN,NaN,1.50463962214456,-118.009747287404,1.5,stable,stable,1,0.421373802627036,0.211950628035729,0.211066638584064,0.899570607781257,0.341906740096996
138,1.58153964619379,2.27822089195251,-0.71599014750048,-1.39371292484277,1.58153964619379,-0.0495461621216196,0.00475516004047579,0.0497738257319281,-0.0295919683004516,-0.103351219978063,0.109025249416462,0.00703282581944161,0.127289511820355,0.129027325706315,15.3977067300314,0.955309227305064,0.902938163392256,0.176364041688043,0.240178670404327,0.159619763462747,0.484114892508818,0.157170911535502,0.0360461439781807,NaN,NaN,NaN,NaN,1.62198882751374,-116.427624599585,1.63067589117052,stable,stable,1,0.44754937079294,0.1658784816799,0.182488516187502,0.897217463943357,0.329057882905446
139,2.5822214565865,3,-0.455307009237171,-2.50658411379618,2.5822214565865,0.0171116723780492,-0.0122665502302393,0.0210541584045688,-0.0205063278910623,-0.335593606760801,0.337038320200255,0.0217419262831644,0.185092626095321,0.187437383250451,15.4675590112752,1.17699263117746,1.0945130659029,0.0229473523623963,0.0599570168845124,0.275871546978207,0.511398803403746,0.00313960888872342,0.00897831829502125,NaN,NaN,NaN,NaN,3,-100.33835635475,2.4527534974359,stable,stable,1,0.726079865073156,0.0978601013088756,0.0633762855300182,0.970678779056028,0.277390423565241
140,1.3774765253067,2.17241859436035,-0.644357457292319,-1.20471316259204,1.3774765253067,-0.0540270189394518,0.00434927149702216,0.0542017982915575,-0.02693259859058,-0.0882385207468192,0.0936075752616563,0.00603656376413211,0.134661989279496,0.13605315952123,15.4399734257038,0.60056598852994,0.572195194153621,0.167018001271825,0.240209693893026,0.146327600733089,0.375078557785268,0.156369488554067,0.0399607036847127,NaN,NaN,NaN,NaN,1.62484937329115,-117.662804067615,2.14490136914805,stable,stable,1,0.394537705319366,0.188798961890523,0.197308092579048,0.907276447214431,0.334965510785294
141,1.53982067671982,2.50326418876648,-0.774888947338172,-1.30472945229049,1.53982067671982,-0.0593382814618577,0.00469062881113308,0.0595233873825279,-0.0364524858104259,-0.0941037396502789,0.104065034126987,0.00671254760544631,0.159727266080934,0.161372660462614,15.4387870589698,0.872764816249596,0.926502595808405,0.177166993798382,0.240182343925628,0.123030074793351,0.45584834163523,0.159054407829773,0.0371170706168807,NaN,NaN,NaN,NaN,1.58700801541868,-119.377240163094,1.60137004494002,stable,stable,1,0.442893379217808,0.227687411230628,0.220800411250677,0.897279402006067,0.345319966758511
142,2.63253226926096,3,-0.609486868105132,-2.52872669718175,2.63253226926096,0.00743342807504747,0.00448232770762646,0.00868027157555913,-0.0283318124352649,-0.332361551910802,0.334679567413676,0.0216156078458999,0.193629464569905,0.196235183754385,15.4007505875725,2.19354657658588,2.12840883250978,0.0231441728655467,0.0710219125954314,0.149036133190574,0.498799246907391,0.00039578146850733,0.00859881616686234,NaN,NaN,NaN,NaN,3,-102.460692774955,2.12684442444731,stable,stable,1,0.741255641887132,0.0842716225384709,0.0538657186404701,0.954469692495761,0.333761718581967
143,1.43937318188113,2.15326237678528,-0.632314380830463,-1.27810192224126,1.43937318188113,-0.0468465125401746,-0.000400154192881983,0.0468482215303293,-0.0233769405162803,-0.0879945870361534,0.0923258131078019,0.00595387029692722,0.118801018354381,0.120152226452817,15.4768436154234,0.728749893230177,0.656973173561156,0.175085652516871,0.240171730303745,0.117729419507631,0.368534577509237,0.158777007817145,0.0376387847316127,NaN,NaN,NaN,NaN,1.50542716708844,-115.316950545559,2.45172451461911,stable,stable,1,0.407863293792198,0.169213909467327,0.185782735521734,0.901569349645347,0.347675813552164
144,2.60092833169081,3,-0.53014505324715,-2.51304093408637,2.60092833169081,-0.010444139731966,0.0114585525967827,0.0155041440380973,-0.0252218045223812,-0.336422559528682,0.338408316595551,0.0218525520030077,0.206021717829953,0.207990275289602,15.3576480971735,1.86471349784116,1.62121991136443,0.0630227238677012,0.240515241065191,0.146788249411138,0.437680966899453,0.00189678423218409,0.00949732416026681,NaN,NaN,NaN,NaN,3,-100.955060334027,2.39996288733924,unstable,unstable,0,0.735178943508802,0.0926335517765531,0.0598767187021511,0.941099161279534,0.334760778039494
145,1.6218899983812,2.4522078037262,-0.755143117779083,-1.40731499333638,1.6218899983812,-0.0751520062050691,-0.00645871199828548,0.0754290328542236,-0.0356008031020481,-0.107669394721867,0.116463942913295,0.00751263464416521,0.160569242669307,0.162297244373575,15.4140527339448,0.918714854343755,0.940521462878848,0.177420854479693,0.240194290748164,0.139035282967276,0.374650691252702,0.159742079594966,0.0352599025379375,NaN,NaN,NaN,NaN,1.68254359450145,-116.590495520199,1.8392352100148,stable,stable,1,0.464963448443036,0.200650162225898,0.204208359896592,0.896681287410548,0.338206540903433
146,1.73733561652959,2.53947424888611,-0.815500518133806,-1.52137551345105,1.73733561652959,0.00538642004465478,0.00131011394394314,0.00554345735471764,-0.0368082930212182,-0.121332789989254,0.128224695116989,0.00827824388432317,0.117374134794488,0.1184326499609,15.4355572245559,1.75105459380161,1.85316133312128,0.0188417673043688,0.0452683396027314,0.1265069514235,0.429293655083762,0.00021142994956052,0.00761421060010395,NaN,NaN,NaN,NaN,1.779143412243,-117.297381887505,2.27145057124161,stable,stable,1,0.486976027733403,0.181497492795249,0.111761268398204,0.962260276921993,0.343774688256222
147,1.44435615747567,2.05400705337524,-0.71267396023905,-1.24118411559727,1.44435615747567,-0.0520653364134498,-0.00186863599835891,0.0520988584936375,-0.0288891866280593,-0.0821794527982641,0.0887007979889358,0.00572049442123807,0.115716142771115,0.117085500046152,15.4455122970853,0.714442480567867,0.8148410851346,0.176216788900571,0.240139178325163,0.126699654393183,0.403445514397529,0.155859937227407,0.0397043297707898,NaN,NaN,NaN,NaN,1.48754464037965,-118.732441752547,1.58574394131405,stable,stable,1,0.408578742002742,0.146722908967904,0.171742766691392,0.899875806104909,0.343689042491919
148,1.70086493202158,2.45141458511353,-0.77184680467659,-1.50302404199249,1.70086493202158,-0.0490410650231064,-0.00295514699573484,0.0491300208871007,-0.0332200543328325,-0.119223107238552,0.124995161163747,0.00806324517120469,0.108555941293104,0.110620939108699,15.4005537164872,1.06835029351256,0.968472996485056,0.177139145221485,0.240229970277136,0.144365024733451,0.482002159844553,0.158343640281891,0.0359255002274188,NaN,NaN,NaN,NaN,1.75445964810256,-115.915142708198,1.91309295195262,stable,stable,1,0.475688169694161,0.177880842441656,0.190167274965906,0.89542681582499,0.335837766785133
149,2.57306272010739,3,-0.598046197454471,-2.47133960680691,2.57306272010739,0.00622774097576792,0.00454481656078968,0.00770974158013658,-0.0275140384790678,-0.320144585504035,0.322417847080164,0.0208202725468767,0.204013231346914,0.206546861960891,15.3746486782379,1.92089777178447,1.95664807303445,0.0231493956088169,0.0719411624603481,0.129071752169598,0.477625978835452,0.00418285596550933,0.00599365264709829,NaN,NaN,NaN,NaN,2.89228411426449,-102.374592577792,2.11585141738988,stable,stable,1,0.727459431087483,0.0974743405988613,0.062523161508589,0.957958870557729,0.342634776813512
150,1.50077606616793,2.1466805934906,-0.640375501049411,-1.34584706252742,1.50077606616793,-0.040452608752292,-0.0022568413031311,0.040515514158573,-0.0235114475704623,-0.0962443471344014,0.0999893509591541,0.00644971244854721,0.106785272365006,0.108344991429268,15.4266223975657,0.896747077455243,0.93059577450332,0.176830291945089,0.24017091798262,0.139300525933969,0.404969428935259,0.158522009911048,0.0380233819436723,NaN,NaN,NaN,NaN,1.57055207434036,-114.528428258895,2.27370617256895,stable,stable,1,0.42187594926397,0.152756362910005,0.175934728716289,0.897227160190638,0.338088655140458
151,1.47682509606317,2.21402788162231,-0.652547699336673,-1.30752557689234,1.47682509606317,-0.0546063380048198,0.00140198391995228,0.0546243325744894,-0.0249030575540996,-0.0915077083790568,0.0962780257650491,0.00620862062344129,0.127419983534918,0.12891763691662,15.4803189140486,0.733083224403159,0.581523167130481,0.175759471201823,0.240167983421388,0.148762052417491,0.394159914726573,0.154983470345436,0.0405241857554274,NaN,NaN,NaN,NaN,1.53043490962982,-115.371127707452,1.75315002597765,stable,stable,1,0.419603553000168,0.175885087722798,0.189148662556856,0.901791214179895,0.333883532258893
152,2.60933138415168,3,-0.651535802070279,-2.49331352482302,2.60933138415168,0.00232546395030811,0.00439531703310937,0.00497258427839328,-0.0314413295225937,-0.324895850289495,0.32781336167968,0.021169961585574,0.200667891804998,0.203237342386661,15.401060545602,1.97769601065769,2.02565856533046,0.0206765485950006,0.0565802079475215,0.129326914598606,0.467124552351943,0.00126281708154676,0.00715895525877504,NaN,NaN,NaN,NaN,3,-103.235441300153,2.21237344802489,stable,stable,1,0.736469170917779,0.0888120790169118,0.0564517559041265,0.958206796891164,0.342521371289509
153,1.45955046231315,2.08179140090942,-0.691256725505266,-1.27446658798238,1.45955046231315,-0.0385688436720699,0.0114495896510565,0.0402324347433529,-0.0270683863584726,-0.0869941326236614,0.0921860421097687,0.00594497614756969,0.110869973068238,0.112292242395999,15.4436241472041,0.695774586976362,0.728429968406867,0.176374905949578,0.240166983621966,0.142241957438722,0.396418589044727,0.156837755506277,0.0356362536663632,NaN,NaN,NaN,NaN,1.53053947457772,-117.277382087191,1.61171698676535,stable,stable,1,0.411671905096039,0.147380157553777,0.171092401343027,0.900622368375771,0.336781352249457
154,2.68593840016003,3,-0.67732838478303,-2.56251514966756,2.68593840016003,-0.0323446827444183,-0.0083412672880951,0.0334029226536918,-0.0298833676412048,-0.338141093818856,0.340723768425785,0.0219897072193351,0.202177115058533,0.204235146690176,15.4253025497718,1.56122399380298,1.42403084186722,0.0631651678695259,0.240409147200242,0.122038384706641,0.404264545870511,0.00182667127990855,0.00876445984047529,NaN,NaN,NaN,NaN,3,-102.931426400997,1.60218761295882,unstable,unstable,0,0.757097269380709,0.0767877291171711,0.0500715676781116,0.9449618423564,0.34576071790816
155,1.63829304640358,2.30691885948181,-0.771480173479758,-1.4277619557861,1.63829304640358,-0.0528108031904859,-0.00469103355218575,0.0530187394174171,-0.0342542401501489,-0.108560255653682,0.115726395720204,0.00746393493850141,0.12892656857778,0.130708861677662,15.4022875050725,0.753421765780623,0.934209643124124,0.176477325298969,0.240179096952554,0.14153057549525,0.525133126885635,0.155563491189225,0.0412089826734219,NaN,NaN,NaN,NaN,1.68981233095603,-117.495671617653,1.62375198640526,stable,stable,1,0.463019918043153,0.16016091016913,0.180220960127428,0.898501376280549,0.337097522002111
156,1.62067460794513,2.48132586479187,-0.708042353523062,-1.43972555196699,1.62067460794513,0.00352652571228862,0.00324943422259307,0.00479533172641808,-0.0292514972954357,-0.109974778940933,0.115465334613838,0.00745505112931626,0.138157035173241,0.139051431422434,15.4408336142084,1.90174524024522,1.84232850538038,0.0241828196623144,0.0468793645853693,0.13712160908671,0.419778427064081,0.00778984486936438,0.00669801570915277,NaN,NaN,NaN,NaN,1.64682358488304,-115.230680905002,2.06590229442238,stable,stable,1,0.459990181736521,0.194525676940361,0.122613201515545,0.958490867881785,0.339057062628129
157,1.65962513717445,2.40486764907837,-0.730441184672432,-1.47791743689724,1.65962513717445,-0.031932857093937,0.0119803685368325,0.03410625444783,-0.0298320441304132,-0.115116389848253,0.120011756007985,0.00773956465175894,0.104826839551802,0.106782734284758,15.4744698406499,0.795443924859488,0.709437921399996,0.176172404130078,0.240174054775562,0.126368636161898,0.369765097888467,0.159013939712959,0.0354522309663934,NaN,NaN,NaN,NaN,1.69535374865113,-115.407012304463,1.58531596119741,stable,stable,1,0.463923250103472,0.173932378493817,0.187924009542354,0.900089726285779,0.343836161705823
158,1.61046597039377,2.39388561248779,-0.758299216733192,-1.40481191667946,1.61046597039377,-0.0493642890720175,0.00512831888532899,0.0496299575878856,-0.0330534701188755,-0.106113866459222,0.11283372673733,0.0072789008443341,0.126348704903767,0.128094237184001,15.3988270959429,0.995126087713954,0.968014381499113,0.176895097041227,0.240191616632691,0.164156959504801,0.428781153415977,0.157894463209183,0.0355356095976086,NaN,NaN,NaN,NaN,1.65925020896733,-117.23842078182,1.81560265954896,stable,stable,1,0.455076439541806,0.185368245028933,0.194318303852895,0.896127776364141,0.327041351331199
159,2.5763524156749,3,-0.739709226164263,-2.43486558476529,2.5763524156749,0.00557422542554822,0.00369375916236465,0.00668699079140842,-0.0374693705848387,-0.310791715648485,0.314779292092671,0.0203242771339684,0.200677507666014,0.203049909335941,15.3821687745554,1.94879041690109,1.75738126269867,0.0269996679051692,0.0511290714105663,0.127952587225601,0.413057822219216,0.016191318050592,0.00494755299404562,NaN,NaN,NaN,NaN,2.88835322200788,-105.56852442763,1.86409539053187,stable,stable,1,0.727637292713829,0.0965466547849047,0.0669232444064144,0.957380245707703,0.343132183455289
160,1.49810229000208,2.22279810905457,-0.664001540156261,-1.32654124706143,1.49810229000208,-0.0581951179226244,0.00432216212511682,0.0583554010821959,-0.0259502722650438,-0.0942656118048008,0.0992109803816527,0.0063987761471038,0.118679818827418,0.120210154979994,15.3930050698954,0.74825810620293,0.879961278969089,0.176389745334437,0.240154530088712,0.147259405580403,0.457420997597925,0.155775200350343,0.0405439980952674,NaN,NaN,NaN,NaN,1.56544004446909,-115.546181583882,2.12882580577883,stable,stable,1,0.423535974996552,0.173755049485213,0.188229724103701,0.899011975020716,0.334551375297599
161,1.69597479683815,2.49441170692444,-0.815986777073267,-1.46165297510884,1.69597479683815,-0.0885007328796937,-0.00573776949677234,0.0886865362895687,-0.0404426557224896,-0.116394659554292,0.126250166302994,0.0081444308159419,0.175993298754915,0.177580918264011,15.3757759775798,1.05203932746776,1.01267352794838,0.187430746200653,0.240218566421809,0.143444512941271,0.489933178095628,0.117930763211976,0.00498881926624047,NaN,NaN,NaN,NaN,1.70136515468512,-117.053321105748,1.69372128099203,stable,stable,1,0.48777612947631,0.195907503089168,0.171772290488972,0.890061883035689,0.336246883137213
162,2.36040288699816,3,-0.689213329924219,-2.22785682747796,2.36040288699816,-0.0302894288306016,0.0256013781273096,0.0396595519503381,-0.0355228120463941,-0.283963879643586,0.287689555573023,0.0185548396685302,0.204716433355143,0.206036512863464,15.4662906652518,0.935805888844317,0.757791864900688,0.0216787557895387,0.106393482507206,0.261133452266019,0.636879790783897,0.0273380811255669,0.00971256198260119,NaN,NaN,NaN,NaN,2.85921158454158,-105.062668776886,2.20754805802594,stable,stable,1,0.67064807243887,0.151180268282975,0.106390259968761,0.97585378261152,0.28394068788177
163,1.67448226302057,2.34842848777771,-0.777885417355401,-1.47126000750978,1.67448226302057,-0.0531912228242907,-0.0127725689977157,0.0547032421739768,-0.0339163647920961,-0.114540437935079,0.120611075916395,0.00777750699480115,0.123193447911948,0.125189738081064,15.4802440230736,0.755110401771863,0.51998808410202,0.175394275036773,0.240162662444672,0.11245334604711,0.345286289453395,0.1583465889763,0.0355481535513746,NaN,NaN,NaN,NaN,1.71874998102098,-116.787170824054,2.05231959679665,stable,stable,1,0.471566551088364,0.161666828302253,0.180302960040005,0.902284231521176,0.350020735090174
164,2.50181354304491,3,-0.766594681533942,-2.34647619359596,2.50181354304491,-0.0226339312071631,-0.00953335094299283,0.0245597154318378,-0.0392097402348784,-0.288153978516831,0.29310204544128,0.0189205102095565,0.231291857788423,0.23294232292101,15.3412674578011,1.67314060030999,1.5002833154726,0.0630884053966431,0.240248454893393,0.128640922238294,0.499990158189667,0.00190960448807922,0.00970184962653151,NaN,NaN,NaN,NaN,2.64390369362176,-106.697557678757,1.89945952629546,unstable,unstable,0,0.713738742729513,0.116594567310731,0.0743333988109904,0.943521752249101,0.34282625678298
165,1.63697074796702,2.35830593109131,-0.697638581175621,-1.46435880261463,1.63697074796702,-0.0540806003425818,-0.0148139804591694,0.0560728575200043,-0.0285976117802512,-0.114267327671228,0.119186933885507,0.00768827831622783,0.126565992715713,0.128404250840359,15.4348549954719,1.01574775823006,0.938033263448796,0.176309590178006,0.240188384449429,0.139764034212785,0.450705722092932,0.158766611332023,0.0374613569367555,NaN,NaN,NaN,NaN,1.65443912380199,-114.70021335318,1.95009984349957,stable,stable,1,0.462206382959278,0.172580440081631,0.187733514032132,0.896494068312092,0.337882651460984
166,1.65896185166062,2.4138662815094,-0.731625730537492,-1.4695751428653,1.65896185166062,0.00396051566254313,0.002053816226936,0.00446137259229434,-0.0311267474115891,-0.11417384727712,0.120171647533448,0.00776076167306248,0.133977990211118,0.134939367575392,15.3822691136729,2.00078455323055,2.01852730465649,0.0254316654453126,0.0671944494659152,0.128970631915113,0.502162766067641,0.00906850963289016,0.00551795231501292,NaN,NaN,NaN,NaN,1.6985678915868,-115.061450151433,1.99280372054704,stable,stable,1,0.469377700624578,0.170671415024562,0.108439825855016,0.955703859822517,0.342679719148838
167,1.47058990137689,2.11884570121765,-0.693174723773986,-1.27976162838402,1.47058990137689,-0.0480934286191939,0.0150340511085074,0.0503884963963275,-0.0277680752421157,-0.0877587707600666,0.0937206461404027,0.00604480147423276,0.1181034316707,0.119567534175853,15.4231624527754,0.826485847999026,0.844257757496527,0.175612854290167,0.240145605371181,0.120767864416156,0.446794207533167,0.154998059326215,0.0404410428362122,NaN,NaN,NaN,NaN,1.53242316823457,-117.234742424214,1.74024246084095,stable,stable,1,0.416070813869008,0.155095445970165,0.176651127707928,0.89906630166888,0.346325393592819
168,1.73982220646497,2.47727847099304,-0.863548585058686,-1.4898494527188,1.73982220646497,-0.0502450372240398,0.00716329446577543,0.0507530940263601,-0.042790862650212,-0.118654538579635,0.128706116946501,0.00830218452797638,0.139432328775023,0.141490787513072,15.408021871787,0.962333578926105,0.970249025424814,0.176864477122681,0.240236970749957,0.162006162619976,0.484805411297964,0.157692921796477,0.0358396721605209,NaN,NaN,NaN,NaN,1.76822611766951,-118.998443980142,2.05449215295754,stable,stable,1,0.492250745893274,0.175232393423648,0.188257787133217,0.896383183833045,0.327997261057788
169,2.47487738060712,3,-0.773768719739631,-2.3203080054898,2.47487738060712,0.0066556760266851,0.00796410214233871,0.0103790628818692,-0.0396320274213599,-0.284517385605143,0.28920005921472,0.0186809496053308,0.210462284357141,0.212688910932471,15.3956179919513,2.05057004187072,2.03594611824596,0.0220590314848527,0.0471869773675464,0.143934788851699,0.388474195850281,0.00146439933424929,0.0101993514294789,NaN,NaN,NaN,NaN,2.66549340284327,-107.193726307889,2.15937681853734,stable,stable,1,0.702505083681726,0.120055417558407,0.0763929497488647,0.956862142999514,0.336028982732578
170,1.7391306806255,2.54297375679016,-0.770187033996345,-1.54767658797432,1.7391306806255,-0.0380647967866775,-0.00643999873566322,0.0386057293432775,-0.0329877311245065,-0.126896600033744,0.132257139088694,0.00853046454357386,0.120314950573587,0.122471181839339,15.4426729485454,0.892392818238487,0.861371517068441,0.17694126843624,0.240223661162545,0.15314200841337,0.387654279310755,0.158069123985091,0.036639416456241,NaN,NaN,NaN,NaN,1.77840570795084,-115.675983280215,1.58569930181729,stable,stable,1,0.488262417868002,0.187942409183316,0.196341813669269,0.897749788861611,0.331936885149613
171,1.64920055987062,2.35731959342957,-0.798099280377584,-1.42630401000533,1.64920055987062,-0.0523206282544546,0.00204185282173676,0.0523604555355133,-0.0363213353119992,-0.108873146534553,0.116739982771838,0.00753081154526602,0.134373039276483,0.136191927744411,15.3877602254611,0.996906827965474,0.961049551579895,0.176489104364162,0.240189716256005,0.144810513169906,0.4792361085648,0.158625690944726,0.0375215258354697,NaN,NaN,NaN,NaN,1.68221562017466,-118.331726157389,1.58596750132726,stable,stable,1,0.46702520151438,0.168926199398941,0.185500217938808,0.896371504835777,0.335639771924486
172,2.41916043862053,3,-0.847839592984514,-2.23467531398168,2.41916043862053,0.00553174816390569,0.00585824847755749,0.00805725219747269,-0.0461655300807108,-0.265115705923246,0.271596953864291,0.0175479962881048,0.220997717456831,0.22306412687476,15.372664491437,2.31126380564057,2.25496061676774,0.0154526998183376,0.0496686268058881,0.153668093507867,0.452645283827885,0.000516328739930793,0.00530797824572483,NaN,NaN,NaN,NaN,2.5789773418386,-109.450212225276,2.43112429413103,stable,stable,1,0.689722275673759,0.132166064213252,0.0814592918754566,0.956396172486194,0.331703069552059
173,1.55021069823085,2.29914879798889,-0.719764857207671,-1.35577316420477,1.55021069823085,-0.0477527767550527,0.0115019256183294,0.0491184484765906,-0.0304925340146595,-0.099264621979616,0.105577095684668,0.00680978416420152,0.136080941455967,0.137737635228246,15.4366776902309,0.929967738669725,0.789570851041423,0.177023553544088,0.240183667191875,0.136208750383182,0.393336401209898,0.158043950451632,0.0341879797364399,NaN,NaN,NaN,NaN,1.60572032516396,-117.151648626796,1.70944637493986,stable,stable,1,0.440937046573875,0.177516121332935,0.189183421187474,0.897977562880226,0.339462777607475
174,2.30766265947842,3,-0.766320749646604,-2.14295870063085,2.30766265947842,-0.0258290898363631,-0.00248221320209611,0.0259480878708928,-0.0375310146591522,-0.249021724067421,0.254060955143786,0.0164014659137626,0.233237184246476,0.234679076230912,15.391002914489,1.72836561391749,1.43217348998041,0.0630526192334488,0.240158501931378,0.128103837747612,0.422953192089413,0.00189184806429727,0.0068575587873109,NaN,NaN,NaN,NaN,2.36078838964489,-107.709824257803,1.51436210174764,unstable,unstable,0,0.662312524440427,0.160533051060353,0.0996543097389619,0.943640883138364,0.343064961001061
175,1.64032989377911,2.59145879745483,-0.813426746252956,-1.39825033271803,1.64032989377911,-0.0646770090821419,-0.00524410444804668,0.0648892605542203,-0.0401578941957363,-0.107153707511697,0.117569252953167,0.00758327853971399,0.171965506385706,0.173869649032314,15.418444600578,0.837574394756844,0.929177069825426,0.176704917765668,0.240215058551064,0.160753241489095,0.456120493459933,0.15941316147662,0.0361664669685796,NaN,NaN,NaN,NaN,1.70036876942666,-118.357386427334,1.90507891735476,stable,stable,1,0.472195234814226,0.225900367761978,0.219541957180825,0.897765922466877,0.328554114893736
176,1.76611801015095,2.44930934906006,-0.886875791517097,-1.51366280359117,1.76611801015095,0.00505761859616265,0.00353378643123142,0.00616985837809958,-0.0430107305092865,-0.120193487677474,0.129434958407677,0.00836099936537798,0.121120182550274,0.122121306278409,15.3591220945756,2.02097701372615,2.21967938843089,0.0254271800197929,0.0584611769849543,0.143564476192188,0.447909598757327,0.00918342502962198,0.00682225813506125,NaN,NaN,NaN,NaN,1.79740384781532,-119.424856454763,1.98743945412197,stable,stable,1,0.495389063962601,0.154849191957202,0.0994718585497307,0.953966966830298,0.336193566136805
177,1.95389153425758,2.95540165901184,-0.991533976084267,-1.65350678219134,1.95389153425758,-0.0763850091000591,-0.000157279441417565,0.07638517102186,-0.0583753191434741,-0.150322157394234,0.165920273825018,0.0107008774536183,0.194784786129179,0.19738280182228,15.4463791287677,0.868081446528358,0.764611212575481,0.176375402510298,0.240304029614065,0.139376997651706,0.426092136474162,0.158958142756108,0.0361756008868398,NaN,NaN,NaN,NaN,2.00389774569212,-119.82849383685,2.1440456028828,stable,stable,1,0.560514302833144,0.239343726090383,0.22740906306024,0.898983999280463,0.338054667710353
178,1.8174764095126,2.49268698692322,-0.970806177613117,-1.52118143699467,1.8174764095126,-0.0520882350846672,-0.00819597019391002,0.0527291016579556,-0.0523275374694911,-0.122341130129672,0.135561659375521,0.00874535166889098,0.124690660853472,0.126810939876591,15.4207122999244,0.952179162830152,1.06537135819041,0.17741836004947,0.240240312185152,0.180788471177328,0.396841736754884,0.156468672936238,0.0364538541299274,NaN,NaN,NaN,NaN,1.88108853169074,-121.75609313085,2.26638506750419,stable,stable,1,0.510022563845344,0.161589381888015,0.179751208505252,0.895438637310104,0.319649568365632
179,2.4946243228721,3,-0.653208919168805,-2.37709078988994,2.4946243228721,0.0101275980756638,0.00510134396447315,0.0113398391975396,-0.0306285070720802,-0.297320722830235,0.300224850387105,0.0193904474434043,0.211000118950299,0.213368934199541,15.3791688992903,2.01232175449975,2.0435279204503,0.0278249834642069,0.0503867927991927,0.142979149310989,0.406989479687805,0.0186791425047953,0.00658822719550367,NaN,NaN,NaN,NaN,2.73243854491602,-104.018907315581,1.83425577401849,stable,stable,1,0.707906939605801,0.115788497873327,0.0801706588174216,0.954220117964718,0.336453711417338
180,1.80583695342412,2.65052175521851,-0.921125712066141,-1.52388316839816,1.80583695342412,-0.0684432299504305,0.0144680473113089,0.0699557011189923,-0.050619213038964,-0.126804976626738,0.140785789218189,0.00908053880374808,0.184109404326052,0.186355989852851,15.4646783332577,0.876547556237427,0.885465948666135,0.176593552131681,0.240262357320212,0.164981290371168,0.386901656923739,0.159647379081249,0.0363119475052711,NaN,NaN,NaN,NaN,1.85620598441334,-119.444845846151,1.66373381033583,stable,stable,1,0.518827718883669,0.202879292275552,0.20588631061548,0.897858832109917,0.326674982057259
181,1.8347146406367,2.52441120147705,-0.890154676622515,-1.59069750183648,1.8347146406367,-0.0411601206830144,0.0125540304848577,0.0430320719470379,-0.0436158724113791,-0.13349616120977,0.14209202726322,0.0091643996204078,0.123868717685882,0.126211888606334,15.4727362535978,0.870675243221919,0.823639441901706,0.176699345011408,0.240244505127897,0.141722421819249,0.444924591849119,0.159221297699744,0.0359206328339407,NaN,NaN,NaN,NaN,1.8944468966032,-118.434379956689,1.72504248885485,stable,stable,1,0.514499615224387,0.163070939379369,0.181669633130759,0.898337854968325,0.337012256969223
182,2.43150055807171,3,-0.45068551847617,-2.35687106657954,2.43150055807171,0.00525292419719833,0.00720598546015366,0.00891736727254506,-0.0193430252127514,-0.294312225470858,0.295617096908462,0.0190902400863464,0.224595574888873,0.226875335997745,15.3884313768422,1.87458531587186,1.85904881555384,0.0176135954020081,0.0677792219513795,0.136444413042677,0.486591841712744,0.000593483793669124,0.00552687461660537,NaN,NaN,NaN,NaN,2.61222307005049,-99.3162222201901,2.33165515094933,stable,stable,1,0.693775216018672,0.129547225100498,0.0800018782231196,0.96185750555208,0.339358038647699
183,1.83373828902841,2.47219300270081,-0.983323803473758,-1.5339067511016,1.83373828902841,-0.0553648704741851,0.0151054898043692,0.0573885415815143,-0.0528161151123496,-0.124281669803187,0.137177413419641,0.00884746334734518,0.128034892340866,0.130099806134096,15.4622951363979,0.880444802307998,0.817846781571837,0.183709830085124,0.240226092049648,0.147236446958564,0.393330485646266,0.125372200948026,0.00497992746246236,NaN,NaN,NaN,NaN,1.87171872539055,-121.350351106356,1.59852367654218,stable,stable,1,0.515016838301061,0.154173543199567,0.150035986832486,0.894801365369811,0.334561579129527
184,2.35195464325639,3,-0.23372695410185,-2.3071628650438,2.35195464325639,0.0105337483262471,0.0131623722058286,0.0168584665935393,-0.0103910594024813,-0.301762707862486,0.302351670623492,0.0195049226378812,0.221281187205577,0.222443052051715,15.3837592213673,1.04212569923155,0.767839174276575,0.0515722468628088,0.251957277714462,0.285480279313255,0.692677347918602,0.00190049973739694,0.00804316300319506,NaN,NaN,NaN,NaN,2.70378156394852,-95.0700514349474,2.23024337218281,unstable,unstable,0,0.671676515278713,0.148900924142795,0.0931100075822474,0.959992723991032,0.273119875860775
185,2.07760928450404,2.82672142982483,-1.19685001033869,-1.68195956461766,2.07760928450404,-0.0533493472801825,0.00474936803352306,0.0535603337549288,-0.0783110554466758,-0.151012167615206,0.173382712616738,0.0111858835089173,0.142874957145945,0.145760054099953,15.3810459344223,0.954116552936684,1.22221081016139,0.176879415396425,0.2403114402871,0.148192320098517,0.426468661424217,0.159326932925726,0.0382155758650821,NaN,NaN,NaN,NaN,2.15708888634091,-124.745911655981,1.56666386696932,stable,stable,1,0.583181153354401,0.178369627218915,0.191730319562408,0.894460577306017,0.334136746622881
186,2.05242571703168,2.89186692237854,-1.12618449165897,-1.69223187473901,2.05242571703168,0.00671614735936211,0.0024237772210662,0.00714012124337017,-0.0710029010151604,-0.152042076332009,0.172128644958125,0.0111175823141624,0.166734366650575,0.168056389102104,15.400627062005,2.13342185275781,2.18836388050814,0.0172332932597202,0.04601025409024,0.140914939623725,0.455864237906179,0.000352646831220152,0.00761826452684428,NaN,NaN,NaN,NaN,2.10837557196529,-122.363616262261,2.3640831166494,stable,stable,1,0.580924802362201,0.190183293430995,0.117036985993346,0.957426465465907,0.337371137945011
187,2.05061608352917,3,-1.12146284112494,-1.69103341095704,2.05061608352917,-0.0768103893178699,0.00541403263591594,0.0770009588027676,-0.0710135277619999,-0.151355463949244,0.171736729287537,0.0110766097912387,0.143077726568872,0.145887084988336,15.418225858836,0.892290868234815,0.803124516530754,0.176239852033809,0.240265435234684,0.117233424418514,0.416971760882706,0.15525464600705,0.0398225148750687,NaN,NaN,NaN,NaN,2.09849345512064,-122.244984043751,1.72716060907356,stable,stable,1,0.576008372605446,0.227728223653111,0.220119913583913,0.898558953102795,0.347896255813994
188,2.00324744666183,2.98278594017029,-1.13435943126544,-1.61777459877121,2.00324744666183,-0.0960834593982261,0.00257265284438719,0.096117894861406,-0.0754410114708156,-0.14317825997153,0.168471184252281,0.0108694697198744,0.196947547309291,0.199585533848333,15.4058896890677,1.17674846590322,1.12706158866674,0.176226177724828,0.240321451446301,0.194165137012577,0.463191181692375,0.155997889108508,0.0387698101951497,NaN,NaN,NaN,NaN,2.08252249604559,-123.526280590972,2.09137850008863,stable,stable,1,0.574116425879487,0.238017775097328,0.22624117301597,0.893785546423108,0.313704383549966
189,2.49993802791455,3,-0.772731204769574,-2.34534402554321,2.49993802791455,0.00871952975691233,0.0106140410446139,0.0137363774874757,-0.0398307741186809,-0.289903498538353,0.294604267947749,0.019020759399637,0.213011380472581,0.215277995875016,15.3929123710937,1.76006617818358,1.83192587552757,0.0268101330598266,0.0532295939395359,0.119166337984383,0.49321655655248,0.0201393622201313,0.00665077585595336,NaN,NaN,NaN,NaN,2.71977714743149,-106.924123588306,1.54067580856377,stable,stable,1,0.709705739952217,0.11503227959193,0.080388659356169,0.958372138762356,0.347037183118052
190,1.99395884452639,2.82175612449646,-1.07999606219915,-1.65381577990233,1.99395884452639,-0.0652027340607488,0.0051231590016227,0.0654036947515402,-0.065641190747924,-0.146059286799449,0.163999894817361,0.0105800658220676,0.157200272874558,0.159782819559685,15.4160792644714,1.01729607475288,1.13317962158746,0.176907502697083,0.240279069446713,0.150420647589151,0.457363682827128,0.157043588348354,0.0372850757423106,NaN,NaN,NaN,NaN,2.06580628279313,-122.281189709167,2.17198498478903,stable,stable,1,0.563678922452309,0.198245065364381,0.202302398956515,0.894649653894499,0.333146378849266
191,2.01576188126126,2.90077185630798,-0.989878109231655,-1.74142521581949,2.01576188126126,-0.0479219409498453,2.48192122040331e-05,0.0479219473768935,-0.0547241281055854,-0.161220824336523,0.172335653532258,0.0111158374581648,0.142834685386253,0.145548032482264,15.4613416022402,1.06714732700625,0.802307614119688,0.176317088099437,0.240311896840813,0.181968149928764,0.439131187552891,0.158838238532047,0.0360062491961152,NaN,NaN,NaN,NaN,2.07634549688122,-118.754548572983,2.16838895159631,stable,stable,1,0.566646108166122,0.207912934737944,0.208435715049536,0.897152881412863,0.319125266698327
192,2.48182227898601,3,-0.955307549856414,-2.2559862996351,2.48182227898601,0.00816243644863634,0.00276082115689031,0.00861669903375765,-0.0565855654478337,-0.2686028882941,0.277988726422993,0.0179529251508531,0.21884014345474,0.220949278580357,15.3636292407603,1.98583755409192,1.97041771985752,0.0268110997647229,0.0676828232162922,0.145035268852275,0.508475865634173,0.019634712376237,0.00638658034916584,NaN,NaN,NaN,NaN,2.68099720733185,-111.612146549017,1.73983316715891,stable,stable,1,0.706009130112341,0.118169715384337,0.0819507609187273,0.955509587250893,0.3355398805101
193,2.05898325075239,3,-1.09391646251702,-1.70945743685805,2.05898325075239,-0.100187720244119,0.00242066581758475,0.100216959197105,-0.0712797820133458,-0.158990055694238,0.180380676935091,0.0116373544502413,0.203777730861342,0.206488500259915,15.4255031733514,1.13858543560318,1.08471807165163,0.176302416027195,0.240325866731167,0.185466326616033,0.424021265187544,0.154442809549702,0.0406835283960418,NaN,NaN,NaN,NaN,2.11900443077325,-120.570247299149,1.62671123607274,stable,stable,1,0.590359900252621,0.230101877766848,0.221496385674699,0.894379978715115,0.317570521503985
194,2.50647845748559,3,-1.02415176643454,-2.25082479443797,2.50647845748559,-0.0377075634307354,-0.00687885147740489,0.038329870043233,-0.0579689736358968,-0.266115530615778,0.27617283734424,0.0178271934496087,0.22395830295389,0.225527779066448,15.3719851424616,1.73796114863476,1.45135313486847,0.0631758300060869,0.240294610019443,0.135881640911265,0.467621583919459,0.00190106480761591,0.00801262235070951,NaN,NaN,NaN,NaN,2.61715863552686,-112.220792726245,1.63428818392612,unstable,unstable,0,0.71349981114278,0.118069489907002,0.0746002924912784,0.943353187055145,0.339608159594993
195,2.03730227563205,2.85030007362366,-1.02715453612852,-1.74428644840833,2.03730227563205,-0.0597453683404781,0.0135617181405607,0.0612652367747274,-0.0580115844170186,-0.160879883749518,0.173357012624321,0.0111812694806288,0.139228075712263,0.142000110530963,15.4019747352422,0.876130795324553,0.949291134421576,0.175771243722164,0.240289971485566,0.160620246717024,0.524283160816159,0.154032744176181,0.040012452573097,NaN,NaN,NaN,NaN,2.08957514186263,-119.371133784789,2.47633325851256,stable,stable,1,0.571680628941406,0.194156464623478,0.199502858939576,0.897771777262341,0.328613223681322
196,1.94697132238178,2.69689702987671,-0.907477716287595,-1.70881271114596,1.94697132238178,0.00611362801826899,0.00573532355572146,0.00838274321654773,-0.0454319137139853,-0.152956478680358,0.161228550617661,0.0104125932989027,0.131490276636818,0.132726465054069,15.3653336604659,1.8670770841596,2.20687768784886,0.0212017922602678,0.0655899144834267,0.142061019974667,0.541240558177713,0.00086262185669675,0.00948868464642899,NaN,NaN,NaN,NaN,1.98818975952798,-117.123132335998,2.1870085663216,stable,stable,1,0.545737645645954,0.170270120442727,0.105995890538021,0.957389459232657,0.336861768900148
197,1.90031572476329,2.61047577857971,-0.834264002227317,-1.69360209301143,1.90031572476329,-0.063615237591312,-0.0173959525030246,0.0659508727560642,-0.0392068160069634,-0.151461072298597,0.157913345040092,0.0101863859826802,0.123731759776729,0.126188687433952,15.4030513472176,0.975652204968204,0.905703067732317,0.176918684412882,0.240263121611023,0.132645129574904,0.486720432112379,0.155957114959566,0.0397203315812267,NaN,NaN,NaN,NaN,1.96491164649544,-115.571452830696,1.96494321306653,stable,stable,1,0.531988597423669,0.171877005447306,0.186884233522374,0.896758580650912,0.34104660907782
198,1.80808695023124,2.52813696861267,-0.812279042020722,-1.59637869859807,1.80808695023124,-0.0624747495224628,-0.00617113703832434,0.0627787962630715,-0.0381940225615938,-0.135425699789492,0.142784922010374,0.00921166164481973,0.14887948246804,0.151222652963602,15.4109482963647,0.993939896658031,1.06914477366327,0.176545354918974,0.240223485997385,0.151207209387737,0.488770175379027,0.158190303811741,0.0345589795354415,NaN,NaN,NaN,NaN,1.88489007794024,-115.359098105949,2.4507212529739,stable,stable,1,0.512401050654385,0.173520700117384,0.186986123413789,0.895517371559417,0.332796795827672
199,2.4952471678871,3,-1.14332908378314,-2.18538378771711,2.4952471678871,0.00765846097280573,0.0081345537578354,0.0111724209243611,-0.0759632088104169,-0.252230549519477,0.268311123171439,0.0173292546831825,0.213289827025191,0.215383216178056,15.4006109403114,2.09176232800606,1.93145675217546,0.0276886819202052,0.0534056364813157,0.129004370597518,0.442260117293261,0.021013862329257,0.00632196193323888,NaN,NaN,NaN,NaN,2.68563096804021,-116.007396076949,1.52030056030446,stable,stable,1,0.708475888005504,0.115617664394869,0.0810089882539307,0.954544651981328,0.342664724178881
200,1.91211382037884,2.65178394317627,-0.814031941195324,-1.70854157032474,1.91211382037884,-0.0574407531651437,0.0130884616706871,0.0589130541822779,-0.0388463312016388,-0.155569217982939,0.162560324101579,0.0104862060357908,0.154348822102217,0.156953588012048,15.4413392375951,1.02339941125282,0.944974172910325,0.176357281676755,0.240265181645393,0.152469198101297,0.455410159161665,0.15801786684794,0.0353804212674967,NaN,NaN,NaN,NaN,1.97177383483815,-114.893051128023,2.47911235138585,stable,stable,1,0.541287736370102,0.177226504229505,0.189431673314867,0.896355566714626,0.332235911954979
201,1.81682488161164,2.51733231544495,-0.764442084448263,-1.62805642994122,1.81682488161164,-0.0559850878860083,0.0107785732183372,0.0570132239592458,-0.0340661264720475,-0.141140783327212,0.146971013674287,0.00947881892144256,0.137331306133126,0.139595191212006,15.4391198141884,0.8175628563537,0.832796615685961,0.176515295229881,0.240236875472111,0.160761718556718,0.479863472351065,0.157601937077661,0.0367710067971916,NaN,NaN,NaN,NaN,1.87135485490829,-114.338554000358,1.67374587481363,stable,stable,1,0.51240567333884,0.168066597005021,0.184256538769841,0.898775242247605,0.328550347308125
202,2.34058946231536,3,-0.950355929402407,-2.10774258760644,2.34058946231536,0.00878113090920218,0.00384791661205719,0.00958721660847879,-0.0558040415752663,-0.238033621434876,0.247933901337429,0.0160084959223829,0.226622363616035,0.228493032435755,15.3462294161263,1.91971922151773,1.7837055379686,0.027237169149016,0.0558811735382407,0.137915260253251,0.484519898216523,0.0219178738270419,0.00502844284909199,NaN,NaN,NaN,NaN,2.45321237213052,-112.912057666969,1.58652316962085,stable,stable,1,0.669855796437913,0.150125027357265,0.101644818343219,0.957283078029528,0.338704328776333
