scenario_id,mean_wind_speed,max_wind_speed,wind_velocity_x,wind_velocity_y,wind_velocity,wind_acceleration_x,wind_acceleration_y,wind_acceleration,wind_body_force_x,wind_body_force_y,wind_body_force,mean_wind_body_risk,mean_wind_gust_risk,mean_wind_risk_raw,min_thrust_margin_n,mean_abs_roll_deg,mean_abs_pitch_deg,mean_abs_vz,max_abs_vz,mean_tag_error,max_tag_error,stability_std_z,stability_std_vz,mean_imu_ang_vel,max_imu_ang_vel,mean_imu_lin_acc,max_imu_lin_acc,wind_speed_cmd,wind_dir_cmd,hover_height_cmd,gt_safe_to_land,label,success,onto_wind_condition,onto_gust,onto_temporal_pattern,onto_drone_state,onto_tag_observation
1,2.03578062203466,2.6965434551239,-1.25660994111478,-1.58363356488444,2.03578062203466,-0.060493118783704,0.0128665564120924,0.0618463070367574,-0.0854604237391343,-0.132054975372757,0.161109660933517,0.0103927214831246,0.130278800443156,0.13289775457999,15.4121844202958,1.04571721764711,1.03622000720492,0.176968266980008,0.24029573097961,0.140297879199445,0.431116761819068,0.157941635713676,0.0345280990157884,NaN,NaN,NaN,NaN,2.0716688985117,-127.374480982322,2.31472368639318,stable,stable,1,0.569454383458573,0.160010127068486,0.178758031149881,0.89515778831473,0.337645387022469
2,2.31249775012879,3,-1.33249915749974,-1.85216759395242,2.31249775012879,0.0136661824262078,-0.0269180653630992,0.0301885207487626,-0.0998683660792985,-0.186761304882669,0.220788597645853,0.0142439815968585,0.230788926636989,0.232488115664664,15.4255920968247,1.14241706481431,1.21906650610234,0.0321122366400304,0.0981432030027692,0.222343902320276,0.673808499843251,0.0176191241110662,0.00996420213387586,NaN,NaN,NaN,NaN,2.42882567996652,-126.095851442396,1.88171177427172,stable,stable,1,0.663163689833942,0.160222568358296,0.107587609072619,0.965389367908497,0.301180487857655
3,1.66132100633901,2.69287443161011,-1.01791123992087,-1.28079789471684,1.66132100633901,-0.0613505856888188,6.77429075830755e-05,0.0613506230894408,-0.0653889066971437,-0.0987825128512714,0.124736175217043,0.00804616207675246,0.183934265236102,0.18471028316043,15.4301750661858,0.836260279448271,0.957562737997631,0.175492281531939,0.247666320200241,0.252223818999565,0.501935946347639,0.142519666800204,0.00523942507089291,NaN,NaN,NaN,NaN,1.87319628751653,-127.297520073929,1.61566643283133,stable,stable,1,0.479960991655821,0.243347134919062,0.211255600565186,0.898159535525527,0.287900524889082
4,2.30337418697199,3,-0.630752899943131,-2.18073932434405,2.30337418697199,-0.00171814693108861,7.00307425357666e-05,0.00171957354646706,-0.031411592905957,-0.261745855658428,0.265313459505842,0.0171134261206563,0.234002508923489,0.234716098067502,15.4254367288383,1.00604479569415,0.786097352387899,0.0669982329153411,0.242112936817229,0.299960651842709,0.662480353387322,0.0317738279640013,0.0927095611131535,NaN,NaN,NaN,NaN,2.46779887999601,-105.553838771394,1.69686325855041,unstable,unstable,0,0.661176336139365,0.157056063081488,0.142067906843737,0.952419766664542,0.266684154736574
5,1.83241738267496,2.63188362121582,-1.06333502461694,-1.46985820042812,1.83241738267496,-0.0549865329965501,0.0190528547593332,0.058193900758249,-0.0626576910498702,-0.115821693365289,0.135746275961374,0.00875676605026812,0.145214039274925,0.147367160829042,15.4133388396033,0.876892169986962,1.02627403915967,0.178177609650473,0.240249478668968,0.161322250478707,0.371229778208488,0.158727122893172,0.0358709968606534,NaN,NaN,NaN,NaN,1.88084050141636,-125.058018224367,1.58757168859322,stable,stable,1,0.518118067545798,0.190548785477372,0.197918658097364,0.895957746388611,0.328301222009463
6,1.88449422252617,2.60391879081726,-1.03439326130793,-1.56091074650021,1.88449422252617,0.00563902478393806,0.00252455478187189,0.00617834746194643,-0.0579180032164556,-0.12774916045367,0.142638113027336,0.00920952623208812,0.126738728253291,0.127922985243313,15.3802070434469,1.85122588909492,1.77969505421257,0.029891672204202,0.0576100534863434,0.127558169158525,0.458642118244498,0.0230667975886213,0.00689133455347953,NaN,NaN,NaN,NaN,1.9161886291726,-122.783489357006,1.61702757543905,stable,stable,1,0.528116389722307,0.163003224900186,0.110559784817128,0.95652549934334,0.343307480373989
7,1.91815811115623,2.95675039291382,-1.08150668656536,-1.55084819003468,1.91815811115623,-0.081745329562524,-0.00192947130086585,0.0817680974756447,-0.0684904693929134,-0.132239433911091,0.154963372651191,0.00999457568403121,0.198684669443898,0.201124236183867,15.4627718897735,0.830500775434457,0.867016875572693,0.176924654677861,0.240307792254708,0.150327251732161,0.432688512954772,0.15763465485461,0.0380933291949956,NaN,NaN,NaN,NaN,1.96867067391655,-123.586570068552,1.749859929656,stable,stable,1,0.551733676878436,0.248674081265992,0.233116415068915,0.898200033974585,0.33318788811904
8,1.87511269788484,2.48256993293762,-1.08756720505704,-1.51171876971871,1.87511269788484,-0.0385194140971762,0.0141049851106011,0.0410206760958424,-0.0639867112880044,-0.12092711793583,0.13967597233741,0.00900975919858514,0.126491406943452,0.128712704836246,15.4433845639157,0.918973037275855,1.07526471654151,0.17642353639124,0.240263787832779,0.193083307862507,0.475912655643069,0.158773626506416,0.0359699052917026,NaN,NaN,NaN,NaN,1.96461919299708,-125.030810267647,1.89067317335805,stable,stable,1,0.525772593736541,0.144198335171113,0.170165022888361,0.896119220881529,0.314185196505553
9,2.60489575014818,3,-0.802705421406793,-2.44532134555248,2.60489575014818,0.00783179549966705,0.00446349559999123,0.00901442253945011,-0.0426206881236598,-0.312654710231288,0.317664664211659,0.0205196379661715,0.199939143654574,0.202378268893722,15.3921001340983,2.20801946568094,2.06076163920029,0.0244799714155296,0.0561136331557391,0.149525726042167,0.444412891121227,0.00114088171820153,0.00546182385506318,NaN,NaN,NaN,NaN,2.98365709536118,-106.900241715489,2.07156631748557,stable,stable,1,0.735114520484927,0.090551100348891,0.056823836516235,0.954219591325311,0.333544121759037
10,1.8841417415722,2.65452837944031,-1.12661686510641,-1.49532285227331,1.8841417415722,-0.0471289893490488,0.00693229454827476,0.0476361033751376,-0.0691370527108656,-0.118290078282325,0.139852154628083,0.00902100655081088,0.124927664146954,0.127367363704313,15.4577900192673,0.99283804114915,0.916744913036175,0.17664816311409,0.240217416558489,0.169856174234595,0.389272996700285,0.158612902229224,0.0359395321599699,NaN,NaN,NaN,NaN,1.92399487038037,-126.353098118705,1.8776722553146,stable,stable,1,0.527911270493449,0.1820702791391,0.192805711481892,0.896672052374356,0.324508367006847
11,1.84255599774219,2.71932601928711,-1.14779820036441,-1.40820272475822,1.84255599774219,-0.0814115966159416,0.0114535157667614,0.0822133266993633,-0.0760168787550725,-0.109502877441923,0.14002249270334,0.00903397997103425,0.189154431079453,0.191426191327494,15.3891161555094,1.06850038398614,1.16555931041315,0.176485796265893,0.240266199471935,0.169982496916913,0.480314560487738,0.15654927004265,0.0406270117370259,NaN,NaN,NaN,NaN,1.90759543141243,-127.844704273722,1.66313702204253,stable,stable,1,0.529633504330083,0.212345698075824,0.211758331011247,0.894203775696773,0.324452223592483
12,2.61753089172784,3,-0.785606744481181,-2.46293400493746,2.61753089172784,0.00742079569313812,0.00296070572085556,0.00798961745547333,-0.0412330412767843,-0.31690091919794,0.321578353578823,0.0207717038952231,0.198521315739029,0.20090234767839,15.3841609428406,2.143253761437,2.15741586740072,0.0167654634385932,0.0501221035949093,0.147754783765941,0.440180688765453,0.000311857319901314,0.00860133930482262,NaN,NaN,NaN,NaN,3,-106.299635778902,2.39129236882046,stable,stable,1,0.738188707329769,0.0875203125614054,0.055778550537341,0.95782629262555,0.334331207215137
13,1.99472985731675,2.9412145614624,-1.06996100964843,-1.66103629889997,1.99472985731675,-0.0679086377972893,0.0136002668473504,0.0692571320933994,-0.0642925451691732,-0.14761072169467,0.164779731624444,0.0106278157828268,0.166175184683584,0.168744908719831,15.4607023564765,0.969692660988974,0.828293975132505,0.176339212722567,0.240283089331603,0.150831433520243,0.375715686942998,0.155375015557852,0.0402500536096987,NaN,NaN,NaN,NaN,2.02726066309477,-121.319262228342,1.55380097028037,stable,stable,1,0.5656769436951,0.225656199316561,0.219085665190892,0.897703355783476,0.332963807324336
14,2.59737691614363,3,-0.703836587194786,-2.46816628883771,2.59737691614363,-0.0139201849311081,0.015162449755458,0.0205832803776035,-0.0353821131761459,-0.327088482763196,0.330604565262651,0.0213429406414702,0.203234494420202,0.205127664605704,15.3914332377713,1.75458208025025,1.46957098033162,0.0628562248260114,0.240533761376491,0.135143918451371,0.465356472596464,0.00189628989453318,0.00923650825016493,NaN,NaN,NaN,NaN,2.96211416560549,-104.652706865072,2.21009964945008,unstable,unstable,0,0.733659377226109,0.0943637952702441,0.0608198029436151,0.943239256396708,0.339936036243835
15,1.75388485434893,2.62976050376892,-0.951445820949978,-1.44288602748919,1.75388485434893,-0.0758171362173887,0.0076052541642285,0.0761976248652712,-0.0538869651276842,-0.114359618696002,0.131415708389027,0.00847705510898017,0.176933942034819,0.178923703898832,15.4459939056412,0.910783004222778,1.00152292845188,0.176284721010724,0.240251219126704,0.159957887732398,0.413574850782142,0.159037783373989,0.0345910015540983,NaN,NaN,NaN,NaN,1.78867162897179,-121.8764556945,1.5846860394249,stable,stable,1,0.503487368606148,0.211041585678131,0.209886956703879,0.896832378595051,0.328907605452268
16,1.76063098098123,2.75512313842773,-0.999583602794387,-1.42946474487314,1.76063098098123,0.00429336156535281,-0.000520378437050541,0.00432478291346467,-0.0554701196693043,-0.108699860218927,0.125393312344123,0.00809916447122368,0.141831508898114,0.142795679160432,15.3998778330592,2.07546376825422,2.2038747191738,0.0209007657952208,0.0602372782330824,0.144677763683533,0.476887619316566,0.000341278920932447,0.00858540824976491,NaN,NaN,NaN,NaN,1.79698325918466,-123.928221238646,2.20192518748681,stable,stable,1,0.498060730760415,0.224553612292931,0.138005813532451,0.955926243272598,0.335698771696207
17,1.84197130699286,2.73265767097473,-1.01966890298832,-1.50379126920548,1.84197130699286,-0.0795145159878557,0.013928135898053,0.0807251585466241,-0.0609962710526962,-0.124317851557212,0.143695304273857,0.00927055347832067,0.184117448806898,0.186384308052375,15.3874327981896,1.0299069477392,1.14556373853912,0.17687172282633,0.240275146892672,0.139700147839113,0.487994456605271,0.156406328749058,0.0395736158086299,NaN,NaN,NaN,NaN,1.90606506718967,-122.683382350962,1.54437402540569,stable,stable,1,0.528469210141904,0.215204044296136,0.213026756214745,0.89447115462322,0.337911045404839
18,1.814746153113,2.64763689041138,-1.04708879724649,-1.46635396650124,1.814746153113,-0.0347852379048291,0.0188702592312773,0.0395739745230519,-0.0595726993938155,-0.114208000663554,0.131613580857035,0.00848847676172515,0.127431181961596,0.129545311123432,15.4653791525942,0.771682959015917,0.932239024365017,0.175853274772777,0.240225010656775,0.155810365328786,0.451195904604678,0.158745350157931,0.0371632969469571,NaN,NaN,NaN,NaN,1.87952489310621,-124.36494621675,1.64168870431293,stable,stable,1,0.509841369721488,0.194655644554693,0.200860801854426,0.898685404172761,0.330750948742762
19,2.6244356078049,3,-0.781439505495865,-2.47202517286968,2.6244356078049,0.00689518588349409,0.00243403855306333,0.00731219064615624,-0.0407244960621253,-0.318479839702958,0.323031660342641,0.0208561106102516,0.198321598566833,0.20093559950356,15.4047295486623,1.94457617767011,1.70302517492851,0.0302019995147217,0.0501536191127739,0.132435671902745,0.451717269643276,0.0217943175438038,0.0061620145294793,NaN,NaN,NaN,NaN,3,-106.031594526481,1.69067905467725,stable,stable,1,0.740036615315352,0.0858425565290259,0.0634326298263915,0.956239275329364,0.341139701376558
20,1.91579277963446,2.69192051887512,-1.04133767795195,-1.59366415478011,1.91579277963446,-0.0577215029314064,-0.00840629431409329,0.0583304181774442,-0.0593266034926648,-0.133748816270422,0.148695681056891,0.0095918796700624,0.131398924829199,0.133841621482208,15.4454301854065,1.00903541512137,0.976468065372005,0.176478967873534,0.240262140166833,0.153594991823018,0.388374678945059,0.155818622628963,0.0402527076060063,NaN,NaN,NaN,NaN,1.95533603544456,-121.682915799118,2.25086988415572,stable,stable,1,0.537646398865632,0.185322651328346,0.195083660185802,0.896160131573642,0.33173555918977
21,1.96875264757388,2.6781005859375,-1.07914167898459,-1.63271405387304,1.96875264757388,-0.0484218051114393,0.000983574842374779,0.048431793583562,-0.0632453233932408,-0.140524362211054,0.156537283310595,0.010097847217593,0.119983111739415,0.122471452890158,15.4360017675109,1.07697524401439,0.948036442587215,0.176977739780182,0.240261563150982,0.186421159961015,0.505329733704893,0.158220962235718,0.0371570955589172,NaN,NaN,NaN,NaN,2.01006102178809,-122.843348050567,1.78043424347769,stable,stable,1,0.549494996597734,0.1684824482888,0.184921567745933,0.895600324000896,0.317146151128438
22,2.63121235569983,3,-0.749799508315184,-2.4900201671702,2.63121235569983,0.00505478482317981,0.00305931090910589,0.00590848820318897,-0.0379887468135469,-0.322473605187316,0.326407133822148,0.021079926133838,0.191784913851681,0.194341676139659,15.3639802890261,2.11085106934168,2.06252858372802,0.0152221240644832,0.0542668477024388,0.138991052828973,0.428647859338803,0.000157133279837256,0.00780440912481905,NaN,NaN,NaN,NaN,3,-105.373889448931,2.44666125315643,stable,stable,1,0.740524963414552,0.0840604428047904,0.0533440696506149,0.959598097836496,0.338226198742679
23,1.71955718381985,2.31465148925781,-0.833492164707149,-1.49143193565684,1.71955718381985,-0.0513232928945414,-0.00161037777682951,0.0513485511978965,-0.0383429741420335,-0.117441878779325,0.125087794829732,0.00806893164807458,0.116337328487089,0.118248588071385,15.4318570176543,0.948671374553362,0.96931371698876,0.176557867102566,0.240186622424136,0.159937910288474,0.395475925787707,0.159071934432726,0.0362069918984864,NaN,NaN,NaN,NaN,1.75191981509009,-118.497538474994,1.55489251686487,stable,stable,1,0.482198299966236,0.14331011977649,0.169850888263727,0.8966511835866,0.328916484316234
24,2.62998846326556,3,-0.581464088716728,-2.52976877450055,2.62998846326556,-0.00769010728884229,-0.000849636462225265,0.00773690068644079,-0.0275790786056978,-0.331658700392012,0.333980795491071,0.021541530192403,0.193012608424586,0.194480305011591,15.4638795655698,1.08016025068547,0.75945970377391,0.0730528444394758,0.249131470524755,0.323912115192393,0.802346503871512,0.0401819307340345,0.111257580799442,NaN,NaN,NaN,NaN,3,-102.185830974197,2.45943271472871,unstable,unstable,0,0.740226317873133,0.0846710275577642,0.10911855452534,0.949019420995224,0.256039059914492
25,1.69242455335271,2.39338397979736,-0.923152349640808,-1.40283180553207,1.69242455335271,-0.0610917933934375,0.00746998675938825,0.0615467945730067,-0.0491128548997808,-0.10967719298994,0.12252373077443,0.00790112011040053,0.134596099918479,0.136508589219512,15.4667352862973,0.673421993737119,0.625017361366407,0.175052742884551,0.240237303750089,0.148693582900721,0.396311600714465,0.156111906949718,0.0401714560590209,NaN,NaN,NaN,NaN,1.79680657025774,-122.144595008979,1.67938766297484,stable,stable,1,0.478614932071293,0.168999449955097,0.185390541931769,0.90227160505334,0.333913963155235
26,1.82860906128102,2.72534465789795,-1.02425397931211,-1.48304444486845,1.82860906128102,0.00940264653186564,0.00542929897141298,0.0108575802610062,-0.0615506898649111,-0.119430723891827,0.139797646458016,0.00902644981926564,0.191895875771885,0.193004293005198,15.4401909019241,1.93386384900403,1.83286310451986,0.0282061219177087,0.0513490316724435,0.133159901582344,0.472556911839,0.0104386696769157,0.00654241642736367,NaN,NaN,NaN,NaN,1.89015622586425,-123.159855511628,1.89829601960612,stable,stable,1,0.526229941609311,0.203756065619994,0.129272108636333,0.956301227263458,0.340817821518958
27,1.73194870111105,2.56565833091736,-0.825167423734279,-1.5042083509607,1.73194870111105,-0.0508632953992614,0.00645549748579238,0.0512713201181869,-0.0388262032464143,-0.120958635190763,0.12917630417933,0.00833077766122047,0.142358854244131,0.144424623332464,15.47192578706,0.869014062810886,0.634496451926588,0.17619735120628,0.240243622358653,0.151251219306758,0.388268791075878,0.158972868558028,0.037371425276336,NaN,NaN,NaN,NaN,1.77620387229689,-117.832865156267,2.33574497774775,stable,stable,1,0.490737911629438,0.196984408728088,0.20243486267626,0.900088027495351,0.332777235863663
28,1.72339893515046,2.38753414154053,-0.964443953149621,-1.41335137161967,1.72339893515046,-0.040230490731638,0.0129384279189907,0.042259854490087,-0.0511771805750175,-0.10616843521685,0.120241007223797,0.00775700883017854,0.124550504155595,0.126495063665759,15.3771182604467,0.981147271128548,1.09862404529993,0.176342112665881,0.24023567911136,0.166470340592674,0.494749147244057,0.156150335859946,0.0400882575805292,NaN,NaN,NaN,NaN,1.77693740749085,-123.63065316624,2.34255835922088,stable,stable,1,0.484872062106607,0.157178061427615,0.178284534338758,0.895487883323693,0.326013181958812
29,2.61482870857851,3,-0.519254841462097,-2.52952379423688,2.61482870857851,0.00660353672765446,0.00476453805425087,0.00814294296823244,-0.023334335014499,-0.333876335965155,0.33553602804961,0.021664298054241,0.197326437058495,0.199889038529032,15.4235282632031,2.12200368357395,1.68682625901596,0.0309527671929907,0.0545702377773597,0.129721747405571,0.429105738962622,0.0226398901579187,0.00700534838839469,NaN,NaN,NaN,NaN,3,-100.208461528465,1.68229238765159,stable,stable,1,0.737265463326743,0.0881564134473442,0.0655034208858876,0.954597095426012,0.342345890041969
30,1.84665199389329,2.61375570297241,-0.937814988621893,-1.57030553069357,1.84665199389329,-0.0560419334202724,0.000865169017467974,0.0560486112130446,-0.0496259118049507,-0.131139311352305,0.143031775387869,0.00922504832178979,0.135169398281742,0.137531072658306,15.4425460057631,0.867223320756931,0.83592157355787,0.175946486175004,0.240237924913896,0.147942553595296,0.378584424161993,0.157863930087546,0.0357176233105737,NaN,NaN,NaN,NaN,1.90894849737311,-119.745808657761,1.69445693638035,stable,stable,1,0.519946746236538,0.182873913265194,0.192874321323083,0.898644904171453,0.334247753957646
31,1.89569247977154,2.67858576774597,-0.956554381492418,-1.61687508659726,1.89569247977154,-0.0609669759853957,0.00751965474565919,0.0614289619666305,-0.0517840914567262,-0.139535953654002,0.151694523286706,0.00978535606773064,0.154386986521967,0.15677238666208,15.4017987960232,0.917689381427546,1.04832211798131,0.176930568980532,0.240255066735662,0.189685657269738,0.516750593654951,0.158542529733817,0.0382803193537313,NaN,NaN,NaN,NaN,1.95935225919259,-119.13516242978,2.25476037900047,stable,stable,1,0.536872471938159,0.187412966154797,0.196831242369871,0.896087482300093,0.315695263435672
32,2.62246545461508,3,-0.642448917525315,-2.50871588960936,2.62246545461508,0.006702602392498,0.00420311260257065,0.00791144957525536,-0.0309032648613602,-0.327530613402368,0.330342559074178,0.021328857312687,0.198410463542812,0.201004456592506,15.4065198604921,1.90300513229983,1.87644867020824,0.0270074960560945,0.0534624242225847,0.128313739379992,0.469922077869574,0.00846423833139178,0.0045433107104045,NaN,NaN,NaN,NaN,3,-103.01941117063,1.94472668298181,stable,stable,1,0.739525012549189,0.0863957051337373,0.0572514197686848,0.956800543523675,0.34297167138667
33,1.87028901158152,2.52276849746704,-0.820199927526214,-1.66619708581989,1.87028901158152,-0.0502275276212018,0.0115761312676599,0.0515442658892789,-0.0380663147328606,-0.147405181677003,0.153755036610152,0.00991802680920885,0.126131216886355,0.128605811447528,15.4425998084061,0.992241057412414,0.924183218383999,0.17649400879025,0.24023881849225,0.156724510082267,0.422129281819712,0.159103201914923,0.0363321675747717,NaN,NaN,NaN,NaN,1.93692079365451,-115.089103932968,2.12519820000292,stable,stable,1,0.524464898711245,0.156257666403942,0.177678831326693,0.896695376295046,0.330344662185659
34,2.62075913529242,3,-0.550865769689251,-2.53030610861173,2.62075913529242,-0.0138580441279501,0.0127635569141617,0.0188402168817999,-0.025415504008162,-0.338485350766123,0.340428969613353,0.0219770354760783,0.197919618091217,0.199895205807072,15.4287777281068,1.77944905852724,1.53036672876987,0.0632086720688967,0.240456114094887,0.146753346359691,0.445640613696779,0.00188938446432787,0.00936865001344586,NaN,NaN,NaN,NaN,3,-101.157933097739,2.4412922060792,unstable,unstable,0,0.73884814390606,0.0887832343208683,0.0575164488441824,0.942389968493932,0.334776290506804
35,1.84238341772879,2.59337091445923,-0.829359248969246,-1.63294986579288,1.84238341772879,-0.0546618354480937,0.000173506141245895,0.0546621108166847,-0.0384376187004802,-0.141104133450137,0.147574702723193,0.0095200224840207,0.121108786282946,0.123387876288129,15.3791151609575,1.03315173023985,0.998821324275551,0.175664963502799,0.240221189490475,0.146832879060898,0.435313801304025,0.156495265751304,0.0414181542844074,NaN,NaN,NaN,NaN,1.86137587595629,-115.841095627455,1.69810455724818,stable,stable,1,0.515979819985302,0.178993573747409,0.192010742705981,0.896202015677408,0.334740942639601
36,1.96839093481934,2.92466807365417,-0.891397750544303,-1.72555346288509,1.96839093481934,0.00748081553412839,0.00255737767807337,0.00790587007507488,-0.0486786409572648,-0.161060515146447,0.171829133802971,0.0110980181428806,0.206341374300167,0.207653621392111,15.3177680600771,2.13527784549161,2.10573522469621,0.0185622990605939,0.0610857739821131,0.137529524281964,0.447701529812496,0.000265019297927109,0.00807661490562151,NaN,NaN,NaN,NaN,2.00134863438598,-116.022448666907,2.30082432957161,stable,stable,1,0.566434973563581,0.216611765751601,0.133021796680366,0.957396604918227,0.338875766985794
37,1.80905678062826,2.66047954559326,-0.818314531314274,-1.59886474757635,1.80905678062826,-0.0530655834242224,-0.0121841979068943,0.0544464032125858,-0.0380578460644646,-0.135499769645011,0.142279840999704,0.00917848336629563,0.132369496179209,0.134723370416336,15.4396080993005,0.986911626090746,1.01255348942484,0.176496055156629,0.240211667970187,0.161524475899165,0.438843650296263,0.157437862247801,0.0367270052196741,NaN,NaN,NaN,NaN,1.84847057739295,-116.145839673518,2.29771410834569,stable,stable,1,0.509359815584135,0.2015519627061,0.204258835470241,0.896041889371206,0.328211344044816
38,1.94233005594563,2.73275947570801,-0.761440807611443,-1.77239394125274,1.94233005594563,-0.0508458657452826,0.00522442636817509,0.0511135666361074,-0.0328675761456933,-0.166666533797904,0.171028573265507,0.0110318594788343,0.143366435122534,0.145978749494104,15.4474371923965,0.95087096593939,0.899905983714549,0.176379565481784,0.240275042371262,0.182617936769084,0.451628169626,0.159169191749532,0.0368070363816784,NaN,NaN,NaN,NaN,1.9993932608471,-112.620106358339,1.78849743224814,stable,stable,1,0.547150431484322,0.187217439996488,0.19645670386375,0.89726839836897,0.318836472547074
39,2.61748704065049,3,-0.629137911049911,-2.50565189946652,2.61748704065049,0.00793821337231551,0.00311749745764984,0.00852842435288383,-0.0304145984377541,-0.327049443293992,0.329798015247734,0.0212971237099705,0.201252882311868,0.203932503709545,15.3925217811996,2.10236747146526,1.95615959901452,0.0312878478184622,0.0646404992966175,0.131105925148222,0.510172206626197,0.0240054611510521,0.00597619283560959,NaN,NaN,NaN,NaN,2.9987372183553,-102.731971335258,1.55378107258631,stable,stable,1,0.738783044915372,0.0876289603183361,0.0654196310670445,0.952467649108428,0.341730699934124
40,1.89055663347244,2.48274564743042,-0.2894754387679,-1.85637850289527,1.89055663347244,-0.0499158464238765,-0.0252508688052611,0.05593923577984,-0.00693326490283688,-0.180972223134051,0.18124228999461,0.0116904935286471,0.12036804705689,0.123395408112394,15.4194795574594,0.984485698539744,0.76669545728632,0.176846509717394,0.240228283274542,0.151235715045514,0.44556370703871,0.159321583406104,0.036230047861111,NaN,NaN,NaN,NaN,1.96262077332345,-97.9255988407311,2.38293844226466,stable,stable,1,0.52882751721513,0.143498054700182,0.170082988303631,0.897817464631241,0.332784126646438
41,1.90648565582327,2.70735311508179,-0.251186593022422,-1.87713556339803,1.90648565582327,-0.0503441639469913,-0.0319899899859914,0.0596480871682016,-0.00594993956269838,-0.187223592500966,0.187429823574897,0.0120899464380983,0.143963378871027,0.147100305260423,15.4273924998945,1.06425089454157,0.739877111021229,0.177111148675814,0.240275417372604,0.162390551860715,0.396906098831785,0.158478571462421,0.0361029866799637,NaN,NaN,NaN,NaN,1.94919332297993,-97.076725643542,1.61725079700324,stable,stable,1,0.53781623593829,0.19113066098067,0.198241676031081,0.897269134189814,0.327826421395238
42,2.61925357520381,3,-0.625807280813703,-2.50898987287686,2.61925357520381,0.00865595540084045,0.000550761380623183,0.00867345963267973,-0.029974026699276,-0.328343772857877,0.330955935220398,0.0213741471475178,0.198733968568008,0.201262345627302,15.3600401506269,1.97293266181166,2.04696565966471,0.0317028815682937,0.0717030385603682,0.128051029003614,0.455477100129461,0.0238255302011808,0.00559015491368877,NaN,NaN,NaN,NaN,2.97766096785849,-102.83550377438,1.67748629589589,stable,stable,1,0.73872008917981,0.0872580798451341,0.0649767560459163,0.952563643832825,0.343088431553949
43,1.82875757442938,2.66225075721741,-0.251756613130694,-1.79372068732202,1.82875757442938,-0.0520070111265992,-0.0140427592173382,0.0538695488449491,-0.00660740573555533,-0.17101523763824,0.171339215958929,0.0110546812538436,0.147666866268515,0.150370446923549,15.3467988762432,1.21720064424931,0.898514345970296,0.176383355565409,0.240252617649302,0.158418711840915,0.481361743386557,0.157055476717859,0.0399498607100643,NaN,NaN,NaN,NaN,1.87761184680711,-96.9149867627548,1.66255608473201,stable,stable,1,0.517742775899212,0.197412050082213,0.202776886222541,0.895184847294141,0.32959168362626
44,2.53675123352602,3,-0.651532108829695,-2.41509957010881,2.53675123352602,-0.0306356900375014,-0.00407093748140829,0.0309049840001803,-0.0296321377408278,-0.306415370985383,0.309172567508584,0.0199556074085818,0.219241661372122,0.221025963618687,15.4069398002008,1.72310191296851,1.40838667199909,0.0623880914566382,0.240192532612307,0.121513591439149,0.459915775235888,0.00186013800462209,0.00787319867594196,NaN,NaN,NaN,NaN,2.70268226585959,-102.84402520654,2.0008918952676,unstable,unstable,0,0.720672188330677,0.109896886190011,0.0696278410527671,0.944201401104078,0.345993959360378
45,1.66313859699546,2.32554364204407,-0.228603557422248,-1.63143353217801,1.66313859699546,-0.0478989967387773,-0.0113407105829327,0.0492232222137808,-0.0055202683691053,-0.142404885872092,0.142646201297099,0.00920326639571696,0.132201295462309,0.13446553237072,15.3615367165919,1.10745383579286,0.935089825200739,0.176264633096082,0.240196821744128,0.147726705544701,0.472492305016632,0.155018019766983,0.0402178876666059,NaN,NaN,NaN,NaN,1.74484723470437,-96.8322370152764,2.10106049604834,stable,stable,1,0.470396732339599,0.158065392541797,0.178360819623513,0.895819126115581,0.334343686424577
46,1.68452314708544,2.43722701072693,-0.220404075718308,-1.65803071298427,1.68452314708544,0.00299695096411819,0.00313827225930828,0.00433940869875987,-0.0047142642270801,-0.144103996520537,0.144273128518465,0.00931431106892496,0.122440003210855,0.123611870757538,15.4100594883476,1.91698911304684,1.80356686473999,0.0246633726386609,0.0626434897326345,0.114139483738313,0.435554408816318,0.00309308594044114,0.00615167346302233,NaN,NaN,NaN,NaN,1.71876069037497,-96.5690723186371,2.06802060987547,stable,stable,1,0.473928546707625,0.170153927580775,0.105704033579255,0.958435373855202,0.34927134056075
47,1.80528707532158,2.54781055450439,-0.176015895339396,-1.78599837000126,1.80528707532158,-0.0400911414608926,-0.0358962669674557,0.0538130244999866,-0.00353612530821725,-0.170668879936769,0.170752346748485,0.0110126293208396,0.122797134412415,0.124986876820801,15.4516331278354,0.73415217338108,0.752675209234752,0.175592885164055,0.24048988792897,0.174984411583879,0.360886197110879,0.137880625823397,0.00499234561136774,NaN,NaN,NaN,NaN,1.8330973949862,-93.5355183886098,1.50388850324157,stable,stable,1,0.506407262116581,0.176933503974465,0.169255778932545,0.900521342268848,0.322229150407165
48,1.58567926208809,2.43958687782288,-0.209264423277129,-1.5571225188072,1.58567926208809,-0.0432168414964205,-0.0405451459059459,0.0592587904488539,-0.00512549268152593,-0.140020581725254,0.140227452505007,0.00904515386856204,0.149038165724042,0.150170693661313,15.4320308456803,0.759678645755895,0.854916556506609,0.16895945438947,0.244269559191222,0.227068811607541,0.46096881683597,0.161231692834257,0.00496446885066337,NaN,NaN,NaN,NaN,1.76093856199151,-95.8152911333806,2.10737377151481,stable,stable,1,0.452881941955753,0.202993325122617,0.19525978662237,0.902834167644631,0.299080528174426
49,2.44708995851094,3,-0.620220331170162,-2.33461178382741,2.44708995851094,0.00571828683555558,0.00341775792018938,0.0066618220881907,-0.0303145129756605,-0.305047736028901,0.307926917943665,0.0198797301585747,0.206467391244116,0.208491766585969,15.4179272616588,1.68972139555621,1.53385631118543,0.022042481678262,0.0532706862546727,0.136569763519955,0.320244815156948,0.000871387957767753,0.00613453538965774,NaN,NaN,NaN,NaN,3,-103.690253195533,2.13494934388526,stable,stable,1,0.694255675586778,0.12562609338454,0.0779936797092031,0.963650648607899,0.339302327324465
50,1.66762686903412,2.26218891143799,-0.148054178325605,-1.65098180221637,1.66762686903412,-0.0416609434310787,-0.00536533293535425,0.042005011666166,-0.00277013783620538,-0.143612808872508,0.143689976902464,0.00926784569163071,0.116030492796058,0.11838063955121,15.4566806231691,0.989159794611425,0.683238401529761,0.17649851001697,0.240214732248059,0.162870667029731,0.378957377832721,0.159985220977051,0.0356706535526222,NaN,NaN,NaN,NaN,1.72627812567413,-94.411640590645,2.30178672847717,stable,stable,1,0.468376626319341,0.141477378346334,0.168962116410675,0.898610473450406,0.327613036875675
51,1.58679792083598,2.32991504669189,-0.132516669722082,-1.56530723018863,1.58679792083598,-0.0491184127069061,-0.0234766967027062,0.0544405524854111,-0.00287260563996565,-0.131014014360041,0.131124412934356,0.00845865774857097,0.130341428828746,0.132492591438694,15.4083431611357,0.961248631661603,0.820901583352801,0.176232539524708,0.240195493919019,0.156397657897657,0.395124977437657,0.158632186723208,0.0367713429962036,NaN,NaN,NaN,NaN,1.64198518080473,-93.7945426045898,1.72729903628382,stable,stable,1,0.449644630510668,0.177182121273238,0.190183864316311,0.89788112140539,0.330489929823264
52,2.62879785207602,3,-0.639078932272289,-2.51779086405834,2.62879785207602,0.00551507349692947,0.00426323721383052,0.00697074079405648,-0.0302073672450327,-0.329777982241836,0.332384918053318,0.0214689524225724,0.194845434139564,0.197406785740892,15.3707162584862,2.15522216680074,2.11692640554323,0.020621335216666,0.0713832903657861,0.137943014011431,0.451464241339173,0.000379304675091216,0.00640457674841209,NaN,NaN,NaN,NaN,3,-102.899260755177,2.23242299778099,stable,stable,1,0.740494117701783,0.0847984524284732,0.0533765883121026,0.956122450751822,0.338691993772697
53,1.699544031348,2.30526995658875,-0.135927629939682,-1.68298808971561,1.699544031348,-0.0468886023257499,-0.0222156651945148,0.0518852272626525,-0.00257723905141662,-0.150008763723824,0.150074766999537,0.00967961520100001,0.1174487712255,0.11989966221532,15.462503549102,0.910825392034528,0.708539984626897,0.17594829157954,0.240200585385204,0.14856024169314,0.391725769728307,0.155047259563285,0.0409843679195816,NaN,NaN,NaN,NaN,1.76767167051157,-93.7767495596924,1.54305784743689,stable,stable,1,0.477191674135865,0.145800624843986,0.171293674561841,0.89930226910789,0.33397322591416
54,2.67939767895675,3,-0.587684625693559,-2.57825787961685,2.67939767895675,-0.0294898348332651,-0.00936280060007079,0.0309404653095254,-0.0256014086792012,-0.34043409253562,0.342485188657009,0.0221108593653857,0.20370638212469,0.205760993352654,15.3934699827491,1.81502786806378,1.50099437856782,0.0635179506851828,0.2404204527677,0.133413474577167,0.39545552433121,0.00182083397228091,0.00895338876871275,NaN,NaN,NaN,NaN,3,-101.106544404973,1.7219308939522,unstable,unstable,0,0.755658246392332,0.0778079408748103,0.0507498018021995,0.94218656414816,0.340705122410148
55,1.65036673153807,2.48352122306824,-0.159760590407664,-1.62668538085013,1.65036673153807,-0.0563537291902566,-0.0374031771460839,0.0676368276478881,-0.00374868557381766,-0.142395240852009,0.142534686160075,0.00919370049365065,0.137357343835839,0.139698425827978,15.4323911066902,0.909745754772775,0.733512065098899,0.176677337892628,0.240209993805249,0.140591417393233,0.422589776611838,0.157364799362643,0.0423168110485989,NaN,NaN,NaN,NaN,1.6954412846166,-94.4207914550518,1.98106680629782,stable,stable,1,0.468037480242414,0.199859845663067,0.205243749516081,0.898750019611837,0.337514925603008
56,1.68747833022306,2.56886029243469,-0.112402112642469,-1.65935327750033,1.68747833022306,0.00552720032820681,0.00875872844337207,0.0103568946800122,-0.00300831220786507,-0.149537525846543,0.149706665975992,0.00966504675919646,0.189101922769817,0.190247559726813,15.413318049745,1.65226908259814,1.8314551172997,0.0295401541537005,0.0518666247011987,0.122387076824044,0.409855049304521,0.019193924271694,0.00598265355026441,NaN,NaN,NaN,NaN,1.73280982852964,-92.1431804697514,1.75009523848422,stable,stable,1,0.488043733338178,0.200209705522287,0.130831966704928,0.957857804209667,0.345605743633758
57,1.60709036645052,2.24923729896545,-0.19827433654777,-1.57868004177427,1.60709036645052,-0.051986197695242,-0.0266815498818036,0.0584334651967857,-0.00476490540671975,-0.132601956841078,0.132808962300114,0.00856796216239593,0.117623458041041,0.119866785537619,15.411702453049,1.06762375639897,0.814410078329549,0.176652891653929,0.240199896611631,0.148563066987813,0.365992886789898,0.15926063693674,0.0358943196561081,NaN,NaN,NaN,NaN,1.65239533729994,-95.8334835366937,1.65840936496829,stable,stable,1,0.452530788160995,0.155195861768605,0.176952502241329,0.896886145471597,0.333971970227639
58,1.64366338945724,2.43313670158386,-0.0880140494489829,-1.63082902578504,1.64366338945724,-0.033711915533505,-0.0128076442616562,0.0360628479251336,-0.0013694624587495,-0.14074240598698,0.140777604194359,0.00908178848710204,0.11979391537512,0.122157758474181,15.4056803865158,1.02189008612705,0.823227001963224,0.176531319935246,0.240224548066745,0.137816402485702,0.455438533431933,0.159815742886451,0.0367500760864721,NaN,NaN,NaN,NaN,1.68060545220575,-92.4282145747537,2.12114056408541,stable,stable,1,0.462741788883433,0.184243017348098,0.194938693500948,0.897236991483096,0.33874826556191
59,2.52665661888378,3,-0.522864957830804,-2.44012055260655,2.52665661888378,0.00450462860827582,0.00325531596465543,0.00555776582164429,-0.0232026708703165,-0.312722646450911,0.314433724918596,0.0203119706005224,0.212017547345734,0.214448667033306,15.3914258904487,2.16224652507887,2.12101167937821,0.0276937679165264,0.0540377688434503,0.144646612671001,0.409895897815331,0.0115847237998425,0.00773588200835306,NaN,NaN,NaN,NaN,2.78982386220964,-100.41262924442,1.92270656814913,stable,stable,1,0.716664831775668,0.107521184485118,0.0724745248273718,0.952498944435288,0.335712616590666
60,1.67123510225399,2.45254588127136,-0.0842843523784131,-1.65842374120906,1.67123510225399,-0.0359993043343259,-0.0205643495341365,0.0414589240612628,-0.00153551097583927,-0.145606710310689,0.145649687904681,0.0093936565205497,0.126309685762935,0.128632581873122,15.4559979338693,0.792262080009919,0.69932409196351,0.176616780141472,0.240207066164022,0.133158547919979,0.384391438050003,0.158619476205039,0.0343984258364261,NaN,NaN,NaN,NaN,1.72864210057146,-91.9462754292346,2.28987758266422,stable,stable,1,0.471389210309022,0.183395728023473,0.193043500280075,0.89997200429233,0.340818423146676
61,1.60894068028476,2.29568839073181,-0.202065095285215,-1.58010353659573,1.60894068028476,-0.0522219665597666,-0.0185165384494731,0.0554075445000065,-0.00468303224391482,-0.132661121465957,0.132865602370211,0.00857108239904633,0.13135941724694,0.133613161994066,15.3880878146087,1.04396673394216,0.814137373686142,0.176693875726214,0.24018185403747,0.166978470261765,0.438683092151224,0.158397695834839,0.0352046960824181,NaN,NaN,NaN,NaN,1.6541677253945,-95.777639022521,2.13369049603505,stable,stable,1,0.455773480474749,0.164676284675588,0.182006454398282,0.897053672719814,0.325787346550327
62,2.6057249156129,3,-0.53584105096217,-2.5160339689491,2.6057249156129,0.00719380897090115,0.00534645501513272,0.00896300556390856,-0.0242492031987112,-0.329773423969648,0.331612214691705,0.0214140278924791,0.201511736974591,0.204156569464471,15.3633296230356,1.77710939033034,2.0746243548416,0.0192013114918387,0.0491045315288924,0.129582839188144,0.400562771857657,0.000193736313166011,0.00690407579041954,NaN,NaN,NaN,NaN,2.96888331606625,-100.576107342626,2.27435703791202,stable,stable,1,0.735691291389667,0.0903551116738141,0.0568097450470602,0.960135721970587,0.342407627027492
63,1.5295233484861,2.30264568328857,-0.0841455040703429,-1.50572578116511,1.5295233484861,-0.0576504263495227,-0.0268529248852286,0.0635975725415167,-0.00200718638997387,-0.12262293047848,0.122742850640401,0.00791927513911545,0.145455083662541,0.147439896005295,15.3225684305222,1.19937041765172,0.89388341565469,0.177140643666699,0.24019205575054,0.164072860301265,0.422433403355389,0.158872541143944,0.0371722605748393,NaN,NaN,NaN,NaN,1.60300708299886,-92.1234906695166,2.07362252913072,stable,stable,1,0.437360872130686,0.185612080296501,0.195494452127676,0.8949826837621,0.327078728754994
64,2.61338109852838,3,-0.596183751926133,-2.51014041749707,2.61338109852838,-0.0153715746922256,0.0101275290771396,0.0184079372480183,-0.0289413799811632,-0.33393975303607,0.336406763776353,0.0217199379534931,0.207985889232368,0.209931990787606,15.3933616074107,1.8684803442533,1.61985989958145,0.0627470907914535,0.240450732027527,0.144650911277816,0.450890962169555,0.00193912543597936,0.00936290598730309,NaN,NaN,NaN,NaN,3,-102.201792877698,2.29276409951828,unstable,unstable,0,0.738888024431755,0.0903640413265851,0.058484951409345,0.941218066974143,0.335710706098748
65,1.50874927881602,2.31421232223511,-0.137627720476517,-1.48115483333611,1.50874927881602,-0.0542605266280217,-0.0267963693076969,0.0605165279739736,-0.0034960794008917,-0.119614259537343,0.11979396592442,0.00772742822674872,0.156675782426588,0.158664093657899,15.3802404652904,0.846470751590566,0.934667442988486,0.176876309158661,0.24018060024299,0.133821820388164,0.447586039042899,0.160042354617884,0.0356062974434874,NaN,NaN,NaN,NaN,1.55228808798252,-94.2268777224065,2.25439632275007,stable,stable,1,0.434065959749184,0.192323881564524,0.199472008849345,0.897567188177548,0.340523635383038
66,1.58085365279462,2.27351236343384,-0.122001686604443,-1.56070765729905,1.58085365279462,0.00211074257424626,0.00116243964636195,0.00240966805725806,-0.00257413248883853,-0.128516712771769,0.128608587107249,0.00830520948222928,0.130293649312027,0.131309944220828,15.3562752014854,1.94030690786777,2.01522405974547,0.0157174364910868,0.0676767698473601,0.130637990060832,0.448904728274422,0.000246884875212266,0.00898490631052576,NaN,NaN,NaN,NaN,1.60696450398557,-93.5145725727472,2.40992240926179,stable,stable,1,0.447822962922732,0.156289982370987,0.0971509546921707,0.961062109866067,0.341938671084075
67,1.67556614723782,2.44651794433594,-0.117445359033966,-1.65471763770948,1.67556614723782,-0.05472337235939,-0.0206873204415089,0.0585030999984968,-0.00262236525743742,-0.145639753690094,0.14573505912214,0.00939915762911331,0.126775781310598,0.129271913818222,15.4333829689026,0.886082775995612,0.631786273907012,0.175983994187927,0.240178966761452,0.127509596322641,0.381222343801608,0.155711210761583,0.0408228824453341,NaN,NaN,NaN,NaN,1.70472744872138,-93.0615211949791,2.35118448634341,stable,stable,1,0.472672022027062,0.184189722680135,0.19456350069436,0.900081888942516,0.343329068301048
68,1.59106888400542,2.29215812683105,-0.143956913581492,-1.56841023917092,1.59106888400542,-0.050042471424213,-0.0176623824261546,0.0530679630211195,-0.00312285005894384,-0.129888034780211,0.130010990396808,0.00838495249695152,0.117495966103339,0.119649695505542,15.4677712010362,0.809122252265427,0.671911229812505,0.176039357492168,0.24017357915419,0.111116339241584,0.406945490061743,0.158841225007452,0.0369088392873001,NaN,NaN,NaN,NaN,1.6346567991892,-94.1375227104005,1.90579323479669,stable,stable,1,0.448214974835887,0.16747420618964,0.184502019821569,0.900343629609018,0.350614960337074
69,2.61798261719005,3,-0.404235260023088,-2.5519852350398,2.61798261719005,0.00857090847887328,0.00527456492732419,0.0100638713885751,-0.0174422373805249,-0.33865607957559,0.339682661825854,0.0219300242790494,0.199173654419571,0.201878937885814,15.4111080072164,1.7710981201825,1.85919304022493,0.0286674822807352,0.0619890965239592,0.12541171932629,0.479959179855263,0.0201538288302469,0.00676538518169775,NaN,NaN,NaN,NaN,2.97762147861884,-97.4745863886534,1.56337101281592,stable,stable,1,0.73850448549451,0.0877989542201438,0.0640967698560457,0.957142542599288,0.344261458077204
70,1.67662153428033,2.65609526634216,-0.101945338689453,-1.64919938239386,1.67662153428033,-0.06903115557341,-0.0479845685537479,0.0840703232959745,-0.00266586336291412,-0.150249710938568,0.15040742909474,0.00970041640738322,0.173876887476242,0.176251078585952,15.4535392386751,0.905530829166694,0.604011433117884,0.175454932738113,0.24021927107769,0.117797433001267,0.324105692164036,0.155431816319535,0.0408862275517237,NaN,NaN,NaN,NaN,1.74106956136438,-91.9626622500687,1.97778000187773,stable,stable,1,0.482349291525278,0.235794482318175,0.225425215753749,0.900411844427279,0.34764558533277
71,1.48423752374947,2.26902055740356,-0.187587224599188,-1.45662174779693,1.48423752374947,-0.0265376892367401,-0.0170836977243396,0.0315610785297714,-0.0045297640551146,-0.124052117108131,0.124241495997928,0.00801312413436513,0.140083070186998,0.141064492804614,15.4688092437107,0.799264191974215,0.763383858708178,0.163853462539908,0.246096439146774,0.264078429828071,0.524303146752089,0.148706021125486,0.00461756304980903,NaN,NaN,NaN,NaN,1.67774962146967,-95.9395937551425,2.11119808906866,stable,stable,1,0.424009571560782,0.182362380302629,0.177188106962532,0.905795319760399,0.282631808965302
72,2.46360887485008,3,-0.512073813871305,-2.37570297022152,2.46360887485008,0.00894140275427705,0.00144438257645061,0.00905731330148998,-0.0234676123338096,-0.313744054664485,0.315675424112995,0.0203615265265125,0.199062826955366,0.200955538705448,15.4595913651987,1.02085961790695,0.934549000526059,0.0223091943675984,0.102215026541828,0.267172705130153,0.662763838321308,0.00527804996872331,0.0119005904732868,NaN,NaN,NaN,NaN,3,-102.28205700878,2.39854320394032,stable,stable,1,0.697153474367777,0.122348510597339,0.0800823937893343,0.973481477957084,0.28125657549771
73,1.69359790473371,2.41019773483276,-0.183387375210484,-1.67171953486785,1.69359790473371,-0.0420109395271787,-0.0302494723936327,0.0517682298330686,-0.00378029146378822,-0.147368060153529,0.147490442948613,0.00951428213162375,0.12587024452726,0.128387022145274,15.4225173202723,1.10448221034102,0.69960206983755,0.176126864541435,0.240204088618239,0.145646461517246,0.383164633376044,0.156173133307165,0.0417532374176134,NaN,NaN,NaN,NaN,1.730743683828,-94.7490683234343,1.61865855254231,stable,stable,1,0.477303512358044,0.17072580390835,0.187028759239448,0.897761619813594,0.335268239325669
74,2.67189330705922,3,-0.603267172217313,-2.56941685908217,2.67189330705922,-0.0275229941477723,-0.00599998884956836,0.0281693995863109,-0.0266725720809717,-0.341198536183234,0.343349259222481,0.0221606683949156,0.200849510369481,0.202939620489882,15.4216029646666,1.71190919995603,1.28245476538552,0.0628327788171107,0.240290721000977,0.118730208582034,0.429362471874997,0.00192113253165968,0.00882319420603009,NaN,NaN,NaN,NaN,3,-101.440236798872,2.04740856017155,unstable,unstable,0,0.753092805980434,0.0789883958358332,0.0514553084389757,0.945056465149475,0.347231018407985
75,1.66045534852389,2.38220286369324,-0.176589497402379,-1.6347938808353,1.66045534852389,-0.0451439006471301,-0.00875973680779816,0.0459859190903025,-0.00426708548657178,-0.141258535073209,0.141433127825622,0.00912642488105762,0.127520473521496,0.129890039928922,15.3609984289744,1.20074751503128,0.949813784314789,0.177647223631528,0.240192467294301,0.144965916987016,0.476287580852618,0.157730248095816,0.0383545893925878,NaN,NaN,NaN,NaN,1.72844746755899,-95.0560971705178,2.36130626260552,stable,stable,1,0.468766100925488,0.170823942746326,0.186543821550311,0.894279120832231,0.335570703561326
76,1.76315301796266,2.60220289230347,-0.224909485127749,-1.73816342870228,1.76315301796266,0.00334319734823185,0.00443914933430787,0.00555724889864675,-0.00462929619392768,-0.158498497043627,0.158644658305702,0.0102483498144344,0.121414784226465,0.122728079460836,15.4022267297593,2.1603736960546,2.21607407962665,0.0144515080693644,0.058096639606016,0.155389125376186,0.438834708346084,0.00013378222920734,0.00529290679944344,NaN,NaN,NaN,NaN,1.80133462105751,-96.2777836497926,2.46858401785178,stable,stable,1,0.494719754015542,0.189805050691434,0.115867182565013,0.958387870584965,0.330938166499473
77,1.71136990729594,2.38262629508972,-0.145720335865613,-1.69046224401464,1.71136990729594,-0.0537259319154441,-0.0296415482456565,0.0613603874057402,-0.00337767049095573,-0.151792910375911,0.151907479959453,0.00979697927110175,0.135754700948345,0.138247947534008,15.4562314167507,0.832724936804908,0.603588024909418,0.175919206130979,0.240214231312031,0.109086527556844,0.418778427658457,0.156483989994795,0.039080258930222,NaN,NaN,NaN,NaN,1.75923009576763,-93.8331549635916,2.3088239757206,stable,stable,1,0.484014898119053,0.162282091611319,0.181128698211831,0.900755080806755,0.351517098863625
78,1.776378878011,2.5968132019043,-0.218455676184082,-1.73858338871305,1.776378878011,-0.0724093825436584,-0.030449507944444,0.0785512012283238,-0.00673855996398426,-0.163623097595925,0.163968303334069,0.0105752842311994,0.174478400921478,0.177061960908935,15.4587567571201,0.908184247456735,0.702914271515895,0.176174174486939,0.240246066731697,0.156216627897893,0.398251586774654,0.157169196790528,0.0395911106166605,NaN,NaN,NaN,NaN,1.84421771642335,-95.6415120879709,2.36060439932384,stable,stable,1,0.509113426318054,0.198998776434518,0.203649009709024,0.899254281536031,0.330570387600936
79,2.62406177983236,3,-0.409269629218071,-2.55481771142433,2.62406177983236,0.0089637908918467,0.00284280709411457,0.00940378111862999,-0.0182261456196884,-0.339400214533602,0.340541772556762,0.0219854629951559,0.206012271017173,0.208692979416966,15.4048368501165,1.80068317406688,1.6971936435775,0.028797320597367,0.0543198167300613,0.11904690386665,0.385538696771309,0.0176176889781926,0.00642958137413758,NaN,NaN,NaN,NaN,3,-97.5958361626102,1.77519013185502,stable,stable,1,0.74148840383869,0.0863101260761342,0.0619541892265838,0.958118021848396,0.347090264948156
80,1.78383817221667,2.59706592559814,-0.227329537030148,-1.75715904391705,1.78383817221667,-0.0465017007029314,-0.0251048289278476,0.0528456299400575,-0.00507737327887585,-0.162753162092004,0.162928648040084,0.0105098914544769,0.121527799781517,0.124215787517527,15.4400894558027,1.08598537791961,0.698023997445655,0.176613340762897,0.240204960622806,0.151046529247316,0.38048955343282,0.159036978190733,0.0369634354077896,NaN,NaN,NaN,NaN,1.84269174465958,-96.4089816842801,2.41525708832901,stable,stable,1,0.500533336761285,0.192664609999842,0.199723116657205,0.897676113097824,0.332868209223415
81,1.84970510650325,2.62528872489929,-0.197500047485875,-1.82822591354928,1.84970510650325,-0.0425952145506972,-0.028204530735816,0.0510866700485314,-0.00418554079197259,-0.176765751485276,0.176881388797566,0.0114099857654118,0.128860499060262,0.131800030950922,15.3912741145799,1.05569370696213,0.750315289072356,0.176374129913203,0.240224585853616,0.123912662269849,0.484852298825837,0.158973648907324,0.0370711157111413,NaN,NaN,NaN,NaN,1.90149022471625,-95.3637271300002,1.74126032342804,stable,stable,1,0.519614701257719,0.183872203648006,0.194458682971867,0.897622864360271,0.344927705657845
82,2.57702163429962,3,-0.410767342790002,-2.51279486250688,2.57702163429962,0.00646992395890992,0.00715253580842706,0.00964461945982878,-0.0170648230774799,-0.330676401570935,0.331661439937239,0.0214138163922616,0.20243477075047,0.205027348418466,15.3963915871841,1.92025014371505,1.69908886367732,0.0262947904412802,0.0507892134422804,0.12187907580258,0.368855344791535,0.00870324950995379,0.00531057350214653,NaN,NaN,NaN,NaN,2.91783086718893,-97.7855854258006,1.95828034632518,stable,stable,1,0.728211238830259,0.0969383125168875,0.0639622160405895,0.958414941149848,0.34583152186552
83,1.69027695623604,2.42057824134827,-0.307568879490703,-1.64585463725627,1.69027695623604,-0.0512092822683122,-0.0101664670570581,0.0522086931732439,-0.00806151348458782,-0.145475267220858,0.14591700630484,0.00941039864582334,0.147493920622528,0.149822513166263,15.4616634483531,0.923860093731952,0.52292577303284,0.176086566886753,0.240220722368302,0.131088536103078,0.360050565977137,0.15928709854631,0.0361561605131748,NaN,NaN,NaN,NaN,1.75027764965131,-99.5200046041142,2.37239497774065,stable,stable,1,0.480705024296197,0.173889382898679,0.188275590491853,0.900589113317757,0.341738428398632
84,2.59572505397752,3,-0.419276323762498,-2.53042960338291,2.59572505397752,-0.0137607403804543,0.0134077551932959,0.0192126488319966,-0.0183730693895854,-0.342655972813211,0.34377341417857,0.0221890475085236,0.201114126868109,0.203132978590601,15.4045495203358,1.56114175003952,1.47237375028444,0.0625632681133012,0.240438124615988,0.130685200913054,0.468260838556244,0.00190077380362831,0.00770614167883324,NaN,NaN,NaN,NaN,2.95681470906161,-98.270421652992,2.36739562726155,unstable,unstable,0,0.73281994344546,0.0944841818075899,0.0603375307794796,0.944883601297947,0.341917688483087
85,2.06415181949332,3,-0.45602125406948,-1.98446041927904,2.06415181949332,-0.079283561289373,-0.0243133213491398,0.0829278040572178,-0.0178967652768636,-0.213932873687474,0.215369883715271,0.0138922784919539,0.202743078507205,0.206169306960039,15.4553197686146,1.04077880327825,0.823312651154346,0.176017132312085,0.240316960178845,0.164693909254525,0.39640698774284,0.159413874644318,0.0337565449104448,NaN,NaN,NaN,NaN,2.10680641889481,-101.731697741666,2.34793203491094,stable,stable,1,0.591674346590226,0.225769271357826,0.218587281007888,0.897345000987701,0.326802706997989
86,1.98105008090102,2.86885499954224,-0.555652721035752,-1.88772052661336,1.98105008090102,0.00123397181555827,0.00445409657543584,0.0046218678848385,-0.0191595498808739,-0.186055672871193,0.187599074094669,0.0121102749707114,0.134937091483033,0.136391048647779,15.4123804085034,1.87153189371306,1.67891973639636,0.0287988158243288,0.0613067701056112,0.120566519162025,0.513291044698083,0.0202727065044466,0.00481730594183036,NaN,NaN,NaN,NaN,2.01104491577433,-105.279667622794,1.76086532059565,stable,stable,1,0.555558231303162,0.200603449139826,0.131123908878861,0.95770418642269,0.346414880372433
87,2.02077645949415,2.7714946269989,-1.15361733957305,-1.64488795093357,2.02077645949415,-0.0452104114546027,0.0199491692082699,0.0494160971343818,-0.072238942083955,-0.143038565846012,0.162980406746987,0.0105139775021333,0.135038123987929,0.137657639417296,15.3965974149293,1.05476178705769,1.04614190800748,0.176335948128923,0.240286545077195,0.162137589021101,0.412820143323928,0.160138249381396,0.037519256194648,NaN,NaN,NaN,NaN,2.06469467336038,-124.238920485483,2.04588834508246,stable,stable,1,0.566405250415233,0.177971205496538,0.191598644467506,0.895324925474312,0.327938849323955
88,1.9402285314895,2.80924344062805,-1.09599703962085,-1.58452433139018,1.9402285314895,-0.0399668965306426,0.0114137092544104,0.0415647155317501,-0.065951705262529,-0.132692943563803,0.151229879292742,0.00975605057124889,0.13287459925067,0.135287930976697,15.3839070086398,0.995644957281203,1.13428153375207,0.176685743924395,0.240262586007298,0.181769577975282,0.522793383032597,0.155973756974612,0.0417178529985948,NaN,NaN,NaN,NaN,2.00959748573364,-123.70580417537,2.29315692806821,stable,stable,1,0.544451861259206,0.203148552403661,0.206380929571817,0.894921991322541,0.319213520899875
89,2.63148902610792,3,-0.247978533685597,-2.58654670514716,2.63148902610792,0.00654018418402379,0.00321833860228561,0.00728915032907928,-0.0100333942838831,-0.347495951224689,0.347975525449077,0.0224612253750404,0.196820920143346,0.199623871906084,15.3966512683928,1.63563328572501,1.7064217171595,0.023764396776224,0.0788134255492115,0.110129831671518,0.487158642645535,0.00609109611900641,0.00597694720879269,NaN,NaN,NaN,NaN,3,-94.0907171926139,2.06979566108873,stable,stable,1,0.741655181343328,0.0842513133527169,0.0554313771909515,0.961858798017796,0.351053408145992
90,1.91055457414807,2.75798058509827,-1.0425988301432,-1.57796749020914,1.91055457414807,-0.0626731488812545,0.0149872304871957,0.0644402100273442,-0.0610377284949581,-0.133610425142097,0.150825946579728,0.00972873680132721,0.148198423097058,0.150447393789556,15.4263736597405,0.967155496957787,0.996567104982524,0.176206787264909,0.240257621623826,0.16748058427527,0.418513494599369,0.156137762649138,0.040615341846252,NaN,NaN,NaN,NaN,1.99637079272466,-122.311062912018,1.54443126459026,stable,stable,1,0.539570698530731,0.202484890968806,0.205654710975497,0.8964673573523,0.325564184766547
91,1.85740646979953,3,-1.12145853252741,-1.44915484137757,1.85740646979953,-0.0811374161896932,0.0106025410985574,0.0818272215322388,-0.0741371930892344,-0.117510694593611,0.145354132499436,0.00937604594194881,0.196267710773784,0.198648669540086,15.4554661188372,0.859348240149798,1.0640672329694,0.175211562291444,0.240317204466444,0.199664096015907,0.436629499228876,0.156464606572164,0.0409912956027777,NaN,NaN,NaN,NaN,1.94546366280019,-126.251978914843,1.92605651764025,stable,stable,1,0.535038125854558,0.272085201576017,0.247696871762531,0.897281668708341,0.311260401770708
92,2.62358039517865,3,-0.476314921488873,-2.54739120789551,2.62358039517865,0.00443906857203838,0.00355075569969322,0.00568446970492083,-0.0207030504026073,-0.337767401668251,0.339082528560876,0.0218900713456648,0.201966976594634,0.204625351069817,15.4006092370018,1.76567954472103,1.74081574999203,0.0288441481483703,0.0551360147568693,0.123206997454774,0.496987179927316,0.0235413672709658,0.00653418484378946,NaN,NaN,NaN,NaN,3,-99.2513675644137,1.64420204479256,stable,stable,1,0.74054650892827,0.085736563864039,0.0642808354325538,0.958026891467355,0.345241334464545
93,1.67742139987043,2.63689017295837,-1.0172182630435,-1.30588843882562,1.67742139987043,-0.0655683922169442,0.00513195533138262,0.0657689214100272,-0.0601631179182044,-0.0940271136361496,0.116609443055657,0.00752103089911644,0.174002890329102,0.17588284222972,15.4575520779801,0.833160448481012,0.894943413241074,0.1769910739713,0.240212199069916,0.151072436830448,0.388677233985453,0.157650464975198,0.0361961904319211,NaN,NaN,NaN,NaN,1.74681180591764,-126.657123786368,1.66267738941646,stable,stable,1,0.482488941744727,0.227938109536625,0.219991990110438,0.897926504100819,0.332856694742023
94,2.55271200835705,3,-0.227911047730514,-2.51047205368093,2.55271200835705,-0.0061293215556882,0.000785283039813166,0.00617942167080725,-0.00962679314422537,-0.338134487356673,0.338600737185632,0.0218413070662263,0.197583824011432,0.198677020199544,15.451456643493,1.09038092576968,0.78499318961191,0.0718270432252697,0.235342103472603,0.281497653407582,0.6887844360017,0.0930729754090836,0.115132366702495,NaN,NaN,NaN,NaN,3,-94.2734617915732,2.30365525259395,unstable,unstable,0,0.720458606268455,0.101772692092646,0.144295697268612,0.949351396052224,0.274889931818853
95,1.78982029170603,2.46159815788269,-1.13976040618944,-1.36106257009924,1.78982029170603,-0.0503785555990829,0.0179480598049125,0.0534801992798326,-0.0708491570815006,-0.0994021958484714,0.125794366833111,0.00811408770903203,0.139574265638552,0.141638810828944,15.4281171567186,0.882505991836706,0.99728861203083,0.176492685221536,0.240266444202302,0.155277521756496,0.483317455810347,0.15853389870192,0.0356637087049519,NaN,NaN,NaN,NaN,1.86493072097439,-128.583435678336,2.13707969314207,stable,stable,1,0.505613173287398,0.16095472309105,0.180000965736072,0.896983842644558,0.330987768108224
96,1.73594752203262,2.50964212417603,-1.06346804910901,-1.35066048610511,1.73594752203262,0.00301614597941433,0.000927091827802564,0.00315541373298583,-0.0620238333300556,-0.0969896626133532,0.118999691776349,0.00768879418458414,0.141720701048081,0.14268426393983,15.3790958738841,2.51468863527187,2.19300573750401,0.0179754283882908,0.0617563473888982,0.160661050109784,0.494070561633941,0.000341894059268191,0.0079895490386543,NaN,NaN,NaN,NaN,1.76269102467469,-127.19753908103,2.35744603035818,stable,stable,1,0.491456191996665,0.17465977799998,0.107853110274729,0.954023258591187,0.328595088840096
97,1.76958936050132,2.51250553131104,-1.08470998837099,-1.37727840043043,1.76958936050132,-0.0524127247836054,0.00376046482683169,0.0525474529825738,-0.0645526149545548,-0.101825558093049,0.124351067410217,0.00802138905985657,0.134691452419387,0.136689592929381,15.4164620313816,0.821001864107715,1.09359441543159,0.176694022621449,0.240226874868294,0.146340992080298,0.452282550559142,0.157859542198744,0.0357321594118116,NaN,NaN,NaN,NaN,1.81622668042125,-127.513201967813,1.63050948781,stable,stable,1,0.49922841471956,0.176789838145659,0.189227211933556,0.896609732207181,0.334959559075423
98,1.87103860730293,2.57678842544556,-1.18897835157825,-1.42730261778311,1.87103860730293,-0.0560479840418642,0.0241548868329355,0.0610314269296481,-0.0764328653662473,-0.107873834538846,0.135699348797778,0.00875250754594718,0.129116752679598,0.131203817311194,15.431207270958,0.821223667891033,1.02485444088788,0.175529125906701,0.240244120823118,0.153868584966168,0.486454428887067,0.156670548372445,0.041038218135194,NaN,NaN,NaN,NaN,1.91962505408224,-128.853168090004,1.90077288893287,stable,stable,1,0.525184392076353,0.169982804019194,0.186544025656512,0.897730537620529,0.331613962237259
99,2.62269851515524,3,-0.161118232148401,-2.58748098848696,2.62269851515524,0.00546689913239914,0.0025853792740169,0.00604741036430823,-0.00557835648371999,-0.348067549766072,0.348315334908209,0.0224887913026483,0.195847102767013,0.198758327635229,15.3973367155855,1.70019844129349,2.00795070200576,0.0212117410969971,0.0521573554110064,0.127200599011328,0.472806655260099,0.000482074170656475,0.00658911058684325,NaN,NaN,NaN,NaN,3,-92.2002194325483,2.18277500699657,stable,stable,1,0.739137936235111,0.0860015259901934,0.054211210994472,0.960258671897007,0.34346640043941
100,1.64715763926506,2.31694674491882,-1.04314903767269,-1.26041946032847,1.64715763926506,-0.0529463820550822,0.000383353606313406,0.0529477698558703,-0.0593642957675549,-0.0847863320894861,0.10606834369316,0.00684164253485476,0.117291532166175,0.118996073727363,15.4193039230564,0.769286585414019,0.991980666475063,0.176639651283188,0.240209296197191,0.157878264351826,0.356610616412606,0.159470336378931,0.0365914761889587,NaN,NaN,NaN,NaN,1.68546986904653,-128.540481584722,1.92349785265397,stable,stable,1,0.463041251882822,0.16040963991234,0.180427480346146,0.897841645950706,0.329831882510299
101,1.64467134691725,2.28570222854614,-1.05170700836486,-1.2493608712644,1.64467134691725,-0.0418249966032471,0.0100605124785526,0.0430179526731891,-0.059940219341994,-0.0834941471633571,0.105479243721256,0.00680209055992466,0.111325195702462,0.112967453967038,15.4615847855545,0.706733023241976,0.737550854916616,0.175588654346393,0.240193225613392,0.130892867612123,0.430743545354122,0.155686702446759,0.0390677670832231,NaN,NaN,NaN,NaN,1.69807149429304,-129.55767099295,1.50930317096461,stable,stable,1,0.461172516638007,0.152118573023253,0.174671694547825,0.900857728069843,0.34182539217239
102,2.62092516334559,3,-0.155138627907967,-2.58413800017668,2.62092516334559,0.00507709131584218,0.00609544522687616,0.00793292561059585,-0.00586852918839231,-0.347619893388575,0.347910723686098,0.0224716200490031,0.197695888474129,0.200543027126425,15.3912264053093,2.13436509047269,2.03132473411186,0.0262540327268597,0.054256681441355,0.144957502956327,0.478858096016565,0.00836771355242997,0.00551366842236984,NaN,NaN,NaN,NaN,3,-91.8482151525671,1.98109624454206,stable,stable,1,0.739021982317443,0.0867462079425177,0.0577716789019978,0.954142563586263,0.335574443130521
103,1.72298545365366,2.3808422088623,-1.09875328610657,-1.30521623693573,1.72298545365366,-0.0767968908911784,0.00662332716030684,0.0770819752810215,-0.0666854685176003,-0.0914567722519782,0.117340279523773,0.00756838755002763,0.133275651459748,0.135139126103397,15.435315544128,0.888190293748418,0.926367757861383,0.175926772636836,0.240215650568891,0.151897456085954,0.398143938724599,0.154614076218035,0.0420235343615418,NaN,NaN,NaN,NaN,1.75398132014352,-128.600052606655,1.561750893606,stable,stable,1,0.486490612861654,0.162149465390133,0.181288331664474,0.897779371847505,0.332490019517354
104,2.68229744020476,3,-0.375267233144196,-2.61801767801176,2.68229744020476,-0.0335784292722611,-0.010190642358455,0.0350907410020105,-0.0137769268403952,-0.351073129451804,0.351800245298092,0.0227091748113345,0.200955377276401,0.203116355316553,15.3817723220971,1.79330572193106,1.37095023830316,0.0634388132690345,0.240279478912229,0.137169449807016,0.520553851362169,0.00195337669033284,0.0112210504438515,NaN,NaN,NaN,NaN,3,-96.2939600424606,1.52103053908986,unstable,unstable,0,0.755902588451247,0.0779163784709642,0.0516983764800866,0.943418582249357,0.339035800085771
105,1.71882161878099,2.36787509918213,-1.08860623166558,-1.30725953353539,1.71882161878099,-0.0673015160987571,0.00694938962190868,0.0676593532729094,-0.0652565788884933,-0.0917725806436391,0.116817465383196,0.00753553626977554,0.126081266959282,0.127959897275629,15.3988469665306,0.950730348953819,1.01434917036493,0.176512554535361,0.240207328418481,0.137207768120588,0.491563647919851,0.156150924083377,0.0428092450926232,NaN,NaN,NaN,NaN,1.78074250763471,-129.221424924807,1.76534948483765,stable,stable,1,0.483944411130057,0.158441247856955,0.180032157633396,0.896303812223387,0.339018769724183
106,1.83727268032406,2.63984084129333,-1.07322601562129,-1.47661183090834,1.83727268032406,0.00723890121856924,0.00599843752771654,0.00940122032643216,-0.0626353076254243,-0.114827183024513,0.133381580131701,0.00861316473108498,0.134467174635906,0.135547847885751,15.4024306616943,1.93151350916773,2.04723214893541,0.0285590355646774,0.0577486704832924,0.140316094411735,0.427087691357624,0.0154928739409915,0.0069870956723391,NaN,NaN,NaN,NaN,1.88415857146299,-124.959215831678,1.84586130222428,stable,stable,1,0.517048950996899,0.182301393277933,0.118807319780981,0.954458909189708,0.337637291372562
107,1.67556924473595,2.63820910453796,-1.00158036333705,-1.31326534208874,1.67556924473595,-0.0708018644122408,0.00788074731068816,0.071239105710447,-0.0581926175231098,-0.0953633577379553,0.116910210392171,0.00754177315885014,0.167711006364969,0.16965393633371,15.424910900667,0.930851439244877,1.08127721948745,0.175517169540728,0.240223973799353,0.172103443733471,0.442837052215422,0.156440651850784,0.0405870942213306,NaN,NaN,NaN,NaN,1.72726488943798,-126.550224489005,1.58779308819017,stable,stable,1,0.480749252529662,0.229654471169035,0.222080804654981,0.896431832911025,0.323509580562902
108,1.66855351103319,2.4388484954834,-1.0175668983049,-1.30952100513273,1.66855351103319,-0.0456482249958807,-0.00517250292437355,0.0459403442714266,-0.0562077938036208,-0.0911635065016652,0.10934161207214,0.00705286071824078,0.112628750218147,0.114371929694641,15.4471500777897,0.796028425500718,1.04460050223623,0.175348440019283,0.240242394513857,0.181580181551754,0.470657971896566,0.157155029597671,0.0378777171221921,NaN,NaN,NaN,NaN,1.72684939224008,-126.925173742408,2.4062467391668,stable,stable,1,0.467821988881111,0.181738767951059,0.192663655908983,0.89786369555814,0.319297697088109
109,2.63920232284827,3,-0.312063512003823,-2.58381035737983,2.63920232284827,0.00555465231316772,0.00556004612307121,0.00785927956054871,-0.0133670745947003,-0.346430564094877,0.347193447242923,0.0224201149145269,0.201700488118153,0.204481318780156,15.4049000876771,1.94878258798434,1.96859229099641,0.0199396809236497,0.0575180185897039,0.128730844152955,0.447968617075748,0.000652933649328212,0.00469951499642965,NaN,NaN,NaN,NaN,3,-95.4171668207032,2.23462473929769,stable,stable,1,0.744683549848902,0.0826203452785741,0.0515713144443355,0.959250785489041,0.342786291487576
110,1.60948802812679,2.29487562179565,-0.941143814383226,-1.28673167876036,1.60948802812679,-0.0520052742727055,0.00736029692753539,0.0525235425598922,-0.0492323323134182,-0.0888298503536595,0.104585479558607,0.00674624036462158,0.127326113265123,0.129010668551406,15.4387882184552,0.773772247873238,1.02931766053288,0.175672755757027,0.240184953747209,0.154672337088658,0.393733257297708,0.159421008802062,0.0375064115077658,NaN,NaN,NaN,NaN,1.65985778043302,-125.136897277648,1.73089532612097,stable,stable,1,0.45499894121076,0.163841524711474,0.182797391610423,0.897996487126867,0.331256739071708
111,1.55656932012455,2.17327618598938,-0.933085622347993,-1.22724291532904,1.55656932012455,-0.0446749327478793,0.00765527796813335,0.0453260730352512,-0.0484136216573444,-0.0806212827219456,0.096978953167732,0.00625561403886776,0.126245704761933,0.127815298639852,15.4460302817167,0.895627977334646,0.909853213481862,0.176178625506744,0.240185302935937,0.149986960060801,0.430193607820966,0.159234886392218,0.0364444553394679,NaN,NaN,NaN,NaN,1.59306398738573,-126.486183134521,2.0394452470955,stable,stable,1,0.440648211761183,0.14706882487605,0.172264884758746,0.897724763604498,0.333339128861866
112,2.62143482970553,3,-0.23406849722692,-2.5782372825961,2.62143482970553,0.00661108986057831,0.00517331599571918,0.00839462372808962,-0.00912854284977687,-0.346515083813919,0.346943352552693,0.0224164601348006,0.198104372289059,0.20087393634363,15.3813179160083,2.50438198729842,2.1431361530756,0.0175734852870403,0.0593898931560168,0.14835248970909,0.484280562629469,0.00028092777718358,0.0116082421291945,NaN,NaN,NaN,NaN,3,-94.1056534981467,2.36873072611437,stable,stable,1,0.739224075190202,0.0867161776664044,0.0563757423457728,0.954697043396398,0.334065560129294
113,1.72700477451892,2.39807820320129,-0.996164684832807,-1.39043915937044,1.72700477451892,-0.0464844125474638,0.0197610319840871,0.0505103850208936,-0.0556435981807952,-0.1030945368311,0.120535466929281,0.00777588720684973,0.13035145301225,0.132338509761348,15.3797698012161,1.03313787100835,1.04822422322934,0.1767150144859,0.240222460554675,0.14464410537252,0.443909691169369,0.158519382369512,0.0340353874314501,NaN,NaN,NaN,NaN,1.77528590773906,-124.910768203071,2.47871515608124,stable,stable,1,0.487002308490647,0.160251758707366,0.178980618575841,0.895288933445183,0.335713730945547
114,2.68901810999914,3,-0.433157069487312,-2.6203088485162,2.68901810999914,-0.0259232011274262,-0.0118429587742703,0.0285003163003862,-0.0171209267989662,-0.350079132221496,0.351058262310997,0.0226625413688078,0.197282386622799,0.199439004959052,15.4005049328232,1.81321236246611,1.46353566279722,0.063121719996282,0.240272257869025,0.123345948295033,0.445121077283938,0.00187081737814939,0.0098903443417115,NaN,NaN,NaN,NaN,2.9979851142919,-97.9705526263991,1.70141043467833,unstable,unstable,0,0.756959296991582,0.0751959832385967,0.0495455531849781,0.942693262660504,0.345179578535541
115,1.82125460859892,2.63012266159058,-1.05019811018581,-1.46493409399391,1.82125460859892,-0.0514346593582223,0.0104535587866784,0.0524861988964995,-0.0609164599173727,-0.115399068578187,0.13451248538517,0.00867637965324103,0.144133169022475,0.14620499333686,15.4490699143321,0.975700542696266,0.912441084871521,0.177695011196625,0.240271949439109,0.167335291345226,0.425670762828374,0.159744553276953,0.0372422276810566,NaN,NaN,NaN,NaN,1.89315516909655,-124.179562229341,1.69167285726392,stable,stable,1,0.51490889429375,0.191617781720815,0.199510876514347,0.896317095899369,0.325628759402122
116,1.69572756169206,2.48873043060303,-1.02078991442855,-1.33890159308001,1.69572756169206,0.00257680369394317,-0.00649552852465706,0.00698797596531018,-0.0564238744581773,-0.094642177665699,0.11283752609641,0.00728444978350212,0.121272762963683,0.122110849636937,15.4338160576138,1.75003041614342,1.77296958484611,0.0248608270311565,0.0544126071799467,0.185905112813052,0.589250486753286,0.0157103511968209,0.0249694214235474,NaN,NaN,NaN,NaN,1.69700248239393,-126.66944677606,1.94524398818977,stable,stable,1,0.476616186378603,0.179706774431941,0.123886232577426,0.959888872190933,0.317375505416421
117,1.49301957758398,2.49500489234924,-0.892384608663518,-1.17154186496926,1.49301957758398,-0.0594952961344322,-0.0115127897243224,0.0605989652499137,-0.050192225558165,-0.0824155081300273,0.100811234106204,0.00650176915636711,0.167029358891153,0.167890326246394,15.466174069127,0.561775704792751,0.892196515818618,0.17502146711911,0.2442677647246,0.246767564605945,0.431677600303224,0.12715020369048,0.00487775707451707,NaN,NaN,NaN,NaN,1.6721231422542,-125.43586516234,1.824753342435,stable,stable,1,0.431716619271674,0.236556506118002,0.200218835156293,0.901065198992784,0.290325526841802
118,1.7271129110375,2.38959002494812,-1.06845931686398,-1.34183626805532,1.7271129110375,-0.0425812630105916,0.0126293864534389,0.0444146975872569,-0.0622986719400478,-0.0958457605666025,0.117116652773709,0.00755272441654065,0.136002777681861,0.137992903613612,15.4697834229174,0.683256470012497,0.751103981735337,0.175711928133004,0.240252052763707,0.144789588201346,0.397620133464443,0.15880095612562,0.0364856661837709,NaN,NaN,NaN,NaN,1.78141492798702,-127.597402747289,1.79906828231814,stable,stable,1,0.488162023666055,0.157200045187554,0.178165744810947,0.900874060955479,0.335649071910513
119,2.55230097946116,3,-0.353954159145649,-2.49688144907107,2.55230097946116,0.00665077423268556,0.00423264970882482,0.00788340798460723,-0.014208159565938,-0.327136500417201,0.327871573828332,0.0211792993981238,0.209320696703476,0.211872837169542,15.3577130735869,2.2495273500708,2.13235408624457,0.0159125973405309,0.056709649439533,0.144857403724863,0.488635036607237,0.000409997154580905,0.00641720014622849,NaN,NaN,NaN,NaN,2.88139783872518,-96.8469577847742,2.4006753603317,stable,stable,1,0.722988161956884,0.102177571085084,0.063822290934543,0.957614632901542,0.335618931677839
120,1.72514274336348,2.32808876037598,-1.03560111047389,-1.36526603260689,1.72514274336348,-0.0463629442591045,0.00752515271778885,0.0469696766414128,-0.0583032455164788,-0.0987565070529387,0.117226221106208,0.00756128960332044,0.116717177149639,0.118772419472742,15.4276565107471,0.898639914645468,0.92344910587755,0.176454992394966,0.240234248743109,0.178811097745866,0.415434580141014,0.156275656319835,0.0411592804591797,NaN,NaN,NaN,NaN,1.76744363452008,-125.864521808831,2.15259757282648,stable,stable,1,0.483792548791475,0.144273961212072,0.170987235056568,0.897456090069836,0.320528401001837
121,1.72093111719634,2.60392284393311,-0.996397102208069,-1.3765633731272,1.72093111719634,-0.0708478741362189,0.00127877199395303,0.0708594138236694,-0.0571013459526135,-0.104206499979916,0.123410189053096,0.00796036416326134,0.175344978088956,0.177228432420627,15.4529537230912,0.856847880059808,1.02884340777478,0.175611144269808,0.240222373566174,0.150968270667212,0.474104007412454,0.158372864631369,0.0359011590912595,NaN,NaN,NaN,NaN,1.76448514358837,-124.664357217421,2.00261470199954,stable,stable,1,0.494360651069816,0.211664031050111,0.210441325408507,0.89737828203211,0.332902990814572
122,2.61767365980308,3,-0.375460277417158,-2.55504016892289,2.61767365980308,0.00809319759851768,0.0069420045538754,0.0106626110589611,-0.016079600456291,-0.339441564386874,0.340334213228713,0.0219731997282331,0.20307090937092,0.20586938396808,15.4140459254553,1.84153566143659,1.73509161990385,0.0182502108406408,0.0442607255669271,0.131895814720528,0.443184522773387,0.000160476418830606,0.00670979325182285,NaN,NaN,NaN,NaN,3,-97.1526305433791,2.30010028714768,stable,stable,1,0.739220186074437,0.0879782385717837,0.0552981908147285,0.962772823083433,0.341379637901987
123,1.61803806311375,2.29048371315002,-0.940305204100641,-1.30473811280854,1.61803806311375,-0.0492563587866099,-0.0019440984289223,0.0492947096514076,-0.048277551105912,-0.0905983377156278,0.104545752924751,0.00674510286564375,0.114285612428441,0.116021656503162,15.3832270460705,0.967866358653539,1.12638081013857,0.176370617186683,0.240189032785379,0.166424962542736,0.420977785274035,0.158743658192252,0.0351602690048421,NaN,NaN,NaN,NaN,1.66518818535526,-124.488998271363,1.90800913243755,stable,stable,1,0.454681148130967,0.160337634694252,0.179540870156283,0.895359892223292,0.326033349981006
124,2.61293216112048,3,-0.509570476853999,-2.53145284988152,2.61293216112048,-0.0152739992930138,0.0127672454213643,0.019907225071625,-0.023004275296272,-0.340639935290206,0.342246383167105,0.0220972613911502,0.198527283024585,0.200512354518596,15.3974700752241,1.67185512052416,1.67260961405259,0.0627242306474844,0.240412198823678,0.138086641501688,0.441236910882606,0.00193199054989584,0.00872960403624268,NaN,NaN,NaN,NaN,3,-100.530616564359,2.34623799085041,unstable,unstable,0,0.736884380535847,0.0907399216776897,0.0584770169409588,0.942359947476012,0.338628159332583
125,1.57729270812627,2.28575801849365,-0.813986580307416,-1.33966180401553,1.57729270812627,-0.0420700410159459,-0.000389053375317668,0.0420718399123715,-0.0366008527417301,-0.0946603376241759,0.102895297638716,0.00663753938899779,0.111604715245471,0.113298084355544,15.4482670353779,1.07499073498814,0.769897890121191,0.176476598908629,0.240175955852643,0.172739067102155,0.387765337729002,0.158708882470421,0.0368516116189488,NaN,NaN,NaN,NaN,1.59718321662841,-120.692341177793,2.39673473348409,stable,stable,1,0.443271005704782,0.167117865483261,0.184208586431176,0.897266147062684,0.323227081287931
126,1.54918784979594,2.33863687515259,-0.866111303207166,-1.27280415533449,1.54918784979594,0.00596348372017452,0.00375946811020991,0.00704959137485797,-0.040701922733344,-0.0853737190686234,0.0962278604386481,0.00621362341692629,0.10569459698381,0.106465600058513,15.4151160365125,1.91845566668519,2.0332006057168,0.0279786172746725,0.0502770626126785,0.13055128466922,0.477540644946888,0.0201789383406977,0.00699558940512434,NaN,NaN,NaN,NaN,1.57811714801433,-123.111297136965,1.78393725930085,stable,stable,1,0.434409879957286,0.178918455790637,0.118863341207465,0.954961963508077,0.34197720681368
127,1.50742790425146,2.20140790939331,-0.75709999784455,-1.28590287907027,1.50742790425146,-0.0426946744185025,0.0122571406959102,0.0444192832195801,-0.0326256388703721,-0.088133746363806,0.0960003768761652,0.00619338000644334,0.111921807261498,0.113488951524277,15.3845441557257,1.04025779676828,0.920876931626732,0.17602573957165,0.24017438028616,0.162994359726123,0.439783642027946,0.155385312931014,0.0404766207904688,NaN,NaN,NaN,NaN,1.53181850141805,-119.504479623187,1.7586559372115,stable,stable,1,0.424678564771911,0.164289036413839,0.182352332125289,0.896578214491071,0.327558062343945
128,1.61700758499068,2.26207828521729,-0.869395628831108,-1.35137579277329,1.61700758499068,-0.0442738448414696,-0.00613946110951311,0.0446974979138849,-0.0415602560040548,-0.0970214285460983,0.107203595614746,0.00691543660177428,0.114612645345757,0.116400483862191,15.4182196097831,0.9595020532415,0.936490380003802,0.176185407696284,0.24019930220484,0.14724682218342,0.489084766923451,0.153747537428948,0.0418297769166977,NaN,NaN,NaN,NaN,1.67347133841587,-121.814224359451,1.76966177000237,stable,stable,1,0.45448211943662,0.153335448835198,0.175544336128137,0.897010212747788,0.33455696791848
129,2.62961539097853,3,-0.514321733018591,-2.5475421293278,2.62961539097853,0.0076562604610757,0.00646882171665901,0.0100231720852109,-0.0224552973265912,-0.33746244746066,0.338960554303591,0.0218868710503433,0.189670393540676,0.192407500395495,15.4152152104708,1.96879711741473,1.98853873029608,0.0228750360475435,0.064670620265293,0.12813002670212,0.465069854331224,0.00124162097161664,0.0101910557035182,NaN,NaN,NaN,NaN,2.98812679975473,-100.15154225882,2.14080023453004,stable,stable,1,0.739712271006707,0.0851741185787862,0.0553621411278554,0.957469128887072,0.343053321465724
130,1.61730298883206,2.42635607719421,-0.909408774403042,-1.31168087637361,1.61730298883206,-0.0784255277296242,-0.0130140283840258,0.079497976920487,-0.0484495126333155,-0.0949803035503981,0.110639487922193,0.00713573991302258,0.164698155934461,0.166365675517315,15.4117899705941,0.881095230759675,0.871984913995409,0.176761176673233,0.240191537006329,0.123599417496172,0.448589807822832,0.160202641321928,0.0332191832472292,NaN,NaN,NaN,NaN,1.67291748571223,-123.514973806059,1.85316923869918,stable,stable,1,0.464553932125346,0.196611573983574,0.201247821309993,0.897845210526022,0.345066925557257
131,1.48731767889616,2.12092900276184,-0.737536437210732,-1.27459013460418,1.48731767889616,-0.0492449216352,-0.00125396805987578,0.0492608845104529,-0.0311827949064187,-0.0868935997070482,0.0941435285235416,0.00607353693051,0.127015973643884,0.128518589762038,15.4243227144147,0.927426364625152,1.00307075149535,0.176356084300381,0.240160479381904,0.172440310357764,0.441948765294111,0.156947168485634,0.0355092057476816,NaN,NaN,NaN,NaN,1.54515709711904,-119.107877075441,1.84996646242712,stable,stable,1,0.422321765658049,0.151593710030029,0.173622961576446,0.896653766223148,0.323359862063216
132,2.62021276663777,3,-0.453947648253191,-2.54861945662517,2.62021276663777,0.00607057109948144,0.00516768541144073,0.00797225225300081,-0.0193200939556869,-0.337810887531497,0.338996154767531,0.0218968397467227,0.197511446981332,0.200171850887732,15.3415532571845,2.17419718306534,2.08518844107628,0.0195042628551086,0.0650086044510722,0.140199963372945,0.437653726061938,0.00011530471795319,0.00676951589972037,NaN,NaN,NaN,NaN,3,-98.8062245222683,2.26012453555213,stable,stable,1,0.738757774614285,0.0869137070862185,0.0546611129383965,0.956781267239904,0.33768890516758
133,1.62754548916081,2.5386974811554,-0.852840082856588,-1.3602454061915,1.62754548916081,-0.070724092479988,0.00656430411209565,0.071028074348063,-0.0435131073806537,-0.101842668351682,0.114396639891656,0.00738020085199982,0.175526366009707,0.177189378933393,15.3826706847704,1.07317838010018,1.04987672704238,0.175994910976244,0.240207746803326,0.159051099201552,0.44299943445253,0.154399625131047,0.039378035429818,NaN,NaN,NaN,NaN,1.68330103474598,-120.509023497779,1.61105194461761,stable,stable,1,0.46945000622956,0.218031011829261,0.213759948322198,0.895321397241472,0.329310622577088
134,2.68221434574683,3,-0.636205090920444,-2.5713756482988,2.68221434574683,-0.0274313007379782,-0.0112276523803694,0.0296401153532137,-0.0286151186863729,-0.338976122513495,0.341401310967365,0.0220371188059767,0.199267046380956,0.201300528972221,15.383040976118,1.63935537905141,1.31687970481257,0.0633136572732457,0.240279318868335,0.12481060501739,0.502308959125152,0.0018848820162103,0.0101816473477141,NaN,NaN,NaN,NaN,3,-102.269542710179,1.66943133511458,unstable,unstable,0,0.755517264660265,0.0769357933550531,0.0507016185709203,0.94511560999016,0.344528619992271
135,1.65648640974148,2.46490478515625,-0.85271777120439,-1.40223096301868,1.65648640974148,-0.0575046464368327,0.00789749016719429,0.0580444201690917,-0.0416326313405732,-0.106421429271875,0.11662431367232,0.00752215079497594,0.141568658964946,0.143401780872408,15.4495701282055,0.779735351239216,0.956402117299258,0.176243543016859,0.240212343932967,0.177337323698583,0.433744423844303,0.157110535253593,0.0395607951629704,NaN,NaN,NaN,NaN,1.71044333906111,-120.370167332204,1.64631720920592,stable,stable,1,0.470410065438876,0.192535611499324,0.199734015152372,0.898237148381625,0.321183411689519
136,1.62754747979218,2.34980750083923,-0.749524925304937,-1.43213785525276,1.62754747979218,0.00476703036018317,0.00277216075055327,0.00551447673690044,-0.031444754236041,-0.108674206356061,0.114371683331744,0.00738470455739451,0.120649266552373,0.121562873626614,15.4197252250931,1.84902141531268,1.94757374008704,0.0269973228219852,0.0481641169355692,0.13055828482175,0.435305433155896,0.0144683521791217,0.00539877956980714,NaN,NaN,NaN,NaN,1.66149639163359,-116.91481150861,1.86911014036597,stable,stable,1,0.458325236003238,0.163519492137351,0.106505266599526,0.956670948082295,0.341974095634778
137,1.46850494194675,2.13562297821045,-0.701757895650782,-1.27474041257243,1.46850494194675,-0.0488174312216713,0.00132524070209014,0.0488354159806291,-0.0282661289071116,-0.0866302123374784,0.0925997938215198,0.00597395972873332,0.119117550370196,0.120596547622113,15.3520289277066,0.977307156372559,0.995925020115391,0.176968003669439,0.24014243073319,0.139869985978536,0.457906647155189,0.15859403328268,0.0362780458223384,NaN,NaN,NaN,NaN,1.50463962214456,-118.009747287404,2.10368585830249,stable,stable,1,0.41572062737689,0.159054717755781,0.179111084330661,0.896012031064304,0.337835561787317
138,1.57661517474475,2.35461974143982,-0.72419514124466,-1.38241617618758,1.57661517474475,-0.0561688655281893,0.0100100139498579,0.0570538502995211,-0.0305259387741519,-0.102383522503725,0.108594729366665,0.00700432554703783,0.134048407029834,0.135730767169772,15.4613841196997,0.878453649408046,0.842491372523783,0.175801505413151,0.240185715800083,0.13139408996675,0.40290466068406,0.155739560385171,0.0414173941428346,NaN,NaN,NaN,NaN,1.62198882751374,-116.427624599585,2.2212494997582,stable,stable,1,0.447576866699222,0.185510900061302,0.195584993027585,0.898577536406817,0.341602626681444
139,2.64966445530641,3,-0.493289446201824,-2.56937992931372,2.64966445530641,0.00402162672957627,-0.0101692476110555,0.0109355877083493,-0.0219446397136924,-0.342923049917555,0.344491376938477,0.0222373365346369,0.191162175356364,0.193983519812787,15.3769909204898,1.55839730087469,1.66557253191071,0.0288197362633488,0.141817774400278,0.244684124319912,0.564733909031101,0.0117379757246596,0.0115118534224694,NaN,NaN,NaN,NaN,3,-100.33835635475,1.98242701389576,stable,stable,1,0.745373892044266,0.0808303553025889,0.0579012197986637,0.960258940325012,0.291251500302261
140,1.43297823724595,2.2424795627594,-0.687058921330456,-1.24027772358668,1.43297823724595,-0.0374227442898366,0.000366813851802674,0.0374245419822925,-0.0301959992535239,-0.0917040720653269,0.0983069715226818,0.00633974493366815,0.14494960435236,0.145745608170618,15.471659594158,0.608751805679324,0.782965189094654,0.161053119390022,0.244415199874074,0.24180428345302,0.494695249432259,0.155751750739249,0.00429476108555471,NaN,NaN,NaN,NaN,1.62484937329115,-117.662804067615,1.7229608872555,stable,stable,1,0.411276651566376,0.188998964270614,0.184184110194762,0.908538521060336,0.292531429576436
141,1.4333736065187,2.17531609535217,-0.758623709252935,-1.20669621287328,1.4333736065187,-0.0259164529891785,-0.0283976046538573,0.0384458903605714,-0.034883058767906,-0.0840817827954521,0.0921643579683266,0.0059440145873975,0.118474969490231,0.119615681893597,15.4756492900502,0.54270184192946,0.850555095297112,0.151602661632733,0.246276507968307,0.230312608979644,0.420913257844865,0.15668235359543,0.0395331596692,NaN,NaN,NaN,NaN,1.58700801541868,-119.377240163094,1.69974233070419,stable,stable,1,0.406156098117038,0.173985473220304,0.188403579955315,0.913251650391139,0.297638840453492
142,2.62616336784235,3,-0.611827174079738,-2.51912163053183,2.62616336784235,0.00855616557655798,0.00260754592973483,0.00894467803496317,-0.0290910707353757,-0.330885892545261,0.333334254097373,0.0215279640546196,0.195749923162746,0.198335855694094,15.3831927862749,2.14612257645621,1.93316787179838,0.0291981723433137,0.0710739728219648,0.136522002636206,0.466233188269581,0.0194954045997946,0.00596150488903247,NaN,NaN,NaN,NaN,3,-102.460692774955,1.69915964963536,stable,stable,1,0.739977402563446,0.085753099875214,0.062284304151352,0.953349346020629,0.339323554383908
143,1.42798581880492,2.09278273582458,-0.64097916823996,-1.26050567220569,1.42798581880492,-0.0488063171712664,-0.00430526158253282,0.048995835262972,-0.0243636154229039,-0.0852976928655554,0.0899917500510691,0.00580530516253022,0.117649532683374,0.119073772199924,15.4301332897578,0.933388033957069,0.936435583633825,0.17712370669374,0.243244991178091,0.174915800600632,0.376819943896465,0.15816017056895,0.0360548124806049,NaN,NaN,NaN,NaN,1.50542716708844,-115.316950545559,2.49268863377235,stable,stable,1,0.404610972787964,0.158561876127636,0.178541375720375,0.896746675372059,0.322259644177497
144,2.64149415493011,3,-0.548329838213376,-2.55189128555029,2.64149415493011,-0.0198791091773379,0.00188801582133523,0.0199685649315651,-0.0245348134715432,-0.342378752678811,0.34423212519312,0.0222196945842267,0.197407571506964,0.199413358977219,15.4191537654375,1.70263689687941,1.44479874014236,0.0628341126011757,0.240289648967966,0.130796909284079,0.469538575565844,0.00187708110107463,0.00765070345279145,NaN,NaN,NaN,NaN,3,-100.955060334027,1.98918485597486,unstable,unstable,0,0.744281113110141,0.0843247187115111,0.0542111634768842,0.94385309226567,0.341868040318187
145,1.62571846713891,2.27774047851562,-0.754024009500152,-1.42867760433682,1.62571846713891,-0.0442856443116393,-0.00419647709534381,0.0444840276066452,-0.0317174378064184,-0.107907191015219,0.113648884207009,0.00733425430499688,0.108493414529698,0.110279305528825,15.3321721677298,1.22742906944505,1.11788082621127,0.176961556486766,0.240197274719496,0.148820791126306,0.469662028174824,0.158428813713336,0.0365475669155789,NaN,NaN,NaN,NaN,1.68254359450145,-116.590495520199,2.13082372876706,stable,stable,1,0.455580785676141,0.154860357620979,0.176619045000341,0.893091786862174,0.333857426166086
146,1.72684834075213,2.5400550365448,-0.81209939948507,-1.50530262876885,1.72684834075213,0.0050290209594476,0.0045588105975784,0.00678776884367436,-0.0377912010662464,-0.120133114417391,0.128089944028156,0.00827087243780171,0.145377692542961,0.146338883674627,15.4030683888895,1.96969514261506,1.83351099114312,0.0237583940467278,0.0513339025434654,0.131604706603132,0.415186102398523,0.00885694780389412,0.00993351992997526,NaN,NaN,NaN,NaN,1.779143412243,-117.297381887505,2.06391941054205,stable,stable,1,0.489760667602161,0.184215930841357,0.118078168816435,0.958238469068536,0.341509019287497
147,1.42036849542244,2.15605711936951,-0.69433243786955,-1.21677090866924,1.42036849542244,-0.0619775337800177,-0.00966326805627019,0.0627263377137592,-0.0294709071212141,-0.0815771385329712,0.089115493454979,0.00574909137851552,0.152148975904466,0.153532472489004,15.4200631314873,0.904534675265463,0.980909732083033,0.177206844476919,0.240192240958041,0.15867303223964,0.381334168655151,0.15914033117499,0.0342438437032112,NaN,NaN,NaN,NaN,1.48754464037965,-118.732441752547,2.07516749589939,stable,stable,1,0.409471426610452,0.177029768968946,0.189399204260308,0.896582371703802,0.329478652337938
148,1.68158228091291,2.29510569572449,-0.750195302362726,-1.49168950327967,1.68158228091291,-0.0473957604541855,-0.00412940450415423,0.047575309674131,-0.0317451994911332,-0.117570681865583,0.123017495350799,0.00793568369672688,0.119044819449161,0.120997817593464,15.4170370276409,0.999448073872651,0.892924997836822,0.176766227061676,0.240175612597349,0.145344030355971,0.439553309361019,0.157899061084357,0.0347194790429427,NaN,NaN,NaN,NaN,1.75445964810256,-115.915142708198,1.75842019670985,stable,stable,1,0.47262150509547,0.146764908439528,0.170861570652178,0.89674824090573,0.335402653175124
149,2.57315259673524,3,-0.602707011749605,-2.46854172632596,2.57315259673524,0.00608328759566952,0.00566079509534157,0.00830969247824911,-0.0281707373939394,-0.318714177315752,0.321099470773999,0.0207277080763855,0.205471485086503,0.208089315136709,15.4219560921895,1.82830934182431,1.55607143593784,0.0274371879749158,0.0540402966253156,0.114122993607137,0.428831635549123,0.0197722738842504,0.00527230061833092,NaN,NaN,NaN,NaN,2.89228411426449,-102.374592577792,1.63172604477917,stable,stable,1,0.727791888823405,0.0975641093555841,0.0692433431200871,0.959689842758697,0.349278669507939
150,1.51055690786182,2.24731612205505,-0.647309317870335,-1.34988413442427,1.51055690786182,-0.0502135139025808,-0.0122063900065452,0.0516758447965445,-0.024577041836472,-0.0978805296969153,0.102122898965248,0.00658609729778856,0.127116759699432,0.128742273791568,15.462024787325,0.844967915675413,0.662496251026133,0.176043998415993,0.240182081021172,0.156881279995613,0.369206123150656,0.159192364736414,0.0368109290494299,NaN,NaN,NaN,NaN,1.57055207434036,-114.528428258895,1.93112846642984,stable,stable,1,0.428563630188134,0.175244728072843,0.189284791330389,0.900133639482206,0.330274986668616
151,1.4812009318563,2.135586977005,-0.647696260174512,-1.32044066473438,1.4812009318563,-0.0445403467276664,0.00765805393672712,0.0451938964542621,-0.0236778812360976,-0.09267001863128,0.0966390319903922,0.00623231514441486,0.110980403051951,0.112421705764493,15.4404015338244,0.705908243056166,0.773761035501714,0.176548437881594,0.240142559794109,0.136348387822482,0.468327521339938,0.158017495821091,0.0374889413621043,NaN,NaN,NaN,NaN,1.53043490962982,-115.371127707452,1.93631950825908,stable,stable,1,0.417471256314578,0.155522407841741,0.177175785161244,0.900099808156248,0.339400716523342
152,2.61582180528736,3,-0.662456522626619,-2.49717606162109,2.61582180528736,0.00636948083638756,0.0060862436213691,0.0088098040581936,-0.0321054301146161,-0.324658074814092,0.327693650713426,0.0211622650145065,0.194333749158167,0.196834314313479,15.3726224182793,2.06991840647871,2.02479614564748,0.0227030575291951,0.0582436518354214,0.136337805876029,0.444842562640476,0.00676353726389728,0.00636871396460572,NaN,NaN,NaN,NaN,3,-103.235441300153,2.12705143510945,stable,stable,1,0.73691934427266,0.0880552245543452,0.0581550472814686,0.956475714040125,0.339405419610654
153,1.48472563680765,2.12984657287598,-0.694838381012885,-1.30040116321041,1.48472563680765,-0.0413811811521612,0.00237330574565733,0.0414491825457433,-0.0270584029726655,-0.0901953060567994,0.0952656250319707,0.00614517341410781,0.108573188957554,0.110038208397589,15.4519042755905,0.91265965422754,0.911658102196324,0.177316710907911,0.240167418460177,0.169776864100376,0.429767776136438,0.158279145566835,0.0355561261900154,NaN,NaN,NaN,NaN,1.53053947457772,-117.277382087191,1.56961147717761,stable,stable,1,0.417934478161557,0.152751227415427,0.174926523800582,0.897007719317,0.324543615955389
154,2.68350179951647,3,-0.670978891900435,-2.56120516495781,2.68350179951647,-0.031905008472197,-0.00934655460492196,0.0332458666392343,-0.030557577583396,-0.336705597323499,0.339475913216702,0.0219133917317064,0.204373094711791,0.206447779910621,15.4090426096695,1.63841702066619,1.49610685167917,0.0631645101220948,0.240279386700427,0.121877960650143,0.394068081480584,0.00189873712245202,0.0086518448304948,NaN,NaN,NaN,NaN,3,-102.931426400997,1.82883252045214,unstable,unstable,0,0.756890035853183,0.0773071706593205,0.0503743109540337,0.943789343084811,0.345832017488825
155,1.63586442822578,2.34170079231262,-0.764147976224723,-1.42659589398475,1.63586442822578,-0.0561403555759728,0.00886161174471999,0.0568354439316772,-0.0339511141104082,-0.108450048483131,0.115754825928104,0.00746564048754523,0.135842161403457,0.13768671050713,15.4380119723798,0.846594555841194,0.802625809948121,0.177033939548339,0.240185113302261,0.129800956535562,0.441840606964444,0.159883111404602,0.0371263503132745,NaN,NaN,NaN,NaN,1.68981233095603,-117.495671617653,1.58989462199657,stable,stable,1,0.463767856294967,0.169233013307014,0.186099459631484,0.898524870208914,0.342310685984195
156,1.61652836731844,2.37583136558533,-0.712746386728963,-1.43414960245755,1.61652836731844,0.00212529457169771,0.00183246386048744,0.00280620755049948,-0.0295369310139082,-0.109351640805163,0.114796127541586,0.00741252632429418,0.134586324319824,0.135522705077627,15.4181736214855,1.95808187733849,1.85582343595171,0.0230787080760925,0.0425684203441504,0.134869905012568,0.394705901569595,0.00507480580393079,0.00639699401881117,NaN,NaN,NaN,NaN,1.64682358488304,-115.230680905002,2.10344142460036,stable,stable,1,0.458178772300442,0.171357645994308,0.107396236485981,0.958494247071817,0.340057819994414
157,1.65623516764417,2.37272071838379,-0.727195046879434,-1.47111154283264,1.65623516764417,-0.0612768038852697,-0.00954114821858636,0.0620151610795525,-0.0307303017708614,-0.116201593916168,0.121748007357934,0.00785388005948757,0.130026472957918,0.13185962100289,15.4024128541737,0.98476156829413,0.961979666535682,0.177300714095697,0.240195017229826,0.177968017842132,0.420421577650007,0.158769337265495,0.0355209951284442,NaN,NaN,NaN,NaN,1.69535374865113,-115.407012304463,2.33747239892839,stable,stable,1,0.468034635572356,0.172578695114333,0.187028092465628,0.896053818964203,0.320903103181275
158,1.61728049124647,2.50057697296143,-0.763397898413436,-1.40822194370188,1.61728049124647,-0.0580758000461876,-0.00213046225335121,0.0581148640230511,-0.0335178732441132,-0.106347320610206,0.113398357348529,0.00731396060641294,0.138615712723333,0.140445873419368,15.4391826240328,0.735348026783434,0.875653911225912,0.1762299379642,0.240190462813553,0.131007632285982,0.406314239748213,0.154918588242055,0.0424085708383877,NaN,NaN,NaN,NaN,1.65925020896733,-117.23842078182,2.25273825671918,stable,stable,1,0.4593639723496,0.209396100123424,0.209911664446099,0.899227158647827,0.341774385650675
159,2.58032622145969,3,-0.740398931528997,-2.43845282193234,2.58032622145969,0.0086588130054026,0.0056699812072436,0.0103500593985264,-0.0377200685101704,-0.310596043098031,0.314693236960669,0.020323572872012,0.201874981846608,0.204271787082337,15.3557846792238,1.96310778430576,2.09723084583051,0.0218394646652249,0.0552106003514669,0.130842638558965,0.438535697748055,0.00139409058408211,0.00475130878913662,NaN,NaN,NaN,NaN,2.88835322200788,-105.56852442763,2.15649682151995,stable,stable,1,0.728941349805717,0.0963241110613007,0.0601418111025231,0.957177607002031,0.341847716196015
160,1.48952870070934,2.21056914329529,-0.649100661034167,-1.32404975415431,1.48952870070934,-0.0459389394451007,0.0152133964120883,0.0483924951591873,-0.024743755502875,-0.094764089990988,0.0993679870628535,0.00640916975140707,0.123721347895495,0.125190625686141,15.4068896815767,0.904066362587951,0.863867550957678,0.176807899561793,0.240187637349634,0.144104446207138,0.460492154159885,0.158971129344365,0.0353751032920053,NaN,NaN,NaN,NaN,1.56544004446909,-115.546181583882,2.1019438718878,stable,stable,1,0.42224577865972,0.171106057027689,0.186181143405141,0.897705140898388,0.335953579463494
161,1.65061711864983,2.30225849151611,-0.763431053622295,-1.45016196242951,1.65061711864983,-0.0488148967322587,0.00046628712544966,0.0488171237033117,-0.0326224119904721,-0.111096794370229,0.117226279797782,0.00756111214247289,0.116776882886988,0.118585125742255,15.4229519255879,0.944487993242572,0.792329408301581,0.177537209248012,0.24017543505982,0.122119861530453,0.411131088955024,0.147579491183845,0.0270906233227097,NaN,NaN,NaN,NaN,1.70136515468512,-117.053321105748,2.115773627279,stable,stable,1,0.46388159012174,0.155569114907186,0.168783489668622,0.89758497293529,0.345724505986465
162,2.42576670523771,3,-0.615334429487826,-2.31336674867255,2.42576670523771,0.000164117609074327,-0.00195959993497426,0.00196646039745513,-0.0297438547053868,-0.299887502750071,0.302894863097119,0.0195413757523088,0.21043218544096,0.211769232151985,15.4484475835981,1.20874499602919,1.0632515995574,0.0267121140924698,0.122961156500877,0.280334460549688,0.648930679136158,0.00960649399536991,0.00837229741745937,NaN,NaN,NaN,NaN,2.85921158454158,-105.062668776886,1.5861316635786,stable,stable,1,0.689224967827121,0.129563009061048,0.0850518301116269,0.968792541131299,0.275406906422361
163,1.69882817767762,2.51679182052612,-0.796138548188108,-1.48973007352888,1.69882817767762,-0.0490102190735931,-0.00501400887261781,0.0492660314884026,-0.0352063946911706,-0.117276798430947,0.123644032648756,0.00797297801804029,0.113590100336019,0.11554277399505,15.4801507634439,0.679321879036909,0.631061264865853,0.17639531425541,0.240184926192116,0.140156036846302,0.332841701750956,0.159154052120036,0.038884851058835,NaN,NaN,NaN,NaN,1.71874998102098,-116.787170824054,1.86806301576446,stable,stable,1,0.476129402179708,0.193073925413787,0.200719435363421,0.901506475313059,0.33770842806831
164,2.46318925365912,3,-0.746143759900617,-2.31305821614924,2.46318925365912,-0.0153660517597876,0.00970563085346354,0.0181745651102901,-0.0392762399265833,-0.290825381553059,0.295679661533492,0.0190884626315127,0.225929264768087,0.227579263795082,15.3970477019692,1.71092783673253,1.49102087220795,0.062691531077851,0.240318215541016,0.136738926558117,0.413497037646358,0.0019409724118253,0.00959703394307337,NaN,NaN,NaN,NaN,2.64390369362176,-106.697557678757,2.09994887900606,unstable,unstable,0,0.702366320401449,0.12411442153025,0.0788211378481599,0.943496066033685,0.339227143751948
165,1.58496103818352,2.29307174682617,-0.688352051554114,-1.41113191942224,1.58496103818352,-0.0555861118219022,0.00073450964027767,0.055590964480648,-0.0279731414808205,-0.107395621707223,0.112444943208668,0.00725281601597438,0.128949349999756,0.130691794295331,15.4367015505197,0.950540990406403,0.801185397617829,0.175839328733831,0.240192294978984,0.151394660009107,0.372380940195991,0.158709947023035,0.0365731736223352,NaN,NaN,NaN,NaN,1.65443912380199,-114.70021335318,1.95653065206145,stable,stable,1,0.448794635708005,0.169516586266048,0.185547041854757,0.898316771155751,0.332713484440397
166,1.6527684612019,2.46389245986938,-0.725573278586296,-1.47199431671971,1.6527684612019,0.00317773931519749,0.00398896026585607,0.00509998344682906,-0.0296141594576238,-0.114149027582514,0.11912831170091,0.00769164147691783,0.118213875552695,0.119149693983491,15.4106077161411,1.72191233996256,1.98063372314072,0.0267672913418729,0.0605592814461497,0.130640064806261,0.493518595112243,0.0160312778386322,0.00499044257982841,NaN,NaN,NaN,NaN,1.6985678915868,-115.061450151433,1.88791694036192,stable,stable,1,0.464568195117205,0.183437896665436,0.119002456764652,0.957524920976109,0.341937748974995
167,1.51060662479014,2.38635015487671,-0.702213228459977,-1.32242730939141,1.51060662479014,-0.0485615750586936,-0.00150218989198415,0.0485848036597114,-0.0283326534304073,-0.0940669739125081,0.0997018182393162,0.00643093833686152,0.128916450063893,0.130391743473505,15.420361085703,0.909534354372731,0.8948711540521,0.175904098856033,0.240164256009014,0.142067694910387,0.404796720021523,0.158891298955677,0.0368080678077069,NaN,NaN,NaN,NaN,1.53242316823457,-117.234742424214,2.15567044157217,stable,stable,1,0.428906781972072,0.205949508273758,0.207572811985742,0.897870478720074,0.33685880226205
168,1.73892858564454,2.77161812782288,-0.872369133331022,-1.47801902855558,1.73892858564454,-0.0698955805480661,0.00539915171005726,0.0701038017466914,-0.0461686834904326,-0.119800379662574,0.131927521387296,0.00850939139012251,0.171652134417384,0.173677988412084,15.4564867125743,0.843188036420298,0.958277225134212,0.176163161176598,0.240260091942874,0.170209718008315,0.415229679274529,0.155554882433943,0.0408749418766213,NaN,NaN,NaN,NaN,1.76822611766951,-118.998443980142,2.30478196260343,stable,stable,1,0.498449887187627,0.245207510643687,0.231123624918049,0.897764049499487,0.324351236440749
169,2.47555938014219,3,-0.777448659810308,-2.31478326149856,2.47555938014219,0.00535255770512749,0.00703086162426848,0.00883645229525576,-0.0412480200488491,-0.282736475943561,0.288085867332966,0.0185995713234316,0.220727071729968,0.222910728278523,15.3837547796961,1.8426460374486,1.76646590399216,0.0210365195956657,0.0546393019660718,0.123833742168102,0.434364627544946,0.00106047502919023,0.00666301963754594,NaN,NaN,NaN,NaN,2.66549340284327,-107.193726307889,2.19987067438157,stable,stable,1,0.704731313693621,0.119619155722138,0.0746657319003135,0.961124432090847,0.344962781258622
170,1.72663676298705,2.47637319564819,-0.763863711785046,-1.53036762787683,1.72663676298705,-0.0615828076185274,-0.00625641673665387,0.0618997976132656,-0.0339784376907569,-0.125165619748371,0.131509316772057,0.00848182838969386,0.149413014767622,0.151497002005135,15.4514069548657,0.889607079128058,0.808018689660845,0.175883062231137,0.240214183928036,0.161401868192036,0.405975395336756,0.156173065770773,0.0393839657763375,NaN,NaN,NaN,NaN,1.77840570795084,-115.675983280215,2.33459580337485,stable,stable,1,0.490735870530906,0.180038993577857,0.191755089700877,0.89871998070109,0.328265836359095
171,1.62240742557001,2.54455423355103,-0.788844603688883,-1.39266231153375,1.62240742557001,-0.071001440827672,-0.00804161561303979,0.0714553859500688,-0.037469431140611,-0.1062032040787,0.115592975512161,0.00745518440572751,0.16032687629356,0.162016978891091,15.4736420867853,0.773208481949708,0.865573618986763,0.17559015316478,0.240202208849013,0.150865988562414,0.402978470381826,0.155420706884215,0.040800835905639,NaN,NaN,NaN,NaN,1.68221562017466,-118.331726157389,2.02923443815571,stable,stable,1,0.46504537593022,0.220583185886575,0.216262448860313,0.899328778338823,0.332948449527816
172,2.41882938724696,3,-0.847100512791336,-2.23303659445791,2.41882938724696,0.00911997064155612,0.00714660115797029,0.011586534107055,-0.0459656935280226,-0.264726806797903,0.271345436912047,0.0175277306712355,0.217824600752812,0.219839361319462,15.3798331344242,2.239962903665,2.20339835697219,0.0232661371206128,0.0703523690473487,0.140920606241786,0.493781342061471,0.00391865113495465,0.00474289938148281,NaN,NaN,NaN,NaN,2.5789773418386,-109.450212225276,2.10494637407166,stable,stable,1,0.688989042196416,0.13288758578906,0.0831988648842579,0.953454807248973,0.337368619448095
173,1.56054367527768,2.26283359527588,-0.741643811651116,-1.36221952907621,1.56054367527768,-0.0389198403740365,0.00518995733349389,0.0392643557423774,-0.0305265400039615,-0.098146869992202,0.103874635227184,0.00669904141074317,0.105415232904189,0.107106591027956,15.4430303466739,0.779780610770205,0.725579937111525,0.176118614206209,0.240169997348871,0.143346041357322,0.432018618302869,0.158266156908744,0.0364822944953876,NaN,NaN,NaN,NaN,1.60572032516396,-117.151648626796,1.52126205957931,stable,stable,1,0.43756629827964,0.16521369721903,0.182735021420496,0.900112860020682,0.336290648285635
174,2.31455330160058,3,-0.751187254360997,-2.15759694767426,2.31455330160058,-0.0221280784011055,-0.00643743281103091,0.0230454419554499,-0.0372063451135057,-0.248825828176502,0.253784550488655,0.0163836700829995,0.23086941844709,0.232317313279071,15.3969894794314,1.72716680368427,1.58409301377779,0.0630609818305503,0.2401476776835,0.14134985822287,0.481721042545176,0.00194733539772954,0.00993735044486639,NaN,NaN,NaN,NaN,2.36078838964489,-107.709824257803,1.65089525636607,unstable,unstable,0,0.663677676415968,0.158450504831703,0.099549367277964,0.942452467661809,0.337177840789836
175,1.65597441212443,2.25893616676331,-0.800142999315937,-1.43615407555384,1.65597441212443,-0.052131610138295,0.00248543339491941,0.0521908244308496,-0.0355827945662916,-0.109371840964669,0.116569939189434,0.00751803829272957,0.124356745212419,0.12619982317712,15.4638745542773,0.742519291413222,0.833733109491653,0.175749628184978,0.240207867023171,0.153078250794438,0.401297305746133,0.155021028830526,0.0416557755671175,NaN,NaN,NaN,NaN,1.70036876942666,-118.357386427334,2.15124352572005,stable,stable,1,0.466833141201938,0.14523471260607,0.17118661735111,0.899740345614687,0.331965221869139
176,1.76858472425403,2.48168468475342,-0.890728468357003,-1.51524062816101,1.76858472425403,0.00415841075965509,0.00432248762623067,0.00599802295135093,-0.0436042407223848,-0.120312275497363,0.129599060581129,0.00836883299849525,0.120771248095795,0.121830859985926,15.4023533858795,2.16557002142973,1.84663445609734,0.0283962067218724,0.0796371480497959,0.132591754557614,0.512741776142602,0.0213447401518591,0.00676310688642653,NaN,NaN,NaN,NaN,1.79740384781532,-119.424856454763,1.55746252052993,stable,stable,1,0.495988765131594,0.161547128653442,0.108874139965734,0.954277432887065,0.341070331307727
177,1.96116511133693,2.70974922180176,-0.992011150056675,-1.67611129849196,1.96116511133693,-0.0492760407613735,0.00753956758880424,0.0498495062417141,-0.0543561660278049,-0.149018116637334,0.160926407497789,0.0103805391430172,0.142328640830392,0.144787246555609,15.4363478114267,1.06734343362291,0.930913816970731,0.175098154668416,0.240249254300822,0.162016496523383,0.428419039213099,0.15543784974085,0.0396782055816019,NaN,NaN,NaN,NaN,2.00389774569212,-119.82849383685,2.47138162319663,stable,stable,1,0.551934812334304,0.1775705009989,0.190054227766361,0.896750329982556,0.32799266821183
178,1.81564178418469,2.60234236717224,-0.963385325396548,-1.52365427521422,1.81564178418469,-0.048550734743687,0.00330483726925641,0.0486630845048701,-0.0508540094901814,-0.123141241276378,0.135514772216225,0.00874048957494095,0.125777967921033,0.127939251389154,15.4431949630784,0.858699737158003,0.924186342030099,0.176004677166432,0.240228408029415,0.175277015388625,0.424049414725707,0.15876814485414,0.0366143561457585,NaN,NaN,NaN,NaN,1.88108853169074,-121.75609313085,1.59518274068291,stable,stable,1,0.509758992727081,0.185929196664759,0.195435449259759,0.897989270794592,0.322099104271722
179,2.49877893765236,3,-0.656100145251335,-2.37627205680545,2.49877893765236,0.00482788007326603,0.00573028098961179,0.00749296645006138,-0.0320726015816937,-0.297545291226385,0.300826633423357,0.0194310696967802,0.219472390513051,0.221841616732283,15.381695688749,2.38342923910751,1.71563204355982,0.018515898961544,0.0469589798242105,0.149655219248431,0.421002748090465,0.000260049453727798,0.00706126583577211,NaN,NaN,NaN,NaN,2.73243854491602,-104.018907315581,2.29833798931862,stable,stable,1,0.710709373387085,0.114148449544064,0.0711723802926184,0.958535140441128,0.33348656922292
180,1.7920826177469,2.62425708770752,-0.90263224255699,-1.53473753118572,1.7920826177469,-0.0504700044301411,0.00570405784569416,0.0507913144453408,-0.0449909169406569,-0.124468470220944,0.13411389958311,0.00865043568549745,0.126707542153648,0.12893657484815,15.455485762018,0.992441527540064,0.807312624885343,0.176101114009608,0.240232704184083,0.131082315311253,0.385387811308324,0.155195801138476,0.0418113775547535,NaN,NaN,NaN,NaN,1.85620598441334,-119.444845846151,1.88240662191792,stable,stable,1,0.503676013035471,0.196550996722784,0.202110646943409,0.897808517511854,0.341741193194999
181,1.81984873106016,2.92945766448975,-0.893969677299969,-1.55796834436139,1.81984873106016,-0.0716121557177982,-0.00638361117040695,0.0718961149028591,-0.0477328506390493,-0.132592856847444,0.144520797506051,0.00932233689534333,0.184119174370461,0.18627398136317,15.4049678635881,1.01092510561472,0.796431054157747,0.175993801801362,0.240258050999781,0.148780181538086,0.37253541504772,0.156395955265171,0.0406645976745334,NaN,NaN,NaN,NaN,1.8944468966032,-118.434379956689,1.81777078363132,stable,stable,1,0.522547791222009,0.262842964420515,0.242002218530599,0.89780244355825,0.333875474871962
182,2.42971602969345,3,-0.438074288234149,-2.36014087661234,2.42971602969345,0.00524539430467343,0.0067937909028603,0.00858310877498869,-0.0180792865066011,-0.295059930045735,0.296206686292548,0.0191325368544467,0.223298114310927,0.225649065302769,15.3918389950937,2.22806847001111,2.01964710313393,0.0181105112646002,0.0500421293398389,0.134962619450741,0.436435650296777,0.000450116613504775,0.00753454181863677,NaN,NaN,NaN,NaN,2.61222307005049,-99.3162222201901,2.32220512425656,stable,stable,1,0.693054087645474,0.129887463261055,0.0808723631734525,0.957569836292989,0.340016613577449
183,1.80408128814117,2.70453763008118,-0.955128110992185,-1.50051080538924,1.80408128814117,-0.0741477504753542,0.00987253048500869,0.0748021106569381,-0.0541896808934547,-0.124275522448089,0.140224611419488,0.00904529493369636,0.183175716307866,0.185334240349005,15.4469504214309,1.01414999901375,0.943818168961142,0.176334946055122,0.240296872278046,0.165238945642731,0.414805043477105,0.159889929325979,0.036114544587351,NaN,NaN,NaN,NaN,1.87171872539055,-121.350351106356,1.75185214051446,stable,stable,1,0.518155191574114,0.216316397223606,0.213984590813837,0.896448491366922,0.326560468603231
184,2.45602920498748,3,-0.24990927501601,-2.41012060735639,2.45602920498748,-0.00616360001393705,-0.00326642753883486,0.00697563717507323,-0.0106320405519337,-0.310176799863264,0.310704058164736,0.0200409150971502,0.217607013361548,0.218724448548025,15.4499629117598,1.11706094522487,0.681744673339773,0.0721100003289965,0.247021774041051,0.318192100801133,0.657825584951711,0.0717381707275443,0.121531339980195,NaN,NaN,NaN,NaN,2.70378156394852,-95.0700514349474,1.57979708944102,unstable,unstable,0,0.698686011039601,0.123672295693246,0.150280223388665,0.949811527118208,0.25858128853283
185,2.08182061685098,2.86791634559631,-1.19234606228738,-1.68875758542083,2.08182061685098,-0.053753276749132,-0.00896020356812613,0.054494953979713,-0.0774210377097421,-0.15092515594787,0.173217035381013,0.0111732485096944,0.141212670923631,0.143971202850573,15.4551713973276,0.97771721440192,1.00506314070848,0.176229862114542,0.240294756381511,0.164416346705135,0.364722718825182,0.159679491894082,0.0359904195063545,NaN,NaN,NaN,NaN,2.15708888634091,-124.745911655981,2.36561445659258,stable,stable,1,0.58394640506371,0.186862280530647,0.196173456657463,0.89630608043829,0.326926068131051
186,2.05057465790905,3,-1.12584080812896,-1.67940551985585,2.05057465790905,0.00860344792310533,0.00530166863764071,0.0101057907413982,-0.0744551552847947,-0.153708779913172,0.177332539921429,0.0114499532565724,0.219760759620782,0.221067278164562,15.4066240616148,1.93083169106014,1.76434376477961,0.0269756493794027,0.0540499721285652,0.12540885335808,0.447150775180343,0.0155460791885092,0.00501283065267945,NaN,NaN,NaN,NaN,2.10837557196529,-122.363616262261,1.8536755539505,stable,stable,1,0.591033364408659,0.215473430273054,0.138016274202124,0.957478653871558,0.344262731840853
187,2.06727837066393,2.81335401535034,-1.12290686903396,-1.72083090494464,2.06727837066393,-0.0522928425281963,0.00124998556164176,0.0523077799527284,-0.0688625409716032,-0.15678106054654,0.173886818340141,0.0112171687977738,0.138650967169037,0.14134864501485,15.4332515158179,0.986975576924906,1.11072614738285,0.176137017864897,0.24030921919952,0.177981837556688,0.458029191615438,0.158268053562227,0.0356711244648371,NaN,NaN,NaN,NaN,2.09849345512064,-122.244984043751,1.54706633240802,stable,stable,1,0.579543961180017,0.177456779712444,0.189786742953447,0.895449548947991,0.320896961085916
188,2.0125284911813,2.73361277580261,-1.12866571017704,-1.65227539685078,2.0125284911813,-0.0579140319514276,0.000764957263428907,0.0579190836986036,-0.0702636524756023,-0.146270330703469,0.16497666695723,0.0106425685200749,0.138399469304228,0.1411638364329,15.3948424453374,1.01998592456195,1.07540438542361,0.176578396084003,0.240294356601887,0.171138511947992,0.455384491888538,0.159497465862494,0.0356479825128651,NaN,NaN,NaN,NaN,2.08252249604559,-123.526280590972,1.70906642470172,stable,stable,1,0.564907031601592,0.172862462717873,0.187568142968228,0.895247020950969,0.323938439134226
189,2.50813784806625,3,-0.783277212669125,-2.34751004791128,2.50813784806625,0.00772668819531719,0.00436416894490381,0.00887398901550576,-0.0414635349733692,-0.289691736208052,0.294924176068485,0.0190446213883877,0.211649616308002,0.213964918577007,15.4110487923575,1.95683244317269,2.03651422184214,0.0265497990000007,0.0539910052917845,0.131187441176216,0.496653574503212,0.0133581594606617,0.00667255310603163,NaN,NaN,NaN,NaN,2.71977714743149,-106.924123588306,1.89742976019168,stable,stable,1,0.711629743199734,0.11229588217127,0.0757408720107042,0.955348805274883,0.341694470588348
190,2.0197720567652,2.66104054450989,-1.10101195049312,-1.67588407316033,2.0197720567652,-0.0538544695555949,0.0140014643085224,0.0556448101254495,-0.0664086578469916,-0.148175715714385,0.165317831730531,0.0106629566506869,0.136028671139265,0.138655931278851,15.435268997103,0.962971740249394,0.877308921150035,0.175688936139604,0.240233749450146,0.122307184326639,0.411079694638067,0.155509102888773,0.0404028638530142,NaN,NaN,NaN,NaN,2.06580628279313,-122.281189709167,1.75009138344549,stable,stable,1,0.566337068059825,0.154486958265553,0.176499282290792,0.897696183876345,0.345641251410383
191,1.99641525105342,2.70834755897522,-0.977767575555281,-1.72399253627933,1.99641525105342,-0.0589267549972118,-0.00246038313609532,0.0589780971181489,-0.0537726899666623,-0.157886586386737,0.169183845845766,0.0109129745234088,0.143814743188851,0.146423448541865,15.4592600290235,0.976404076222295,0.950330559993827,0.175808780817051,0.240280985898356,0.166322024495556,0.443019078528687,0.156294951525111,0.0408117580356279,NaN,NaN,NaN,NaN,2.07634549688122,-118.754548572983,2.04791508611315,stable,stable,1,0.561662089989285,0.170997420420732,0.186903514438171,0.896956980306919,0.326079100224197
192,2.48296967677049,3,-0.967306274438149,-2.25301463326829,2.48296967677049,0.00785476482799783,0.00616014592489891,0.00998222061062569,-0.0576337550904005,-0.268466376269634,0.278133728567922,0.0179574344232391,0.216491724226986,0.218620630384592,15.4111670847165,1.73530956481623,1.92071013205945,0.0271042421160298,0.0506452177294028,0.131005260731592,0.399594631465529,0.0204322861292961,0.00464044855642222,NaN,NaN,NaN,NaN,2.68099720733185,-111.612146549017,1.71874847368946,stable,stable,1,0.705849373215717,0.118161896505254,0.0816655897993161,0.957722009895105,0.341775439674848
193,2.0375358631482,2.86664438247681,-1.06788868580959,-1.71078990469008,2.0375358631482,-0.0612801735877728,0.00259860345154724,0.0613352461056933,-0.0652740814063551,-0.157080904054807,0.174227076733287,0.0112390728911839,0.165419947945051,0.168240014826487,15.4111591865767,0.978549983444763,1.04264528506877,0.176873170324217,0.24030668261923,0.131890250096079,0.451218689509682,0.158596051774274,0.036381048634155,NaN,NaN,NaN,NaN,2.11900443077325,-120.570247299149,2.0418839163797,stable,stable,1,0.576990899804817,0.197794211968314,0.20239313353349,0.895682594870999,0.341382111068409
194,2.50151862160673,3,-1.00838434572224,-2.25498424840614,2.50151862160673,-0.027997919988778,-0.0066011611167473,0.0287655845027921,-0.0585713237455778,-0.267231287012889,0.277486571977018,0.0179135987069289,0.221682812874199,0.223278763001369,15.3930557924353,1.83893695358403,1.5677313943011,0.0635623965525657,0.24026913318185,0.138171098853973,0.47234918238681,0.00191253786555094,0.00948661170350159,NaN,NaN,NaN,NaN,2.61715863552686,-112.220792726245,1.70316573471148,unstable,unstable,0,0.711727385028736,0.117432000630663,0.0747588941906233,0.941452121847477,0.338590622731567
195,2.02960970817796,2.84137749671936,-1.01617503272279,-1.73358417914713,2.02960970817796,-0.0795876074900449,-0.00215654656116868,0.0796168195738811,-0.0591388264881037,-0.160519374789795,0.174443245688209,0.011252798821184,0.17165465067397,0.174397963072415,15.3967950971349,1.04459332883689,0.927927695902203,0.17639349281681,0.240324038231642,0.178490241184581,0.422918147216934,0.155704144236349,0.0421056417405173,NaN,NaN,NaN,NaN,2.08957514186263,-119.371133784789,2.07679301618449,stable,stable,1,0.576108848128606,0.197244169343693,0.202859485940135,0.896304874111502,0.320671003917964
196,1.92463520119421,2.91319584846497,-0.908771147218318,-1.66541805976225,1.92463520119421,0.00741189855620737,0.00885519531599142,0.0115477584098328,-0.0504761963732249,-0.151066351822952,0.163369031558225,0.0105500347129147,0.208834222020579,0.210105961101599,15.3660338385943,1.83112671337841,2.0772679722058,0.0279153805752362,0.072970504013678,0.133484223466667,0.504640133908684,0.0208825613274628,0.00589275645988887,NaN,NaN,NaN,NaN,1.98818975952798,-117.123132335998,1.5,stable,stable,1,0.55525724587211,0.224543234677722,0.146149899705263,0.955333494325649,0.340673678459259
197,1.91947923479853,2.70025968551636,-0.857970329325289,-1.69669603753665,1.91947923479853,-0.0649313662033628,0.00441741050620836,0.0650814553664527,-0.0425492735527303,-0.15410241327838,0.162194856673726,0.0104636819862389,0.161218359218093,0.16386394390805,15.4145686053261,1.10975371368759,0.950121323270969,0.177088582744255,0.240273610780488,0.186677480781729,0.398036261159002,0.1588473174491,0.0379672012957465,NaN,NaN,NaN,NaN,1.96491164649544,-115.571452830696,1.67626039057353,stable,stable,1,0.544633918061219,0.187607201562026,0.196969383709007,0.895270976194626,0.317032230763676
198,1.80622502621388,2.44211554527283,-0.791932739107915,-1.61045513944457,1.80622502621388,-0.0540941015011478,-0.0033951550217888,0.0542005433075948,-0.0351631928424991,-0.137950073829248,0.143593931498162,0.0092631100303463,0.125503693664043,0.127746272515593,15.3876542851527,1.00159687481171,0.972829303827037,0.176417595975231,0.240227241448627,0.16989074502559,0.518856268047842,0.155427485222229,0.0396175569044031,NaN,NaN,NaN,NaN,1.88489007794024,-115.359098105949,2.40074308111891,stable,stable,1,0.507209261493487,0.153012133061322,0.175292546486658,0.896277853465937,0.324493002210849
199,2.47618957227688,3,-1.11597850186848,-2.175057747625,2.47618957227688,0.00566474461196469,0.00592806530101556,0.00819946886888948,-0.0734357600817539,-0.250263838017458,0.266042448926831,0.0171752825255779,0.212915981286373,0.214925338069641,15.4261580044975,1.90810543079436,1.78481249782525,0.0186162479286803,0.0501756194565037,0.13032968468721,0.409827034600713,0.000278578605313474,0.00877553274993992,NaN,NaN,NaN,NaN,2.68563096804021,-116.007396076949,2.28528304012561,stable,stable,1,0.703302286887762,0.119360582196999,0.074931264849832,0.961676092310791,0.342075695694573
200,1.89088789997874,2.64283204078674,-0.819667761500545,-1.68915860093421,1.89088789997874,-0.0560009181119309,-0.00925684990655719,0.0567608324425543,-0.0384563892519236,-0.15235326454906,0.158632882420713,0.0102320781137041,0.147174127020694,0.149628340128554,15.4076750845023,1.04816210873274,0.828070275714569,0.176900013069388,0.240259904207801,0.163257412662351,0.426505575008905,0.159281738153852,0.0357730564633442,NaN,NaN,NaN,NaN,1.97177383483815,-114.893051128023,2.02038496213974,stable,stable,1,0.534162441353375,0.179593584296269,0.191556418370185,0.896808167587506,0.327441149927844
201,1.82017799351839,2.42854166030884,-0.762084612358273,-1.64092805114651,1.82017799351839,-0.0528369610966946,-0.0142689054214593,0.0547297553425938,-0.0328475008813626,-0.142416736611703,0.14718941897099,0.0094966467440101,0.123418944061334,0.125816096973833,15.3412478404025,1.12040466025175,1.01776905368508,0.176417950450799,0.240216728102127,0.136830798698681,0.49030090060923,0.155165643111635,0.039129309861005,NaN,NaN,NaN,NaN,1.87135485490829,-114.338554000358,2.30105783242704,stable,stable,1,0.510544017666338,0.146915613507325,0.171340716103467,0.894991088450811,0.339186311689475
202,2.33378262543758,3,-0.951238341191006,-2.10120484127915,2.33378262543758,0.00649237177568258,0.00987108537943875,0.0118147880997439,-0.0556456265599238,-0.236093629733459,0.246007903155995,0.0158860590641349,0.225646864914493,0.227568718857737,15.4016744309441,1.88908527958084,2.02637270446885,0.0245200254815382,0.0573899732747199,0.132722542764714,0.509935818205725,0.0106614794618126,0.00799560034866464,NaN,NaN,NaN,NaN,2.45321237213052,-112.912057666969,2.02328380910239,stable,stable,1,0.667855777221569,0.152064953761497,0.0988848986091377,0.956975674527412,0.341012203215683
