scenario_id,mean_wind_speed,max_wind_speed,wind_velocity_x,wind_velocity_y,wind_velocity,wind_acceleration_x,wind_acceleration_y,wind_acceleration,wind_body_force_x,wind_body_force_y,wind_body_force,mean_wind_body_risk,mean_wind_gust_risk,mean_wind_risk_raw,min_thrust_margin_n,mean_abs_roll_deg,mean_abs_pitch_deg,mean_abs_vz,max_abs_vz,mean_tag_error,max_tag_error,stability_std_z,stability_std_vz,mean_imu_ang_vel,max_imu_ang_vel,mean_imu_lin_acc,max_imu_lin_acc,wind_speed_cmd,wind_dir_cmd,hover_height_cmd,gt_safe_to_land,label,success,onto_wind_condition,onto_gust,onto_temporal_pattern,onto_drone_state,onto_tag_observation
1,2.0237392041148,2.741619348526,-1.25119151478438,-1.57239326338047,2.0237392041148,-0.0527278630334541,0.0214510676122241,0.0569242992207977,-0.0846843093422832,-0.130162337485702,0.159162300498024,0.0102640671098414,0.123140552004208,0.0441270125781515,15.4527317802146,1.01548712111144,1.08471431815495,0.176102647466896,0.240276725440085,0.142223873160024,0.429975582371061,0.15668294145211,0.0410811437929581,,,,,2.0716688985117,-127.374480982322,2.31472368639318,AttemptLanding,AttemptLanding,1,0.548489190279576,0.171959154016334,0.187750953020298,0.895447093529459,0.336789389706656
2,2.30267179290454,3.0,-1.39040536227207,-1.79676040043699,2.30267179290454,0.0105895373497356,0.0053988032949611,0.0118863526070502,-0.110140153484997,-0.175013976331778,0.216159698150619,0.0139490062151697,0.227067252206423,0.0778844800125457,15.4379920229526,2.17600753953944,2.15699249813595,0.0158375099513025,0.0826954111183155,0.146667744625445,0.485398912331644,4.14310898962192e-07,0.008209765748486,,,,,2.42882567996652,-126.095851442396,2.4590925926719,AttemptLanding,AttemptLanding,1,0.629622707443719,0.159078011241105,0.0984323602459263,0.958036244728328,0.334814335722025
3,1.7844208860073,2.73736166954041,-1.09696721113228,-1.37626811590103,1.7844208860073,-0.0685902915573688,0.0113004389471108,0.0695149481501802,-0.0695944634767527,-0.105550781907179,0.132450131706114,0.0085408860071221,0.18721620877137,0.0621434828363965,15.4890322218249,0.804360796603451,0.849245061080972,0.1759625458125,0.240259193760079,0.165342085138956,0.426858672205288,0.159512298340253,0.038406448353173,,,,,1.87319628751653,-127.297520073929,1.81887905467716,AttemptLanding,AttemptLanding,1,0.488274266169225,0.227156083455816,0.221153986110715,0.899026109640515,0.326514628827131
4,2.41368088641992,3.0,-0.711554603580559,-2.26846596057003,2.41368088641992,-0.0328069644469072,-0.0078558634117016,0.0337344261276806,-0.0329118724098869,-0.271996814720836,0.275805288210077,0.0177996911630643,0.235538230287382,0.0831212529003597,15.3886917190444,2.00598340194122,1.85601065930598,0.0633341277169163,0.240234082102612,0.146079528434773,0.508888325822915,0.0019115750839857,0.0087767904923434,,,,,2.46779887999601,-105.553838771394,2.01563878036746,HoldLanding,HoldLanding,0,0.660272486958717,0.138106445345593,0.0869050163126055,0.937988697088885,0.335075765140101
5,1.80261385440826,2.45276188850403,-1.04322749974907,-1.44971914835088,1.80261385440826,-0.0428276225962354,0.0163538944445073,0.0458438122405593,-0.0601058950318167,-0.112146539033872,0.130839861112171,0.0084373511827402,0.13236665200532,0.0456161414295141,15.4558347294063,0.907637052774235,0.909527000921456,0.178155377798573,0.240245575820294,0.139093433955645,0.37509256992126,0.159483899751271,0.035367075097287,,,,,1.88084050141636,-125.058018224367,1.60195329581717,AttemptLanding,AttemptLanding,1,0.489820256128107,0.154688006582316,0.176555291753008,0.896644593535961,0.338180696019713
6,1.87360888838768,2.85191488265991,-1.04004849610174,-1.5271010439332,1.87360888838768,0.0084933291223711,0.0038864434283666,0.009340293469844,-0.0633773268958969,-0.127388823765525,0.147760072683223,0.0095297639778211,0.198014518685502,0.0660751903901255,15.4854897115174,1.25253206482075,1.35098831917254,0.0233824845894649,0.0464802853573294,0.0981216184056787,0.414741485025919,0.0002997877389062,0.0043591309503968,,,,,1.9161886291726,-122.783489357006,2.11262697753684,AttemptLanding,AttemptLanding,1,0.512844074981406,0.22183123584739,0.134817119030921,0.967852526116749,0.356390391819698
7,1.91917751111141,2.65281081199646,-1.06760992545897,-1.58035155162315,1.91917751111141,-0.0475488637227136,0.0043616765422717,0.0477484938357284,-0.0616521435852974,-0.132216073518877,0.148404131422391,0.0095699880079415,0.122455834108483,0.0434357418381041,15.482938971314,0.994073948615686,1.05460950995413,0.177045006021188,0.24025625120897,0.129815389175317,0.469414919142637,0.156589376998978,0.0423406520760912,,,,,1.96867067391655,-123.586570068552,2.44892573433874,AttemptLanding,AttemptLanding,1,0.52046781799733,0.173821383235687,0.189284709362567,0.895380698386357,0.342304271477637
8,1.89805077046764,2.94252848625183,-1.10996193352907,-1.50700161807595,1.89805077046764,-0.0780068341662105,0.0144867879114936,0.0793406150759324,-0.0714470337069952,-0.124952540667045,0.150362731229012,0.0096969284226796,0.19079885156928,0.0640275053666596,15.4630504885508,1.07294421038082,1.19339559944112,0.17634251999302,0.240302591379378,0.16811497448483,0.507849566622038,0.156651518094405,0.0440244240749236,,,,,1.96461919299708,-125.030810267647,1.8469178898724,AttemptLanding,AttemptLanding,1,0.518952373198036,0.24955326548203,0.235363737701855,0.894021784354889,0.325282233562298
9,2.61031981070836,3.0,-0.804726009336938,-2.4488038068257,2.61031981070836,0.0026100683168337,0.0033121212024624,0.0042169424324195,-0.0427520386204733,-0.312609614177849,0.317650358803926,0.0204907615477202,0.199844234056491,0.0742968033003513,15.4670949160444,1.60386333578386,1.51672572175469,0.0290458990103368,0.0560515706697445,0.107719317529153,0.469636652729933,0.0050170297862747,0.0060664641847842,,,,,2.98365709536118,-106.900241715489,1.90085061349281,AttemptLanding,AttemptLanding,1,0.710944643515634,0.0884511487032283,0.0575064672143443,0.960958136471314,0.352124747764821
10,1.86485431064554,2.69325518608093,-1.10243544486501,-1.47941371211547,1.86485431064554,-0.0607854059056299,0.0088354666152813,0.0614241893835152,-0.0676626580717714,-0.117255774691921,0.140059983481375,0.0090322511333823,0.148664106457019,0.0509218077304733,15.4740870516619,1.0213989413865,1.15206638610815,0.176429910469137,0.240244748694405,0.173341468555153,0.406920930289702,0.156739028005243,0.0412126482588165,,,,,1.92399487038037,-126.353098118705,1.89350468689609,AttemptLanding,AttemptLanding,1,0.507478844384905,0.197651298359942,0.203238986789178,0.894707817192259,0.322959347308821
11,1.86041453780744,2.78836560249329,-1.15040437047062,-1.44413465755271,1.86041453780744,-0.0707521399044994,0.0057116875227094,0.0709823124124801,-0.0720093796036996,-0.111068681555813,0.135903516559357,0.0087625601340275,0.130546055072329,0.0452976086155179,15.5035846084038,0.600306904214936,0.916702960568093,0.175588866846586,0.240245748785924,0.172112868823141,0.45786222713551,0.159006170164506,0.0346499509350898,,,,,1.90759543141243,-127.844704273722,1.54893763781969,AttemptLanding,AttemptLanding,1,0.505170065138421,0.221802413496604,0.216350839218179,0.900286203353412,0.32350539163416
12,2.61868690927823,3.0,-0.786117738639688,-2.46570840105878,2.61868690927823,0.0061285755806809,0.0041735268638027,0.0074146992609951,-0.0408964019296032,-0.316809798950109,0.321380300739127,0.0207298383395948,0.197030974243856,0.0736201791108731,15.4597596482876,1.45092521469509,1.31687470390843,0.0346196193428042,0.0504068025363836,0.10144220512241,0.417109333453476,0.0229056500428452,0.0070950108116579,,,,,3.0,-106.299635778902,1.57975318258336,AttemptLanding,AttemptLanding,1,0.713040544963037,0.0871548069435798,0.0650531770055911,0.960943190968142,0.354914575501151
13,1.96032326643159,2.81640911102295,-1.0294206766654,-1.64726367861557,1.96032326643159,-0.0579357383311593,0.0013758768575103,0.0579520734150521,-0.0594965858642231,-0.144975116797385,0.160074359614217,0.0103240957313561,0.146045893090171,0.0510406349390007,15.4635435092125,1.17856857291603,1.22624237897217,0.177174618910779,0.240270581200045,0.177165809169048,0.469062536126861,0.156810401205188,0.0402922328909122,,,,,2.02726066309477,-121.319262228342,2.06403288727314,AttemptLanding,AttemptLanding,1,0.532960998036224,0.203243861825816,0.206291549793481,0.892517747351203,0.321259640369312
14,2.58802896022797,3.0,-0.696574039249668,-2.4613991443533,2.58802896022797,-0.0150806810199939,0.0151442856358293,0.0213723262057828,-0.0349674564951051,-0.326361948217892,0.32983382593413,0.0212748702613845,0.200756501322815,0.0751193595798138,15.4382719829237,1.41348565074852,1.20887519272236,0.0626679111314068,0.240312044891372,0.102431721757772,0.430865880646991,0.0019682096812489,0.0071124634164782,,,,,2.96211416560549,-104.652706865072,2.23027048979799,HoldLanding,HoldLanding,0,0.705164927976754,0.0966117437531011,0.0614281564434583,0.948061780664168,0.354474790329879
15,1.75128431871635,2.44206261634827,-0.934296483585151,-1.46208809157013,1.75128431871635,-0.0519224731016795,0.0027031705027575,0.0519927912672671,-0.0493854255347841,-0.114650955940837,0.127749659386603,0.0082376155306543,0.139759282466098,0.0476941156112873,15.4875437246428,0.835404684848945,0.950131403457103,0.175982411578458,0.240236580219612,0.144034911799805,0.398528864215876,0.159576200473292,0.0351499286497466,,,,,1.78867162897179,-121.8764556945,2.29460925846282,AttemptLanding,AttemptLanding,1,0.47654797477995,0.164957128699514,0.182678825221888,0.897979582088367,0.335984483644531
16,1.75175845881303,2.71512579917908,-1.00004928711609,-1.41017207942436,1.75175845881303,0.0066930951941637,0.0033080687881607,0.0074659789971135,-0.0577542358454493,-0.108701834883107,0.127892337435304,0.0082519206898371,0.184462730174114,0.0611151635351202,15.4364985021146,1.91873256926648,1.97398699217992,0.0359237578510329,0.0766113167789857,0.132358180821091,0.502329113798626,0.0284682277078227,0.0045036185820948,,,,,1.79698325918466,-123.928221238646,1.5,AttemptLanding,AttemptLanding,1,0.479358621723832,0.218126414398498,0.145166073771418,0.951452467377405,0.341174141857293
17,1.86982499498899,2.76946687698364,-1.02424911041113,-1.54350586350201,1.86982499498899,-0.0605436660556774,-0.0004405692317764,0.0605452690200429,-0.0592158922433808,-0.127515799726831,0.144024529085964,0.0092883852371784,0.15192673834783,0.052079891170374,15.4484160182226,1.1000576343217,1.14829339267984,0.177104656390875,0.240216521848692,0.147404027631842,0.468636041090985,0.159684929480058,0.0363422701706045,,,,,1.90606506718967,-122.683382350962,1.91408083718398,AttemptLanding,AttemptLanding,1,0.509035976897806,0.213519389435804,0.212298084401526,0.893782056592407,0.334487098830292
18,1.79096850181279,2.78799700737,-1.03094651725857,-1.43314302192247,1.79096850181279,-0.0673956865261487,0.0081819109146589,0.0678905164846042,-0.0623407796633632,-0.113881775027226,0.135492089643462,0.0087382635378722,0.186306143988008,0.062008627672913,15.4600785070004,1.08890770578079,1.13175563732589,0.17733034434137,0.24024995846998,0.169397830108658,0.51437761506694,0.159598416732816,0.0332074820662054,,,,,1.87952489310621,-124.36494621675,1.5,AttemptLanding,AttemptLanding,1,0.489993326017994,0.236778008439215,0.225074882746633,0.893886758704905,0.324712075507263
19,2.62433177312215,3.0,-0.786822093369884,-2.4666353944124,2.62433177312215,0.0046778249837774,0.0043222137542568,0.0063689542561035,-0.042153723815085,-0.316632939416063,0.321646127281046,0.0207491020392277,0.199894314970008,0.0744926659184617,15.4721346270562,1.68293470533644,1.7134816748066,0.0253272527185233,0.053087100562107,0.112854920442976,0.449674844929281,0.0002213166718789,0.0057885432301309,,,,,3.0,-106.031594526481,2.04781574094629,AttemptLanding,AttemptLanding,1,0.7147203393496,0.0856929926611348,0.0536190833729171,0.960650244939614,0.3498422575809
20,1.88289996880252,2.67475724220276,-1.00603561030644,-1.57648744985649,1.88289996880252,-0.0469232555140148,0.012909815684897,0.0486667776727773,-0.0555756683227674,-0.131174127647026,0.144844554629613,0.0093399512230312,0.121894865961802,0.0431064256446623,15.4908976169122,0.910959363704342,0.873632521914707,0.176945586505609,0.240278468121246,0.156286134188975,0.426640879097528,0.159549338846658,0.0373104019979684,,,,,1.95533603544456,-121.682915799118,2.41800659804049,AttemptLanding,AttemptLanding,1,0.510727943476272,0.187090129088395,0.196732313626571,0.897505413360189,0.330539495916011
21,1.93969552208777,2.85888123512268,-1.05863311380132,-1.60007190764789,1.93969552208777,-0.0630819302972232,0.0098463308596076,0.0638457528847502,-0.0630217758690385,-0.137166272135599,0.155223791256926,0.0100114876309779,0.151144252078249,0.0523513169651591,15.4381589969916,1.18981177742385,1.29285330794743,0.176951594208878,0.240259106534559,0.178621116902858,0.526741214346206,0.156820980580745,0.0423131683188914,,,,,2.01006102178809,-122.843348050567,2.4474021247494,AttemptLanding,AttemptLanding,1,0.527722402616438,0.218521840128392,0.216197924329892,0.892017548653358,0.320612836932063
22,2.40819458140179,3.0,-0.708048226862017,-2.26385362877486,2.40819458140179,0.0064115217768415,0.0214616997073686,0.0223989322474125,-0.039712173534896,-0.300675408106339,0.305758597590419,0.0197173153435675,0.199748243910004,0.0737265939134985,15.4877811893386,1.09500886020192,0.998097702902117,0.0225870877979277,0.0533305608484709,0.118078837260685,0.308862508407263,0.0058957074486487,0.0049588677014785,,,,,3.0,-105.373889448931,2.08884815541332,AttemptLanding,AttemptLanding,1,0.656930540489843,0.137262690096624,0.0867811530983153,0.972260618819504,0.347520516773029
23,1.69323126718301,2.37222766876221,-0.831629703151147,-1.45469453683027,1.69323126718301,-0.0470407467268079,0.0096052499915286,0.048011380734316,-0.039667147314592,-0.112616045219449,0.12182338731804,0.0078559514891766,0.133887608546237,0.0456654486062949,15.4639863997528,0.918725811412491,0.883122107779348,0.175697281923575,0.240200623514199,0.15512841717244,0.395611245040187,0.156816771127373,0.0422494998517111,,,,,1.75191981509009,-118.497538474994,1.76878492303823,AttemptLanding,AttemptLanding,1,0.460661427636727,0.161576276823278,0.182005563308775,0.897993982530277,0.331054036812249
24,2.67538783829011,3.0,-0.620528475172255,-2.56759342064457,2.67538783829011,-0.0245466180278329,-0.0065968444084928,0.0254176083208903,-0.0264311569450138,-0.337842653438704,0.339993793600672,0.0219330923548363,0.193445424182624,0.0733867919031725,15.4476485405442,1.56521442963339,1.06814320439285,0.0635782954514321,0.240475539913799,0.121878106737565,0.404610623477186,0.0018877748903755,0.0103300490069754,,,,,3.0,-102.185830974197,1.50971440107236,HoldLanding,HoldLanding,0,0.728114115257996,0.0776976312435562,0.0512139712656048,0.947520185149792,0.345831952561082
25,1.72992528052557,2.82925510406494,-0.938455102167206,-1.42577552369381,1.72992528052557,-0.0597117873453547,0.0219412268466424,0.0636153675106313,-0.0512368734935217,-0.113087179098322,0.128473105305767,0.0082846981149687,0.181777380952145,0.0603325029661214,15.481326298238,0.937078453635702,0.7707735840583,0.176764331107987,0.240269674819237,0.148596566728733,0.445648201588351,0.159501113889861,0.0372584139893863,,,,,1.79680657025774,-122.144595008979,2.18892852964343,AttemptLanding,AttemptLanding,1,0.473379908733376,0.259012027673307,0.239845114732992,0.898198997006982,0.333957081453897
26,1.85399224380652,2.65821528434753,-1.03813371927363,-1.51357138267338,1.85399224380652,0.0027024606190001,0.003696297391313,0.0045788544202971,-0.0603390895922892,-0.121897469149873,0.139865996371908,0.0090235144053355,0.158279282170544,0.053800244734898,15.4676053573041,1.75384343450767,1.72351161090834,0.0347252159073879,0.0733895782899394,0.117666554271438,0.529501950427798,0.0263041183391763,0.0040947550871476,,,,,1.89015622586425,-123.159855511628,1.53713469901894,AttemptLanding,AttemptLanding,1,0.505157980628719,0.181789640765449,0.122253505570997,0.955315316689466,0.347703753657138
27,1.71220092627467,2.50967311859131,-0.82804746207321,-1.47283538397928,1.71220092627467,-0.0553278554201393,-0.0010545876173305,0.0553379050961858,-0.0414075362811423,-0.118693989222572,0.128934343570542,0.0083143774635421,0.16474649826471,0.0552440137038924,15.458090460644,0.876844349200539,0.937481073635759,0.176590717189422,0.24021652565152,0.147080252015206,0.415869019200518,0.15966409271636,0.036704751300613,,,,,1.77620387229689,-117.832865156267,2.25590640238758,AttemptLanding,AttemptLanding,1,0.467635716414024,0.189576525872211,0.198054916799508,0.897449227368718,0.334630999104353
28,1.7255073011327,2.57506513595581,-0.97628159584238,-1.40160751685759,1.7255073011327,-0.0475743268434572,0.0048692385332256,0.047822861253814,-0.053220770031517,-0.105013894232308,0.121188609597567,0.0078145264211443,0.142500490912801,0.0482203157686414,15.473928863863,0.806781142230332,0.95083697540344,0.177286401616939,0.240195775249097,0.145629533804071,0.41455394845327,0.159670885637314,0.0355798204822787,,,,,1.77693740749085,-123.63065316624,2.10487793294987,AttemptLanding,AttemptLanding,1,0.46977934345578,0.1999180373984,0.203853777039079,0.89754694255298,0.335275762753746
29,2.62915074189504,3.0,-0.516551055474943,-2.5455437208844,2.62915074189504,0.0084117691905592,0.0035670062663009,0.0091368153433826,-0.022736501145246,-0.336862930730125,0.338435991177298,0.0218446344566255,0.199044058979575,0.0750044618135102,15.3833498212622,2.309165799076,2.27145333151321,0.0183318976769501,0.077585678668343,0.143360505505396,0.479172153077518,0.0003656366238578,0.006095021507564,,,,,3.0,-100.208461528465,2.34299133632192,AttemptLanding,AttemptLanding,1,0.716107756868046,0.0851161658865696,0.0534485761553968,0.954843472278324,0.336284219775379
30,1.84863241108096,2.56947994232178,-0.938250246933413,-1.56992221419745,1.84863241108096,-0.0566117781360125,-0.0013680008524618,0.0566283043190721,-0.0500144018178093,-0.131356063874122,0.143793413788548,0.0092724688981206,0.14432888037888,0.0497893923423486,15.4713501083182,0.968828697734818,0.795831076724475,0.175836926995145,0.240242280705104,0.16914666002886,0.396347832349941,0.156884071974763,0.0415742688885908,,,,,1.90894849737311,-119.745808657761,2.4213410369808,AttemptLanding,AttemptLanding,1,0.502926521423393,0.172572550321013,0.188387700363101,0.898216352560248,0.32482370665384
31,1.89153092653573,2.79733300209045,-0.942466672998721,-1.61909442205812,1.89153092653573,-0.0546262422123018,0.0015986206520604,0.0546496287839749,-0.0500620270751268,-0.139728296630396,0.151306983098063,0.0097564508340546,0.149402945118303,0.0516503991193292,15.4865321045169,0.859538073198638,0.898787472947071,0.176836483216021,0.240238923632397,0.128061307207213,0.500963205034497,0.156785518269365,0.0403066751012217,,,,,1.95935225919259,-119.13516242978,1.92629977185437,AttemptLanding,AttemptLanding,1,0.51473832690006,0.213824565610208,0.212634164694368,0.897766343386559,0.343083863463461
32,2.61677768667539,3.0,-0.646614665475302,-2.50143068124951,2.61677768667539,0.0076321097209395,0.0033625654117292,0.0083400206798675,-0.0313832945785002,-0.32591846917352,0.328731588105005,0.0212119413230792,0.20016438545027,0.0748976745612364,15.46085949209,2.04642040594945,1.71619438105316,0.0250268141589548,0.0551073907676029,0.123715182319889,0.415215969948049,0.0001993426360962,0.006001112514459,,,,,3.0,-103.01941117063,2.08410475638284,AttemptLanding,AttemptLanding,1,0.712786918025685,0.0877540242893464,0.0549232340332923,0.957923191022645,0.345015474524494
33,1.88455974569126,2.57132148742676,-0.82220316033127,-1.68176686200663,1.88455974569126,-0.0444580881395049,-0.0035104953727467,0.04459647047449,-0.0379277002797877,-0.149302704097067,0.155542624365429,0.0100315924725078,0.133360023271367,0.0470301217121655,15.4584684963908,1.19250244751671,1.08951014789926,0.176585050802386,0.240249406739209,0.165751550371816,0.453037794064776,0.156727326883204,0.0428515659282301,,,,,1.93692079365451,-115.089103932968,2.13337057773911,AttemptLanding,AttemptLanding,1,0.511955289860103,0.162697411477477,0.18285742422262,0.893777375634824,0.326332644279193
34,2.67307868599892,3.0,-0.578015532379063,-2.57628744213186,2.67307868599892,-0.0254635577937564,-0.0102668659830443,0.0274554423134971,-0.0244421756291347,-0.339681773175312,0.341537924750936,0.0220333650597502,0.198065520634982,0.0748430117323197,15.446127593272,1.65133790405218,1.35265170244177,0.0627139283565718,0.240167390083435,0.116357402694139,0.427973798822421,0.0018917450693735,0.0080175792805012,,,,,3.0,-101.157933097739,1.82989133062408,HoldLanding,HoldLanding,0,0.727789585279508,0.0785907934077182,0.0509107350057469,0.945040260342119,0.348285598802605
35,1.76936242937231,2.73077845573425,-0.783196058328183,-1.56019188114157,1.76936242937231,-0.0667946218267568,-0.0068806473676608,0.0671480812322851,-0.0377738364105268,-0.132849722552184,0.140886217691718,0.0090853470180893,0.172230652836441,0.0580289387635948,15.464214724011,0.973903913929965,0.868896663365352,0.176402012246605,0.240223212499656,0.14879642038225,0.463001245052098,0.159499531832263,0.0355791088385135,,,,,1.86137587595629,-115.841095627455,2.17832911796187,AttemptLanding,AttemptLanding,1,0.483435768918668,0.22862908749069,0.221003991068212,0.897319846483663,0.333868257607889
36,1.9662613538901,2.76239228248596,-0.878625073084927,-1.74474600254225,1.9662613538901,0.0020852112454294,0.0029294703713947,0.0035958173750824,-0.0427485186544075,-0.159528269992384,0.166740197282994,0.0107628885308475,0.133343564908259,0.047537091444071,15.4091946721435,2.28974911750746,2.10317126445458,0.0295952560629201,0.0814216085324713,0.143823224206854,0.519132838782522,0.0009137063875075,0.0073659142015265,,,,,2.00134863438598,-116.022448666907,1.89086135115639,AttemptLanding,AttemptLanding,1,0.533843779326174,0.1797886921195,0.110957821254582,0.95068656896741,0.336078567019176
37,1.77666433408958,2.7318000793457,-0.803867008844599,-1.5587493980297,1.77666433408958,-0.0616673161434303,0.0034263082331544,0.0617624276436926,-0.0395627399861665,-0.133577712477292,0.142171898134066,0.0091669930552693,0.17643496284483,0.0593473839921376,15.5045098360718,0.693475169687487,0.759866404566435,0.176782371643016,0.240295215726426,0.122216732175619,0.39144904491753,0.15935394167208,0.0363676960813336,,,,,1.84847057739295,-116.145839673518,1.61282227087993,AttemptLanding,AttemptLanding,1,0.485646632555648,0.226228654417305,0.219785783483712,0.900189701809354,0.345681452366392
38,1.96217399876134,2.67291259765625,-0.776455397165809,-1.78973998891455,1.96217399876134,-0.0457311929854401,-0.0001204302827674,0.0457313515580348,-0.0340730573272005,-0.168472544340148,0.172977096186815,0.0111568377437786,0.128712209698443,0.0464234493301778,15.4503066020159,1.24306290704701,1.17774940495348,0.177216086524411,0.240294327593635,0.171102815013127,0.527418302955785,0.156547566651642,0.0426819986127332,,,,,1.9993932608471,-112.620106358339,2.35380245713786,AttemptLanding,AttemptLanding,1,0.532531089535726,0.168300265870328,0.186077582580082,0.892371288572076,0.32395430443861
39,2.61752747694651,3.0,-0.626354896191657,-2.50936256163195,2.61752747694651,0.0046305018716193,0.0051224367314239,0.0069051361789982,-0.0294223905474937,-0.327958970254988,0.330459539214753,0.021316168008301,0.195146450627412,0.0734652527940343,15.4540295788544,1.47862139843758,1.39543912922492,0.0211603212698155,0.0603112819050334,0.100838151674597,0.483743367334097,0.0003861710903859,0.0075257864589246,,,,,2.9987372183553,-102.731971335258,2.15381604999167,AttemptLanding,AttemptLanding,1,0.712700377744544,0.087322259319851,0.0553016368090648,0.966837935219173,0.355183043700179
40,1.89173492282426,2.87356901168823,-0.306711435049112,-1.84114097671921,1.89173492282426,-0.066413065513255,-0.0341887274942411,0.0746964815673628,-0.0105296487254879,-0.184108862604931,0.184788593529477,0.011917783148793,0.194709107935901,0.0667551805849255,15.4650291605373,1.23236212349154,0.97077215501522,0.176731884146035,0.240293309190779,0.158065406719513,0.46350307620621,0.156589616613118,0.0394274579191143,,,,,1.96262077332345,-97.9255988407311,2.10587581702396,AttemptLanding,AttemptLanding,1,0.517813682203455,0.23460702494841,0.224696857555564,0.894323717167286,0.329748708124661
41,1.89329781743134,2.68098402023315,-0.259294215349078,-1.85785370170915,1.89329781743134,-0.0569113258390545,-0.0232379036021787,0.0614727514642316,-0.0071746847800725,-0.182580366904377,0.18288195209047,0.0117933312315795,0.140651075950562,0.0504506546472743,15.4719597558726,1.00046177793756,0.8543678531583,0.176265757683697,0.240272890275218,0.161212848946948,0.402590388799408,0.156710985687486,0.0420632378340821,,,,,1.94919332297993,-97.076725643542,1.79811966272691,AttemptLanding,AttemptLanding,1,0.514969548911145,0.188499400065517,0.198044689860284,0.89729345977097,0.328349844912468
42,2.61645775198936,3.0,-0.628840745093662,-2.5071622911057,2.61645775198936,0.0081903882154045,0.0036353772101813,0.008960938934026,-0.0296281668477269,-0.327294969085859,0.329844503130209,0.0212898312106897,0.194922634096685,0.0733796720764884,15.4063533683168,2.34971952133861,2.13963700135963,0.0201047347752782,0.0760521215144974,0.142627776514793,0.49040388011961,0.000188520683567,0.0065977591490388,,,,,2.97766096785849,-102.83550377438,2.24954693257409,AttemptLanding,AttemptLanding,1,0.712398001612462,0.0879398446069644,0.0552468788797579,0.954674117076875,0.336609877104536
43,1.77684364878401,2.90919303894043,-0.247150975017458,-1.73440730226519,1.77684364878401,-0.0640467159531827,-0.0353727275010787,0.0731656454577778,-0.0079259267088287,-0.164353892597904,0.164815777301527,0.0106279862718709,0.183346957332019,0.0624436775899153,15.4884216899352,0.949498658312094,0.771880387605498,0.175402286518243,0.240270778065675,0.157595960432808,0.41930881077102,0.157948905671542,0.0413903040174824,,,,,1.87761184680711,-96.9149867627548,2.07035146060749,AttemptLanding,AttemptLanding,1,0.486313708527054,0.268192314452453,0.246165921945989,0.898773735665812,0.329957350918752
44,2.5419497856727,3.0,-0.626080091649235,-2.43137106017538,2.5419497856727,-0.0258340780906685,-0.0123497446428421,0.0286341716055863,-0.0260607567232975,-0.304547369637835,0.306771809297319,0.0197854331672146,0.212695724131527,0.0776585204565082,15.4741699866897,1.2736520109806,0.910018884426721,0.0638921002528155,0.240230437368964,0.0881574418761307,0.400696533270369,0.0018503223855815,0.0075220690279191,,,,,2.70268226585959,-102.84402520654,1.54265328180397,HoldLanding,HoldLanding,0,0.693384980270689,0.108310896351333,0.0685442011438369,0.950896535695392,0.36081891472172
45,1.64780389411109,2.48197913169861,-0.207468264495354,-1.61866659208903,1.64780389411109,-0.0376709879221522,-0.015975606466711,0.0409184962212708,-0.0049396490610935,-0.139763247734121,0.139963891759765,0.009025854521676,0.135773213827899,0.047050062313543,15.4715276684728,0.952117247810437,0.627436682271766,0.177304380305625,0.240207151653934,0.127589950015677,0.393167917696793,0.159422349959814,0.0366837291590523,,,,,1.74484723470437,-96.8322370152764,1.73819737592316,AttemptLanding,AttemptLanding,1,0.448824384225666,0.195191152764425,0.201308607294591,0.89893702896797,0.343293355548588
46,1.66424775401751,2.55197429656982,-0.236139340927123,-1.624388840181,1.66424775401751,0.0029266518283117,0.0049717609872425,0.0057692025652101,-0.0069612400589224,-0.142489767870545,0.142897691790886,0.0092190230276458,0.173728048260926,0.05857173059763,15.4614157249034,1.8022002823939,1.64468344613864,0.034925728481086,0.073790615122957,0.11683829649503,0.473547682357659,0.0245462331717037,0.0050644353260712,,,,,1.71876069037497,-96.5690723186371,1.56642188861539,AttemptLanding,AttemptLanding,1,0.455513747190863,0.200796159211225,0.133228745337781,0.955454477892416,0.948071868224431
47,1.74960527290292,2.68289065361023,-0.0899241051436773,-1.72515541940669,1.74960527290292,-0.0093735824092021,0.003487002141136,0.0100011614882669,-0.0030203209911681,-0.163048931828102,0.163218475617586,0.0105262970623633,0.165155545487206,0.0569150715898161,15.4705811063746,1.10288006530424,0.903493034566415,0.177952899202463,0.240254329823682,0.131070656878246,0.415762439672729,0.159816930845482,0.032068181195567,,,,,1.8330973949862,-93.5355183886098,1.87023210086287,AttemptLanding,AttemptLanding,1,0.477944420425409,0.211822756931993,0.20978455800002,0.895259190328356,0.341746374720779
48,1.49711416071693,2.17104983329773,-0.162183552596307,-1.47401968954043,1.49711416071693,0.0406949210836481,-0.0014526115778679,0.0407208384294885,-0.0035210414018998,-0.131030937749602,0.131171806299855,0.0084575613676474,0.138153760999571,0.0473664212572246,15.5047255630265,0.708010617899349,0.482709621029447,0.175410236573546,0.240217569420362,0.156223704347989,0.241340105222346,0.156838122415662,0.0390557838273288,,,,,1.76093856199151,-95.8152911333806,2.24323040863893,AttemptLanding,AttemptLanding,1,0.408703727109294,0.159101013376085,0.179368543420328,0.902939222693072,0.330567242512005
49,2.61577392339706,3.0,-0.677498496486442,-2.49215273763033,2.61577392339706,0.0051720971855927,0.0039749875848214,0.0065231216144343,-0.0334678623842023,-0.323594082067604,0.326856107574924,0.021089791880905,0.198575794638516,0.0743355927081883,15.456016133398,1.9511338194556,1.7400820692157,0.0204110524675382,0.0764172707275274,0.119396758073171,0.457615265321561,0.0005537724196358,0.0049093972533779,,,,,3.0,-103.690253195533,2.2653887351425,AttemptLanding,AttemptLanding,1,0.712406831447521,0.0876467728649736,0.0546194201592426,0.960792063212385,0.346934774189702
50,1.68171614570683,2.62763857841492,-0.16423081397627,-1.65038558368988,1.68171614570683,-0.0564090311976774,-0.0247048017365864,0.0615817020672909,-0.0046584061619525,-0.148999426937576,0.149229745615058,0.0096244464590968,0.167117406468221,0.056872334461834,15.4751101643324,1.112561296111,0.925674288082335,0.177653898031767,0.240218476858729,0.157220003286304,0.460159735953055,0.159403313020924,0.0391178660901823,,,,,1.72627812567413,-94.411640590645,1.5,AttemptLanding,AttemptLanding,1,0.45983210574752,0.224122526071657,0.219544111119431,0.895158342822598,0.330124442983865
51,1.58003170798425,2.17106080055237,-0.120741203622012,-1.56394101546091,1.58003170798425,-0.0379652202876094,-0.0124044570668502,0.0399403117991089,-0.002206431762502,-0.12926284622587,0.129322011363646,0.0083387696986436,0.1129351967496,0.0397176978139304,15.4857846855189,0.791818210895259,0.585094471923013,0.176984464610898,0.240184673885641,0.124973831960232,0.391132600348446,0.159454714617789,0.0351410633920868,,,,,1.64198518080473,-93.7945426045898,2.13369144860434,AttemptLanding,AttemptLanding,1,0.429285328358586,0.14030393632433,0.167829692353162,0.900689168043836,0.344456074684341
52,2.63313313126564,3.0,-0.645756791970735,-2.51987402872482,2.63313313126564,0.0063363506019596,0.0058291682680178,0.0086097933568594,-0.0307241547378171,-0.32999600352744,0.332631573495024,0.0214638981324807,0.19308519139058,0.0729502861099104,15.4567882705281,2.0506218215443,1.92803036319174,0.0199642139133478,0.0503709657202094,0.133462379761598,0.357627799980671,0.0002458374021825,0.006939173418112,,,,,3.0,-102.899260755177,2.27329106618963,AttemptLanding,AttemptLanding,1,0.716758892226153,0.0841235075806552,0.0531067014044342,0.958757054448972,0.340683386772623
53,1.72995584189486,2.42271828651428,-0.136327002404607,-1.7091458672397,1.72995584189486,-0.0459187901762725,-0.0273963647197366,0.0534705160916684,-0.0030759086826128,-0.155171831165037,0.155282084911352,0.0100148447533798,0.131869774454283,0.0465713236636508,15.4624141981757,1.17337282995957,0.941361799472126,0.175963228600458,0.24023423971194,0.158192143465803,0.465427154591477,0.156620914822995,0.0400085180568771,,,,,1.76767167051157,-93.7767495596924,1.83870390376117,AttemptLanding,AttemptLanding,1,0.47063582257136,0.165674477989508,0.183562534291274,0.895402613611379,0.329692380681865
54,2.6622596626258,3.0,-0.568488564594788,-2.56259199049419,2.6622596626258,-0.0256220278065396,-0.0073301366085915,0.0266499383042382,-0.0238409515779927,-0.337451109727689,0.339304399136583,0.0218860259553281,0.203487363592036,0.0763664272463404,15.4500281305598,1.44610681611892,1.12910336744131,0.0637981105110254,0.240179024420575,0.108978320222777,0.442146797835504,0.0018754524751624,0.0106191120367168,,,,,3.0,-101.106544404973,1.5,HoldLanding,HoldLanding,0,0.725209195482815,0.0808773979316383,0.0532214684784673,0.947867150445086,0.351565191012099
55,1.65253067178791,2.55625057220459,-0.160619235652087,-1.6215376664466,1.65253067178791,-0.0574400069140132,-0.0279163758992794,0.0638645319221221,-0.0047289751996991,-0.142621247013147,0.142860746219194,0.0092121010196654,0.167373843900487,0.0566606238839119,15.4899046611229,0.892558618959614,0.733971331489532,0.176894102647266,0.240215772746806,0.168372936127562,0.414734136702077,0.156660016633109,0.040849588891934,,,,,1.6954412846166,-94.4207914550518,2.1123384756642,AttemptLanding,AttemptLanding,1,0.452006970586892,0.215045475112809,0.213508355087548,0.898773070494267,0.325167583943306
56,1.70797967453798,2.47937440872192,-0.100246009333117,-1.68835567297933,1.70797967453798,0.0042828556662142,0.0048335181716656,0.006457998960471,-0.0022367749045496,-0.150343891629499,0.150431717405631,0.0097047361864619,0.136839093182275,0.0478450432852059,15.4691614614252,1.74039068692945,1.90284181797559,0.0224237172015014,0.0574578099122541,0.119400789820525,0.432060850667356,0.0001020886930581,0.0059775799347312,,,,,1.73280982852964,-92.1431804697514,2.15051203066427,AttemptLanding,AttemptLanding,1,0.465030255200502,0.174747781667475,0.107067707183766,0.960162743146424,0.346932982301989
57,1.59742923091058,2.37570524215698,-0.203758407750342,-1.5629555595923,1.59742923091058,-0.060699756877747,-0.0298589272321048,0.0676462565148267,-0.0056721944133315,-0.132930722077377,0.133227414814381,0.0085911646909039,0.155582177124827,0.052688468421081,15.4756610139776,0.925494402577662,0.836478704395112,0.177679868511107,0.240210687438254,0.151629252708317,0.402983285139766,0.159535068405818,0.0360997751740081,,,,,1.65239533729994,-95.8334835366937,2.39529627116564,AttemptLanding,AttemptLanding,1,0.436518821927038,0.187513916224825,0.196540015554292,0.897315991332518,0.332609221018526
58,1.62842864568542,2.35551166534424,-0.110267409755773,-1.60972050484262,1.62842864568542,-0.0434618882229045,-0.0125994931083139,0.0452513309692289,-0.0022445537266595,-0.138009818739843,0.13808643455411,0.0089058156471883,0.129643577825692,0.0451271443007395,15.4608676741574,1.12922811448414,0.963246636793146,0.177229618729182,0.240203978953852,0.147523022978814,0.448407478634152,0.156675143019832,0.0396913651816566,,,,,1.68060545220575,-92.4282145747537,1.88788724582081,AttemptLanding,AttemptLanding,1,0.443273067709592,0.171889756767594,0.18720047466068,0.894944317589659,0.334434212009416
59,2.5315639936924,3.0,-0.507142989098098,-2.44917743753057,2.5315639936924,0.0066781005620185,0.0071887069075335,0.0098119587299811,-0.0220395910636177,-0.314593551435704,0.316154165410605,0.02039808385084,0.208870870615285,0.0769399198801736,15.4622450814496,1.85219604346007,1.67449716621641,0.0272784789123407,0.0736860945091926,0.11338452095346,0.442002594951483,0.0004824714603494,0.0038322886280289,,,,,2.78982386220964,-100.41262924442,1.94914331580708,AttemptLanding,AttemptLanding,1,0.690471715627341,0.107196960519707,0.065926167573081,0.958651028182086,0.34960687957624
60,1.67459665999121,2.32165360450745,-0.0842455724170047,-1.65981629705303,1.67459665999121,-0.0460018781339771,-0.018863980280427,0.049719438290005,-0.001451347897233,-0.145088584786388,0.145147088542417,0.0093610151400352,0.108834443090184,0.0392030435250798,15.462579313329,1.14303816012089,0.900353199582116,0.176092848697458,0.240194314143114,0.148653645876365,0.473634235137848,0.156649655618625,0.0426460468149872,,,,,1.72864210057146,-91.9462754292346,1.72419831711204,AttemptLanding,AttemptLanding,1,0.454399718036004,0.154703042869322,0.177951548272694,0.895898357825033,0.333931712943838
61,1.54353976776811,2.40467429161072,-0.18295182212773,-1.51200884499108,1.54353976776811,-0.0502400975984484,-0.0178044352282485,0.0533016446322111,-0.004889141031105,-0.125978422167449,0.126230870171621,0.0081412051185281,0.172244840069013,0.0573722956036737,15.4606807109252,1.11600224484961,0.810639530653685,0.177072449629609,0.240238766189082,0.152034449434284,0.444687893102972,0.156667960093505,0.0416248269950034,,,,,1.6541677253945,-95.777639022521,1.80765758411945,AttemptLanding,AttemptLanding,1,0.423085063858897,0.203527236047159,0.206882846839754,0.896325875520527,0.332429133584763
62,2.60113426248233,3.0,-0.533530516516676,-2.51279445557132,2.60113426248233,0.0047337030297138,0.0039823692728947,0.0061860495794342,-0.0240801719232389,-0.32899380751803,0.330798812835023,0.0213347863114627,0.199006134565235,0.0746361907875944,15.4827796944362,1.25308060223282,1.12404316163424,0.0139312289656193,0.0487506632807516,0.0877958979362382,0.413161709345639,0.0001864188259321,0.0030394186511717,,,,,2.96888331606625,-100.576107342626,2.45436562318522,AttemptLanding,AttemptLanding,1,0.708563041486139,0.0908789000310398,0.0557154359760299,0.974356984515378,0.360979600917227
63,1.5616349837407,2.09946632385254,-0.0820513373003902,-1.54805918569706,1.5616349837407,-0.0325019993229907,-0.0178525607755509,0.0370822583756225,-0.0014373405833886,-0.12627082159264,0.126318242757883,0.0081453945980805,0.106204235483726,0.0375630468637741,15.4829913146772,0.891916572163907,0.550228533228486,0.177481860442494,0.240164309018179,0.122939520100659,0.383877880238201,0.159435420730835,0.0374414604264312,,,,,1.60300708299886,-92.1234906695166,1.88583576790823,AttemptLanding,AttemptLanding,1,0.42394860503694,0.127810465560695,0.161161542846602,0.899927929664955,0.345360213288596
64,2.60454070651838,3.0,-0.590296714367122,-2.50515718698411,2.60454070651838,-0.0154752307296694,0.0113164438136631,0.0191714544759728,-0.0277874158979554,-0.335408626233338,0.337656409324262,0.0217823662582557,0.204121599535014,0.0764841362412832,15.4542880699862,1.64597170535049,1.40112180884737,0.0627762941944286,0.240451006552088,0.125128828633599,0.434781512980902,0.0019177385078381,0.007655994813299,,,,,3.0,-102.201792877698,2.26796527316193,HoldLanding,HoldLanding,0,0.709841015653159,0.0924931076872922,0.0591321909520081,0.94467040386266,0.344387187273956
65,1.49845169798857,2.29328560829163,-0.134728276167226,-1.47763703278672,1.49845169798857,-0.0464149281554116,-0.0086507867818871,0.0472142104415365,-0.0027613816377161,-0.115893083051082,0.115996337185825,0.0074806233148101,0.122528534425505,0.0419949966480187,15.4632184761367,1.0772101794561,0.689980237428233,0.177314389334029,0.240202849804923,0.14347874531424,0.465263245891977,0.159452167980833,0.0366167580108739,,,,,1.55228808798252,-94.2268777224065,2.33731333088906,AttemptLanding,AttemptLanding,1,0.407986118793224,0.187493568399135,0.196678955984411,0.897457737771751,0.336231668749227
66,1.5911097774903,2.31181335449219,-0.125132495673823,-1.57085687821268,1.5911097774903,0.0045773789812437,0.0072789146879297,0.0085985462359687,-0.0027252146816715,-0.130235359156981,0.130332916001737,0.00840832554821,0.12892366487245,0.044562927345482,15.4564883588332,1.69340933422367,1.59646267833103,0.0331487686927213,0.0552691001216363,0.117427083932876,0.463277678776125,0.0133815778350603,0.0046195904655682,,,,,1.60696450398557,-93.5145725727472,1.70459810149584,AttemptLanding,AttemptLanding,1,0.433208526133176,0.163734704968686,0.105868041986294,0.957576621269281,0.347810184918722
67,1.64485262040378,2.5223183631897,-0.103007682387159,-1.62595216207967,1.64485262040378,-0.045523961245064,-0.0092943486624428,0.0464630602145526,-0.0022399900659834,-0.140669589359681,0.140754415718266,0.0090781293087463,0.130537002223109,0.0455157911830551,15.4491026875314,1.18400260084452,0.90176482463657,0.17686822063636,0.240208006696473,0.141799257747566,0.444526061711881,0.156649658137626,0.0433147727382256,,,,,1.70472744872138,-93.0615211949791,1.86458997039633,AttemptLanding,AttemptLanding,1,0.44773052367762,0.205948019832832,0.208941708633352,0.89517771705304,0.336978107667749
68,1.57476105089901,2.25887775421143,-0.124599171431612,-1.56044983201945,1.57476105089901,-0.0334005651381752,-0.0137134743312633,0.0361061924021864,-0.0020198054760729,-0.128241105179344,0.128284564295408,0.0082726282611136,0.103287722389291,0.0367771564995669,15.4682541038247,0.951018631029537,0.725751353710951,0.176607471786619,0.241731573180888,0.114266558285026,0.40933990085213,0.156690664685503,0.042256123796331,,,,,1.6346567991892,-94.1375227104005,2.33707466750548,AttemptLanding,AttemptLanding,1,0.42729171153965,0.16054572685236,0.181333594725861,0.898521642798015,0.349214862984433
69,2.62344260931015,3.0,-0.391519984132175,-2.56311286243997,2.62344260931015,0.003192113617974,0.006380436537335,0.0071343927391905,-0.0157825000501015,-0.341793707467007,0.342601179224914,0.0220984790942266,0.193363278825734,0.0734779190136789,15.4705256823639,1.43014023123167,1.15644359307988,0.0279738555479467,0.0487262539853972,0.0944971572484859,0.378479192978835,0.0010489450774073,0.0065021801238135,,,,,2.97762147861884,-97.4745863886534,1.98330385384324,AttemptLanding,AttemptLanding,1,0.714280279618776,0.0860333849074012,0.054450657892554,0.965689913606436,0.358001263445117
70,1.66810389197603,2.33860373497009,-0.089840663999089,-1.65417741766027,1.66810389197603,-0.0357136653433429,-0.0214835652981579,0.0416774455812314,-0.0016294147265374,-0.144506519209037,0.144552591040907,0.0093217275435239,0.114769534953579,0.0409560697665405,15.464859744933,0.98778425610986,0.695829353659657,0.176575267178544,0.240173045310259,0.143936160168479,0.371895051832142,0.159445662029534,0.0365046911783765,,,,,1.74106956136438,-91.9626622500687,1.51455627064055,AttemptLanding,AttemptLanding,1,0.453018918480248,0.158503329696891,0.179241169653701,0.898483973762539,0.336028373258454
71,1.62402388595399,2.2932505607605,-0.183926662693452,-1.6029426604849,1.62402388595399,-0.0359005694107273,-0.0253510522798823,0.0439491380542528,-0.0036819998564157,-0.136047087133991,0.136169725229054,0.0087808363553764,0.114535023828593,0.0405070925973416,15.4688856405391,0.895799944491311,0.63263647585785,0.17769726146329,0.240171272607133,0.112687795880607,0.425709455270144,0.159454421263925,0.0374624174401579,,,,,1.67774962146967,-95.9395937551425,1.74035383290263,AttemptLanding,AttemptLanding,1,0.441174454773867,0.158633343808076,0.179671335208668,0.899142225965612,0.349916535164175
72,2.61953613241514,3.0,-0.605730326612506,-2.515295461961,2.61953613241514,0.0030022365837513,0.0040428761188558,0.0050356997346177,-0.0282282249607717,-0.329478923758024,0.331789613862492,0.0214093119639724,0.197368056543827,0.0741969353379289,15.4599495003178,2.0814541589668,1.80879847791634,0.0198749661538588,0.0506972913952608,0.128667169438286,0.397562032963574,0.0004504221453692,0.0042920173355355,,,,,3.0,-102.28205700878,2.238332812681,AttemptLanding,AttemptLanding,1,0.713382355711622,0.0865275818246077,0.0536774702914871,0.959496246204703,0.342814591360762
73,1.63672992282984,2.46819615364075,-0.174620256610262,-1.60408414437524,1.63672992282984,-0.0550546480277744,-0.0139960143248392,0.0568058332078954,-0.004814946585591,-0.140289026145601,0.140548140747312,0.0090651898946984,0.173417842352307,0.0583709856319811,15.4320236782007,1.23170880215317,1.06926754227313,0.176357434349836,0.2402564601025,0.162049061385086,0.465051783584417,0.156635744660142,0.0394461112637974,,,,,1.730743683828,-94.7490683234343,1.86938894060845,AttemptLanding,AttemptLanding,1,0.448135509881021,0.197494304687235,0.202456509787522,0.893742182976018,0.327978194939962
74,2.52016433823309,3.0,-0.573967214854047,-2.424936530631,2.52016433823309,-0.0002310857882961,0.0170166760853723,0.0170182450809722,-0.0259636216238219,-0.31581467362087,0.317910199283302,0.0205006455148993,0.183736126270243,0.0694712897415024,15.4848267160247,1.06810056306313,0.642795187847566,0.0634285249682135,0.240304758473505,0.103478426645324,0.268650222186661,0.0019098677345389,0.0118267305954383,,,,,3.0,-101.440236798872,1.78809944304736,HoldLanding,HoldLanding,0,0.685938081477124,0.111083035495733,0.0717992807091117,0.954842985187309,0.354009588157634
75,1.65965236206444,2.38574075698853,-0.170716818473735,-1.63996799255137,1.65965236206444,-0.0379135107970774,-0.0205011223462798,0.0431013957827033,-0.0032536333924903,-0.141431945652821,0.141524694048416,0.0091277867643389,0.112506291337694,0.0401413381363455,15.4481212524985,1.18743634327352,0.995628271938168,0.177086570894245,0.240164048467063,0.144338354627128,0.472017625721152,0.156566770790399,0.0410097003664515,,,,,1.72844746755899,-95.0560971705178,2.01189790292184,AttemptLanding,AttemptLanding,1,0.450602230844453,0.171271811418082,0.187260936628322,0.894304064004786,0.335849620165721
76,1.76355071226756,2.58620548248291,-0.227968606021276,-1.73213365547286,1.76355071226756,0.0011695615731544,0.002143923262958,0.0024421877959837,-0.0057805150653417,-0.158312245320611,0.158553546908197,0.0102294674959326,0.143713890856425,0.0502747945040802,15.4616296551258,1.8266987790308,1.750057052336,0.0276306608832624,0.0677967030583596,0.114186347216758,0.458871845489769,0.0006933535829854,0.0056031295615223,,,,,1.80133462105751,-96.2777836497926,1.95556840273007,AttemptLanding,AttemptLanding,1,0.480335148838831,0.185545057727718,0.11367269344336,0.958081588026201,0.349250512348107
77,1.70379138073954,2.45104193687439,-0.147068045761879,-1.68679271260894,1.70379138073954,-0.0408020522701709,-0.0359271942613551,0.0543651612427564,-0.0028374276936352,-0.150102255637214,0.150175321311764,0.0096849619923485,0.112258311636665,0.0404569668856436,15.4746922313966,1.09478417745589,0.944969261431933,0.177549830655538,0.242882028020893,0.135845474770627,0.415810201014649,0.156638290910023,0.0429944929880872,,,,,1.75923009576763,-93.8331549635916,1.78345208141684,AttemptLanding,AttemptLanding,1,0.462435761574338,0.178098321358181,0.192110372083718,0.895198450509541,0.339624233435277
78,1.77337415850892,2.55875539779663,-0.199906947792397,-1.74498190201519,1.77337415850892,-0.0402684338980232,-0.0159614832781894,0.0433164601166738,-0.0048967906862894,-0.162610864992131,0.162804182772433,0.0104974589352399,0.14130944214559,0.0497410538983448,15.4993250029804,0.755899231466528,0.509526076207777,0.175892364838252,0.240203100172995,0.105009881605021,0.373289687132025,0.159511093313227,0.035779459592744,,,,,1.84421771642335,-95.6415120879709,2.45953697481458,AttemptLanding,AttemptLanding,1,0.482847986382049,0.184652129861124,0.194695809746178,0.902111190163433,0.353328941508879
79,2.62669666449229,3.0,-0.397090350211646,-2.56329999243433,2.62669666449229,0.0051203808404042,0.0019571650982152,0.0054816781347002,-0.0167792247674588,-0.341538938226597,0.342464639864878,0.0220980788369611,0.199319633874413,0.0752645453481966,15.4599286742729,2.06915943858381,1.99698015720151,0.014153635678647,0.0457425956469341,0.136758467359887,0.407374223689426,0.0003786312894381,0.0078546353353271,,,,,3.0,-97.5958361626102,2.46675587024729,AttemptLanding,AttemptLanding,1,0.71550535293425,0.08499822481393,0.0540234464924697,0.960974942479506,0.339218458951161
80,1.78443095067731,2.5922064781189,-0.24809669748718,-1.74688412685633,1.78443095067731,-0.0493022329977934,-0.0186217257744158,0.05270179170945,-0.0071151074054019,-0.162233267961507,0.162618242646712,0.0104882894897097,0.148213849267518,0.0518059574230523,15.4308925946273,1.22858230022429,1.01160468389176,0.176243447910091,0.24023310451833,0.154210110900545,0.467918926964631,0.156635067083654,0.042653236168255,,,,,1.84269174465958,-96.4089816842801,2.27055788896692,AttemptLanding,AttemptLanding,1,0.486209444998561,0.191411488821089,0.199972746360713,0.894276806884043,0.331462172933091
81,1.85040153208233,2.94331312179565,-0.20698455889244,-1.81320680793268,1.85040153208233,-0.063586234347075,-0.0292594687667276,0.0699951834839529,-0.0064065285831503,-0.179391090200647,0.179723043408043,0.0115901106254708,0.189775848565457,0.0650458320074668,15.4834588422929,1.03828367900906,0.766323721676556,0.177225324194825,0.240333187822669,0.165680021115066,0.41203213541746,0.156743846887606,0.044994557236644,,,,,1.90149022471625,-95.3637271300002,1.5,AttemptLanding,AttemptLanding,1,0.506449574956782,0.258737557990889,0.241268123921542,0.897208279754344,0.326364435059971
82,2.59014432350794,3.0,-0.403412176364228,-2.52312423434215,2.59014432350794,0.0048721624531159,0.0068390232719766,0.008397035565257,-0.0173566374263608,-0.3322912465522,0.33332006283159,0.0215001467763242,0.209325539790693,0.0778477646806349,15.4654124494908,1.4904598504408,1.3007976505223,0.0325717969770096,0.0599560403804408,0.0974194098595772,0.40652607829522,0.0122460840665041,0.0038773060156264,,,,,2.91783086718893,-97.7855854258006,1.73806557584685,AttemptLanding,AttemptLanding,1,0.706274705871579,0.0937569837310095,0.0631068237283909,0.961782792575356,0.356702484506855
83,1.70549218265378,2.37096047401428,-0.292505947612887,-1.6697292686161,1.70549218265378,-0.0461831568529687,-0.0232630421254912,0.051711247382347,-0.0065008338571761,-0.147059111562177,0.147327117625972,0.0095007041534341,0.114575655746419,0.0410231896313295,15.4570068075646,0.983794691138846,0.755742852338992,0.177197837513605,0.240189367870125,0.138189812210554,0.375043432099766,0.156692113009115,0.0399913234942322,,,,,1.75027764965131,-99.5200046041142,1.95828034632518,AttemptLanding,AttemptLanding,1,0.463002553300606,0.159210760909544,0.179709695113337,0.897733286258729,0.338582305684198
84,2.65201184419122,3.0,-0.448770052217222,-2.57894860335438,2.65201184419122,-0.0260168786528466,-0.0113842675549268,0.0283985831090057,-0.0173991825928195,-0.340968312926708,0.342037067981001,0.0220638043704554,0.206008358010294,0.0772471704624068,15.4682165908918,1.5563599722032,1.06986523300773,0.0633234639853343,0.240310492413836,0.114969286487559,0.411842692007678,0.0018916583302626,0.0097452462324801,,,,,2.95681470906161,-98.270421652992,1.67264475829335,HoldLanding,HoldLanding,0,0.722652592543474,0.083503741960293,0.0544867081145682,0.947703641394961,0.348902539338863
85,2.02759103142485,3.0,-0.428089571836426,-1.95511582469215,2.02759103142485,-0.065113053346852,-0.0214545138932973,0.0685565889068854,-0.0162003136519265,-0.207232528084562,0.208525764686957,0.0134474272701829,0.194370187590604,0.0677242553663091,15.4819413474144,1.08352297986765,0.827720948510424,0.17580957075747,0.240353197924565,0.166428204320846,0.448928580565134,0.156391856593153,0.0411285116399588,,,,,2.10680641889481,-101.731697741666,1.5,AttemptLanding,AttemptLanding,1,0.554235792786556,0.23136072589567,0.223279749771112,0.897078298041152,0.326031909190735
86,1.95434926907221,2.81258058547974,-0.542612619168726,-1.85728981713733,1.95434926907221,0.0031885912939567,-8.5769240912653e-05,0.0031897446296817,-0.0199226345577608,-0.182007072365286,0.183892180368858,0.0118674527506481,0.158377679282848,0.055820520710308,15.4489329515742,2.19902651215978,2.22968647799647,0.0215246680495365,0.0596838526025167,0.146621806593722,0.474439054056068,0.0004304608882128,0.0078209965501573,,,,,2.01104491577433,-105.279667622794,2.25902640929335,AttemptLanding,AttemptLanding,1,0.532323909227986,0.193686832707134,0.119247414320109,0.95444063533829,0.334834752625012
87,1.99285258160156,3.0,-1.13711096564934,-1.6014365702439,1.99285258160156,-0.0818802282045208,0.0076925341804104,0.0822407858239523,-0.0754906932408967,-0.141062725373225,0.166995077248307,0.0107706066283982,0.199744432669763,0.0674627544408075,15.4548602410817,1.18140091226842,1.28757611911152,0.176775732539527,0.240297989680707,0.164109195056041,0.485722748193525,0.156674587124391,0.0393064789805526,,,,,2.06469467336038,-124.238920485483,1.99111208469721,AttemptLanding,AttemptLanding,1,0.544919905981912,0.241685646540706,0.228937802841323,0.89221302848368,0.327062579975093
88,1.95499330150838,2.84245872497559,-1.10938827523965,-1.5879618783363,1.95499330150838,-0.0585731092858595,0.0075686848198326,0.0590600890730382,-0.0686122148277656,-0.133915732733422,0.154518431959556,0.0099629396881563,0.145170261280728,0.0505251361659279,15.5012802317658,0.682226977670967,0.783599160107806,0.176310210179574,0.240244132167034,0.132892709621279,0.475869898176998,0.159522438473357,0.0358927332830641,,,,,2.00959748573364,-123.70580417537,2.14889805429081,AttemptLanding,AttemptLanding,1,0.531436574302086,0.210507403276845,0.210255206521845,0.900327689541951,0.340936573501654
89,2.63000157078107,3.0,-0.246133206568936,-2.58568482131429,2.63000157078107,0.0071291014747341,0.0057664124686818,0.0091692748129841,-0.0096569691141204,-0.347176669696553,0.347632789556522,0.0224339934773289,0.193645036964201,0.0737973065233906,15.449986618776,2.11135101709015,1.8967408293097,0.0341679100712452,0.0725516728067334,0.13697437467927,0.48821125407079,0.015473543820775,0.0080850074007124,,,,,3.0,-94.0907171926139,1.67398761929183,AttemptLanding,AttemptLanding,1,0.716093213512964,0.0849306802899726,0.0607755414521628,0.951423894742664,0.339122500142547
90,1.93000460157589,2.83465075492859,-1.04888726956286,-1.58762514484177,1.93000460157589,-0.0704905370083752,0.0053666406406394,0.0706945304779293,-0.0644956700053433,-0.138306963676764,0.158337808232403,0.0102100336550261,0.194867648494028,0.0656073181067267,15.4754282320179,0.822063149895236,0.775398348874517,0.176806837618016,0.240270836267795,0.137787030796858,0.40761316737662,0.159488609126895,0.0360100502285028,,,,,1.99637079272466,-122.311062912018,1.76800964247929,AttemptLanding,AttemptLanding,1,0.527789357374916,0.216506048425311,0.213882019053262,0.899045097986373,0.338761319645841
91,1.87009551898152,2.56503248214722,-1.1177703227642,-1.48372741985391,1.87009551898152,-0.0431522910994224,0.0042573436259911,0.043361794264987,-0.0681610715272016,-0.116702590519094,0.138173179693889,0.0089100604566499,0.130027168700732,0.0452451929298745,15.4835100940829,0.915702476851928,1.02803843825574,0.176991866734896,0.240224563465539,0.159440873197488,0.511759312996523,0.159501042775901,0.0345349441443895,,,,,1.94546366280019,-126.251978914843,1.78645916733903,AttemptLanding,AttemptLanding,1,0.507741176981047,0.164310478994196,0.182033801248414,0.896231816585278,0.329137389690005
92,2.61625312844912,3.0,-0.472786696447751,-2.5402406565966,2.61625312844912,0.0055648738917184,0.0046348289916681,0.0072422000257337,-0.0206867791951931,-0.335937198843114,0.33726667085862,0.0217580170238919,0.203341015891721,0.0762329166842406,15.4634671061415,1.71066449224867,1.4827761287948,0.0329135014660981,0.0550266227469614,0.110292436186211,0.457283721572959,0.019571722398577,0.0037168418472388,,,,,3.0,-99.2513675644137,1.65844365596702,AttemptLanding,AttemptLanding,1,0.712914084256614,0.0876707827703321,0.0626525918039971,0.958451930101609,0.350981139472795
93,1.65875287526319,2.57108283042908,-1.0043292114267,-1.29327224269925,1.65875287526319,-0.0653423121004767,0.0076830180733708,0.0657924503066412,-0.0580575159565071,-0.0931684133118858,0.114698589629419,0.0073958305359147,0.178526766309331,0.0587351112679395,15.4926665620248,0.759444484545278,0.910440703338489,0.177046354175727,0.240259229513811,0.143697809713153,0.410748203834421,0.159493626720797,0.0387721539958754,,,,,1.74681180591764,-126.657123786368,2.23791563622443,AttemptLanding,AttemptLanding,1,0.454081122323771,0.217336189135209,0.215386734890889,0.898356296435907,0.336134306794154
94,2.63408141424306,3.0,-0.2441242546225,-2.5916046059861,2.63408141424306,-0.0170227073180834,0.0038221415475721,0.0174465277475722,-0.0094327308632649,-0.355150075655347,0.35557003357318,0.0229461819513522,0.198841669574327,0.0757148282382447,15.4335575396247,2.04446829988757,1.53053545139255,0.0629223355077059,0.240325414006344,0.141789925443148,0.429637524087497,0.0019079228028386,0.0074497445845405,,,,,3.0,-94.2734617915732,2.15490491647697,HoldLanding,HoldLanding,0,0.717564676112464,0.0855302118823672,0.0548750908503129,0.940449517057517,0.336982255358601
95,1.78135826068671,2.70658540725708,-1.12674524338454,-1.34676906017905,1.78135826068671,-0.0620426987205431,0.0133122079474305,0.0634547976512708,-0.0728817379059549,-0.100015556733033,0.130202562725562,0.0083959207993518,0.178037775008218,0.0592884770620118,15.4799809719994,0.837952842495311,0.986169180351684,0.176142157611136,0.240249640165184,0.143294156265381,0.379508771296764,0.156678465144721,0.0426809284517007,,,,,1.86493072097439,-128.583435678336,1.78921047758747,AttemptLanding,AttemptLanding,1,0.486886564928857,0.219809487547734,0.217040903545094,0.897596533872063,0.336313708326497
96,1.73234214584033,2.47003436088562,-1.06157469898318,-1.35372367045139,1.73234214584033,0.0077587369391297,0.0048869263417543,0.0091695173242842,-0.0609623095749436,-0.0967236063669651,0.117063127471362,0.0075588197130198,0.12431470874784,0.042585586423466,15.4142617404562,2.67400872800736,2.39598652608486,0.0275888460309044,0.0785933157293042,0.156810277952672,0.51383174328536,0.0016092233299722,0.0038052543053573,,,,,1.76269102467469,-127.19753908103,1.97944319594411,AttemptLanding,AttemptLanding,1,0.470475022842114,0.16766182656131,0.102696035143974,0.946369899988109,0.930306543132146
97,1.76955508050464,2.5601110458374,-1.08832775084793,-1.37354838613185,1.76955508050464,-0.0515030455324432,0.0072114504495359,0.0520054681423313,-0.0653888027703082,-0.101378272764644,0.124796295471722,0.0080473693049015,0.140342700309223,0.0477359686061979,15.4591526602222,0.796814139069454,0.880083872870665,0.177205632477642,0.240218251607239,0.145399481903573,0.401323178130514,0.15952525085009,0.035685110628706,,,,,1.81622668042125,-127.513201967813,2.25601384004715,AttemptLanding,AttemptLanding,1,0.481428548522478,0.187409428025965,0.196322172169491,0.898221556524507,0.335378008042856
98,1.86894722779592,2.58315110206604,-1.17950549529603,-1.43422629642004,1.86894722779592,-0.0474961310234969,-0.0009406055581454,0.0475054439092743,-0.0748646285331988,-0.109642757687238,0.135918260175569,0.0087656388595003,0.126268982599921,0.0440166419816266,15.4704344313346,1.07443966936001,1.21731453613493,0.176916181796803,0.24025098880001,0.196339725090044,0.51564944393769,0.156690777103385,0.038085560065981,,,,,1.91962505408224,-128.853168090004,1.81456767776644,AttemptLanding,AttemptLanding,1,0.50718925580857,0.169405203094144,0.185132761805217,0.893535268915567,0.31273789995998
99,2.66448166489601,3.0,-0.192133645036886,-2.62420366248492,2.66448166489601,-0.0130240653120213,-0.0149509753441301,0.0198282107360342,-0.00670842044495,-0.357967109193069,0.358262305642034,0.0231121039244391,0.195157300953389,0.0747256630331241,15.4645899876079,1.70157587899694,1.43371198016162,0.0302115122133587,0.0522821756021245,0.117903175985669,0.433513674730452,0.0048770280495156,0.0050540254804664,,,,,3.0,-92.2002194325483,1.82113710473581,AttemptLanding,AttemptLanding,1,0.725473576578894,0.0791267973666704,0.0514814738894515,0.960259839285646,0.347598588450814
100,1.44653677332933,2.22774815559387,-0.878277530487879,-1.1379719751099,1.44653677332933,-0.0091271001242572,-0.0272577336656879,0.0287452257125908,-0.0439276821745392,-0.0738119907449311,0.0878430696631673,0.0056638096488739,0.117015482740835,0.0390693115764623,15.4919183585331,0.592293787872654,0.725198025266514,0.16606436468196,0.240174096388741,0.112696620026023,0.334788276357581,0.157331569798162,0.0397256578334731,,,,,1.68546986904653,-128.540481584722,1.79175407880159,AttemptLanding,AttemptLanding,1,0.39355700186978,0.181042519056831,0.192996347324241,0.90661609627007,0.349912613321768
