scenario_id,mean_wind_speed,max_wind_speed,wind_velocity_x,wind_velocity_y,wind_velocity,wind_acceleration_x,wind_acceleration_y,wind_acceleration,wind_body_force_x,wind_body_force_y,wind_body_force,mean_wind_body_risk,mean_wind_gust_risk,mean_wind_risk_raw,min_thrust_margin_n,mean_abs_roll_deg,mean_abs_pitch_deg,mean_abs_vz,max_abs_vz,mean_tag_error,max_tag_error,stability_std_z,stability_std_vz,mean_imu_ang_vel,max_imu_ang_vel,mean_imu_lin_acc,max_imu_lin_acc,wind_speed_cmd,wind_dir_cmd,hover_height_cmd,gt_safe_to_land,label,success,onto_wind_condition,onto_gust,onto_temporal_pattern,onto_drone_state,onto_tag_observation
1,2.02290193043964,2.67765665054321,-1.24490655482049,-1.57654098507121,2.02290193043964,-0.0460180407344601,0.0179063522684557,0.0493791203303629,-0.0836485266146841,-0.130994547035142,0.15921236221759,0.0102685767684065,0.125991009384469,0.128752651969983,15.4408042062331,0.801709072246404,0.878300186547879,0.181698572804627,0.240299953697398,0.111045882238624,0.377379634708397,0.157898484523594,0.0426335043546615,,,,,2.0716688985117,-127.374480982322,2.31472368639318,AttemptLanding,AttemptLanding,1,0.565191045177901,0.156372650750537,0.179503787175635,0.895950640850017,0.350646274560611
2,2.26938535845403,3.0,-1.33057127841971,-1.79900502385766,2.26938535845403,0.0202246885002876,-0.001433697552943,0.0202754411445714,-0.10266946017111,-0.179236258325907,0.216142739425714,0.0139440584384696,0.23207605048054,0.233531728386081,15.4486419903415,0.9952841042311,1.27772398437259,0.0296333768872247,0.111994806333122,0.276084637296661,0.528942583412145,0.0024278484434979,0.0050975866618591,,,,,2.42882567996652,-126.095851442396,2.33524515102998,AttemptLanding,AttemptLanding,1,0.651875774598292,0.16810545855768,0.103795986764314,0.967323962288787,0.27729571675704
3,1.64924115758193,2.60928606987,-1.02223030594261,-1.27846738467364,1.64924115758193,-0.0363265488956477,-0.0154158278397911,0.0394622085374597,-0.0627422034295001,-0.0959723251764052,0.117705517972582,0.0075907663082622,0.141931335789899,0.142854055807513,15.465139102377,0.595765171340137,0.84551585094881,0.163552941955497,0.248438916340617,0.270311683134788,0.487076237858082,0.158864448493617,0.0051194523365262,,,,,1.87319628751653,-127.297520073929,2.37068070740659,AttemptLanding,AttemptLanding,1,0.468368453183351,0.223244843496682,0.206414946682192,0.906899178132838,0.279861474162316
4,2.268838921358,3.0,-0.642911860476963,-2.1466022912158,2.268838921358,0.0118887600097588,0.0064520628543778,0.0135267043157778,-0.0316748067767429,-0.255914019056111,0.259351098438834,0.0167263509763147,0.219571123076456,0.22010446181492,15.4416708682533,0.944269178543119,0.647693646580507,0.0594365345842031,0.240900777599311,0.280125319141649,0.699438375222554,0.0304560326751359,0.0879570316952824,,,,,2.46779887999601,-105.553838771394,2.42741832080321,HoldLanding,HoldLanding,0,0.649044604725117,0.166991138485676,0.145715072775609,0.957773453367641,0.275499858159267
5,1.62613710683054,2.56320142745972,-0.967228408036855,-1.28733576172378,1.62613710683054,-0.0459090131673235,-0.0083907017172578,0.0466694907332989,-0.0590817109403637,-0.100323435498714,0.12000145455337,0.0077387417875132,0.155038242579921,0.155969723692262,15.4677948141737,0.550040137805884,0.782920193049922,0.164880828372651,0.247642017039823,0.222789320434401,0.456663314624563,0.162997073722707,0.0058032747665579,,,,,1.88084050141636,-125.058018224367,1.86713179499516,AttemptLanding,AttemptLanding,1,0.464830506559929,0.21939554544267,0.206190752875655,0.907086326071236,0.300982524251377
6,1.88134326663703,2.61592483520508,-1.03338086302701,-1.55764598799839,1.88134326663703,0.0060468563481267,0.0033437895485866,0.0069098046455828,-0.0579283121327681,-0.127138123492402,0.142122844585558,0.0091722461005156,0.126370407147921,0.127538878550179,15.4170828295805,1.59243605073542,1.51351597206961,0.0297764915327112,0.0511603870780366,0.107605221662281,0.404238454447865,0.0207526319107836,0.0090538348366012,,,,,1.9161886291726,-122.783489357006,1.66137477851462,AttemptLanding,AttemptLanding,1,0.52719931347991,0.166547650446168,0.112444285804995,0.960707845483033,0.352175457038986
7,1.90885579586029,2.70130848884583,-1.06720927902489,-1.56708096633294,1.90885579586029,-0.0493169197978035,0.0017955402903711,0.0493495951683226,-0.0623679910461579,-0.13120621058811,0.148031716479312,0.0095492867566978,0.141495368969036,0.143792470581186,15.4297810568408,0.94426444713244,1.09105972344722,0.175269111253242,0.240260881833525,0.150274679597255,0.44739926588272,0.155560714429394,0.0421436701836718,,,,,1.96867067391655,-123.586570068552,1.67040513869332,AttemptLanding,AttemptLanding,1,0.537786706345648,0.187349281702604,0.196872635299396,0.896373611604539,0.333211253512331
8,1.91797069601111,2.72540068626404,-1.13490640602975,-1.52995955907497,1.91797069601111,-0.0596882496437183,0.0005932618305066,0.0596911978865425,-0.0702614812434387,-0.124728149054341,0.146333823567355,0.0094417224865841,0.131957784955548,0.134356809434534,15.3864210906654,1.09597134038943,1.19635310808157,0.176347986990265,0.240274786051233,0.174218514231877,0.473843797029225,0.157639002683986,0.0409915205831195,,,,,1.96461919299708,-125.030810267647,2.46024486001297,AttemptLanding,AttemptLanding,1,0.538330214156535,0.192615134086109,0.200536866907097,0.893814885838309,0.322569549230277
9,2.6205609263385,3.0,-0.802617267576612,-2.46183296858788,2.6205609263385,0.0110473378196142,0.0040459546310966,0.0117649233647131,-0.0422455421830922,-0.315508833482297,0.320354437302398,0.0206925917126835,0.195894334231026,0.19835450270113,15.3872017190479,2.24504796490302,2.11097489496441,0.0258275358734218,0.0558989181339203,0.149611509852198,0.415380524813378,0.0072192703815657,0.0080929928271468,,,,,2.98365709536118,-106.900241715489,2.01790976438439,AttemptLanding,AttemptLanding,1,0.738487147563827,0.0875306941907011,0.0586698876110487,0.952860338164331,0.333505995621245
10,1.88596216367709,2.89641547203064,-1.13707672375686,-1.47194416889233,1.88596216367709,-0.079780773769232,-0.0024455396193296,0.0798182468314551,-0.0751027131143154,-0.119403986728945,0.147746126441085,0.0095301476672188,0.189335738479064,0.191658737459287,15.4575645475533,0.938088411373133,0.991473518790028,0.175875222218537,0.240275333062323,0.172106321418885,0.413260673942202,0.15730703414289,0.0427906732088753,,,,,1.92399487038037,-126.353098118705,1.76912847059518,AttemptLanding,AttemptLanding,1,0.54125499113908,0.241985339631983,0.230665685979257,0.896901545153735,0.323508301591606
11,1.83676553940451,2.79522109031677,-1.14123368785984,-1.40863393812601,1.83676553940451,-0.0721132619332723,0.0126467988338843,0.0732138242916014,-0.0744340179037169,-0.109923502050329,0.138994325581885,0.0089645338775175,0.17432553640496,0.176487612327668,15.4425120249341,0.862743505299083,0.961050833952388,0.176384280472643,0.240271463338045,0.166332033442077,0.477565514205612,0.155593529921477,0.0400373558978151,,,,,1.90759543141243,-127.844704273722,2.16282113365767,AttemptLanding,AttemptLanding,1,0.525101666306736,0.22907503340872,0.221156738518629,0.897478047098131,0.326074651803521
12,2.62428166515452,3.0,-0.782721652433147,-2.46927583728903,2.62428166515452,0.0057939326032234,0.0040342480547017,0.0070600858619113,-0.04139792221374,-0.317264438864053,0.322071535079332,0.0207974995153854,0.197480768706624,0.199984993047722,15.3888223226244,1.9278234721028,1.99950003680154,0.0253239990474385,0.0777603410202489,0.135581495087656,0.51454644771504,0.0021240745340637,0.0079940033472776,,,,,3.0,-106.299635778902,2.05690287969375,AttemptLanding,AttemptLanding,1,0.739805442650751,0.0858309744149158,0.055349528083301,0.956480458620604,0.33974155773882
13,1.99576399213559,2.68092441558838,-1.06084768029863,-1.67595240652891,1.99576399213559,-0.0455878399002349,0.0092308313676994,0.0465130024241433,-0.0612467801267069,-0.148224829167842,0.162750397861633,0.0104990952357765,0.133694964703488,0.136372863994599,15.4488206940554,1.04567532090794,0.9891801035561,0.176682634282552,0.240241256486317,0.155629526620729,0.416738736284958,0.158323428541362,0.0339195625714884,,,,,2.02726066309477,-121.319262228342,1.68190129162695,AttemptLanding,AttemptLanding,1,0.559478304035077,0.162688479054637,0.18031344206302,0.895670533095078,0.330831321501898
14,2.67439908894097,3.0,-0.733085615136375,-2.53807350742303,2.67439908894097,-0.0237289917329934,-0.0086582633337017,0.0252592670641924,-0.0350840414646264,-0.329852730013471,0.333367951008802,0.0215208536550217,0.202658338522317,0.20466701004249,15.3751799654698,1.79280910723822,1.46055222984934,0.0632779973607147,0.240422630419981,0.128858519735408,0.458581905026565,0.0018642802776283,0.0086942838810584,,,,,2.96211416560549,-104.652706865072,1.84933755423753,HoldLanding,HoldLanding,0,0.754106492392756,0.0778910706167171,0.0507247691572399,0.94279887652824,0.342729546784263
15,1.75809262129101,2.45305228233337,-0.946582746112395,-1.46257519306096,1.75809262129101,-0.0538282101181644,0.007169759190662,0.0543036062465223,-0.0502950502491282,-0.114797746106665,0.128123787340283,0.0082642178421429,0.141895703211705,0.143981216782302,15.405051341016,0.908359742932002,0.982347026499251,0.17635036036381,0.240237326201246,0.164944955125854,0.484687249277603,0.158042907157326,0.0359988329852694,,,,,1.78867162897179,-121.8764556945,1.59978130751304,AttemptLanding,AttemptLanding,1,0.497620942367395,0.166321584879729,0.183124727719676,0.896969266629706,0.326691131055176
16,1.77284170313424,2.53423714637756,-1.00900269928449,-1.44297578459794,1.77284170313424,0.0035494687252948,-0.0001756171449652,0.003553810576473,-0.0554720630201017,-0.109472825440152,0.125155976236563,0.0080790035471005,0.125066099823669,0.126022152711736,15.4169905135571,1.85925011244217,1.82210902581681,0.0204392318717885,0.05404001684051,0.127194004477216,0.528740805785906,0.0002304227900303,0.0065872078096437,,,,,1.79698325918466,-123.928221238646,2.23004514695162,AttemptLanding,AttemptLanding,1,0.49796221804481,0.171965506668769,0.105677062424579,0.960855419406357,0.34346933134346
17,1.84395090525582,2.85683798789978,-1.02774961771644,-1.50012555300901,1.84395090525582,-0.0863532865496988,0.0045797886301185,0.0864746469309413,-0.0624692357916762,-0.123191581889949,0.143474972321216,0.0092558716732181,0.182157192570965,0.18439260146333,15.3513843133442,1.09288449407727,1.11243390147247,0.176250010243113,0.240265276933628,0.166601060643187,0.481190752283831,0.15638686277946,0.0425447040682799,,,,,1.90606506718967,-122.683382350962,1.83434447039986,AttemptLanding,AttemptLanding,1,0.528598761694219,0.243753278865563,0.231228041145139,0.894547493199124,0.325955084158584
18,1.80890613270772,2.45632719993591,-1.04598149121123,-1.45213753681866,1.80890613270772,-0.0537745630014323,0.0193775583688937,0.0571593683864237,-0.0611474388220039,-0.11345768781422,0.133078017112529,0.008584744999508,0.14927100608115,0.151278955285653,15.4040931341684,1.0439188664203,1.03469546575564,0.17697816616125,0.24021694670348,0.177472592184652,0.486774469584535,0.158871809345373,0.0375840224262264,,,,,1.87952489310621,-124.36494621675,1.56408340909885,AttemptLanding,AttemptLanding,1,0.51263075977919,0.156148957663853,0.177965984886601,0.895178947166564,0.321123292362377
19,2.62175972669717,3.0,-0.772615268868709,-2.46957105011827,2.62175972669717,0.0067931405500318,0.0031448813942562,0.007485789037665,-0.040627748127198,-0.317119422213889,0.321746144850649,0.0207721069640697,0.1990333384406,0.201562728975609,15.4096143086349,1.9580639457939,1.67746569959006,0.0278548079680037,0.0581700389198886,0.122113317117541,0.436886001567024,0.0127152684736692,0.0076996608087494,,,,,3.0,-106.031594526481,1.89887707708214,AttemptLanding,AttemptLanding,1,0.739448472914366,0.0864764561500428,0.0603369807804946,0.957507720230838,0.345727414614426
20,1.91361702857791,2.55985379219055,-1.03772288317163,-1.59346991592494,1.91361702857791,-0.0534747595613119,-0.0067976430911311,0.0539050819657527,-0.0589102354870185,-0.134074107948321,0.148833032490537,0.0096008807694427,0.121696434791055,0.12409715541842,15.432111988205,0.998887882238529,1.00913414398754,0.176726568648506,0.240262163301762,0.138501332156401,0.386556146235988,0.159628466552581,0.0351919753044697,,,,,1.95533603544456,-121.682915799118,2.10022870192886,AttemptLanding,AttemptLanding,1,0.535117305371126,0.155285870173233,0.176914589167319,0.895859399755399,0.338443852374933
21,1.97028175238016,2.62018847465515,-1.07947867155286,-1.63388239611277,1.97028175238016,-0.0451112764823934,0.0042750413990432,0.0453133892446203,-0.0635122793469477,-0.140986669105061,0.157225571826015,0.0101415456749431,0.139150574231381,0.141653474244504,15.4426663680658,0.982848693100644,1.0001316543667,0.176757979649023,0.240303713994266,0.180213170098757,0.457284147103564,0.159128863017151,0.0360126885019694,,,,,2.01006102178809,-122.843348050567,2.44427106224109,AttemptLanding,AttemptLanding,1,0.553739162150278,0.154536467206719,0.17654134253439,0.896040450302531,0.319905257733886
22,2.62700423668061,3.0,-0.737889265576776,-2.48867488068677,2.62700423668061,0.004543627454018,0.0057756153181811,0.007348624547799,-0.0372595147196689,-0.321962481817759,0.325756698750538,0.0210444915820218,0.189449232512098,0.192052580524938,15.3791537348343,2.32173460749107,2.20066500734115,0.0148151732178818,0.0543584591271469,0.151695773048726,0.484265866728818,0.0002802698254786,0.0097785766063593,,,,,3.0,-105.373889448931,2.49036136434704,AttemptLanding,AttemptLanding,1,0.738944979219817,0.0852712945806263,0.0548431871539313,0.957059273560234,0.332579656422788
23,1.74619601474089,2.54085183143616,-0.871295272424347,-1.48493975520922,1.74619601474089,-0.0884790708949644,-0.0056912697713491,0.0886619227066863,-0.0455508142071825,-0.120216414665373,0.132373132777531,0.0085372465886588,0.165184366618338,0.166607618364736,15.4449225956909,0.881615827228281,0.682005915853444,0.178792353776674,0.240451638297571,0.164565540032146,0.343115499725872,0.160898385226222,0.0049797768836346,,,,,1.75191981509009,-118.497538474994,1.70269488472933,AttemptLanding,AttemptLanding,1,0.498973794270517,0.195052244585995,0.190352568143159,0.898318223701735,0.326859759985713
24,2.57405068635941,3.0,-0.574555208029567,-2.47527821398377,2.57405068635941,0.0138838593666905,-0.0052977661419048,0.0148602784969984,-0.0286376556136788,-0.320524301549736,0.322929559654391,0.0208302002907029,0.192306058434855,0.193720049464226,15.4586982863323,1.08398825380449,0.885070631613891,0.0455612491611107,0.253359149383876,0.244025636382377,0.638457473545541,0.0026045319865773,0.0055637706594468,,,,,3.0,-102.185830974197,2.30688579039444,HoldLanding,HoldLanding,0,0.725157526255353,0.0985629799602501,0.0623185470786702,0.961748198462586,0.291544161607833
25,1.72828923044978,2.31299209594727,-0.936456238098418,-1.44157836443697,1.72828923044978,-0.042335861091646,0.0022703891717389,0.0423966956420226,-0.047718372862777,-0.11034232280888,0.121814615872341,0.0078574564348003,0.111463147789235,0.113329033386928,15.4407336586261,1.01764444767419,0.907316897202462,0.176431915776951,0.240242950726428,0.157853527029514,0.397079892457325,0.156440906865602,0.0416431587495403,,,,,1.79680657025774,-122.144595008979,1.95260602112665,AttemptLanding,AttemptLanding,1,0.483542934797327,0.139330872271305,0.168270782121065,0.896659345830351,0.329842876875771
26,1.83549573768341,2.78506183624268,-1.02843626171717,-1.4877646830129,1.83549573768341,0.0054707662901748,0.0007522831307527,0.0055222471613038,-0.0623033333527853,-0.121361129018163,0.142144514932644,0.0091770173748727,0.201876345702629,0.202979435586504,15.4080736563086,1.81347803865297,1.77515494584417,0.0282674463159716,0.055447508278508,0.126130961010506,0.45189179441683,0.0121882936557359,0.0060371213439785,,,,,1.89015622586425,-123.159855511628,1.87301816706975,AttemptLanding,AttemptLanding,1,0.530061417166211,0.214664784155406,0.136411206748149,0.957669874820965,0.343941795106442
27,1.72710047863625,2.53753781318665,-0.823471788303402,-1.50403732424472,1.72710047863625,-0.0420855500185866,-0.0001285688534259,0.0420857464032304,-0.0380007944900227,-0.120414079541088,0.127853933557662,0.0082464059469296,0.132908512194746,0.134991710324249,15.4427301338422,0.84274656977425,0.897882028366373,0.17636613801683,0.240240977528286,0.154586115023229,0.412501629670178,0.158849353419432,0.037323043349769,,,,,1.77620387229689,-117.832865156267,2.16779427408557,AttemptLanding,AttemptLanding,1,0.487558469701184,0.190064120447764,0.19821020066307,0.898140563434766,0.331295059989676
28,1.7259287060918,2.48213696479797,-0.970128338364463,-1.41289423495095,1.7259287060918,-0.0500478490744965,-0.0014494551352586,0.0500688337908195,-0.051898786626326,-0.106131164574892,0.120440139636053,0.0077687826131903,0.128407387509416,0.130324703480273,15.414136169894,0.944893281528234,0.923418464271723,0.176144976747263,0.240182726921866,0.142717497630023,0.455235295233379,0.159693923432484,0.0381110136794842,,,,,1.77693740749085,-123.63065316624,1.56766953899285,AttemptLanding,AttemptLanding,1,0.486312595653869,0.179326144403872,0.19242931415233,0.89724791933794,0.336570001053323
29,2.61293825975629,3.0,-0.52321819569778,-2.52471331107188,2.61293825975629,0.0063913634851306,0.0019247207012946,0.0066748840422177,-0.0240140338019658,-0.332813539519055,0.334593283679571,0.0216008051620847,0.200951309063848,0.203539154274936,15.3838870947564,1.92899206712749,1.71231877756785,0.0288800689968458,0.0525621932756083,0.118774234152411,0.450064874634644,0.0184533170993397,0.0068642624018845,,,,,3.0,-100.208461528465,1.57072111781415,AttemptLanding,AttemptLanding,1,0.737491366789997,0.0883126202959089,0.0636851418627857,0.956949666007542,0.347211451487817
30,1.84353740343311,2.63104963302612,-0.932049856620115,-1.57691709354746,1.84353740343311,-0.044178938859153,0.0122257014106336,0.0458393544206586,-0.0473350848330951,-0.13119575286798,0.14130552689474,0.0091133094033605,0.120507782149061,0.122712971373718,15.4394418629573,0.872573130825025,0.754642509895898,0.175711481607869,0.24023319206499,0.118323815023223,0.391115606943669,0.156347663784777,0.04110587158857,,,,,1.90894849737311,-119.745808657761,2.37328225513437,AttemptLanding,AttemptLanding,1,0.516152568523574,0.185594133302214,0.195791920220911,0.899358993447544,0.347411637767456
31,1.90718885853484,2.79602384567261,-0.950410874939336,-1.63181286118372,1.90718885853484,-0.0701206813722717,-0.0030531752416144,0.0701871201515468,-0.0516536359751488,-0.142014896736522,0.154169968973432,0.0099450046203402,0.155249303704048,0.157701541013765,15.3954522380201,0.998306121304817,0.99170012577724,0.177726994822477,0.240254682880666,0.130022730802942,0.4907941793882,0.155815293236291,0.0397620364912678,,,,,1.95935225919259,-119.13516242978,2.15991698102569,AttemptLanding,AttemptLanding,1,0.540124003812043,0.212855510800448,0.211423470279082,0.895500739218831,0.342212119643137
32,2.62480903150246,3.0,-0.647973935658134,-2.50770344207058,2.62480903150246,0.0061626378644565,0.0047619401241227,0.007788079300711,-0.0317447239335104,-0.327262640890285,0.33018253805379,0.0213205186726661,0.200675739525763,0.203200820752242,15.4099435825288,2.09016053295776,1.74533782933506,0.030824476592254,0.053346450647185,0.142640116777026,0.406843683440631,0.0240520233646204,0.0062767010685407,,,,,3.0,-103.01941117063,1.68479120448193,AttemptLanding,AttemptLanding,1,0.740589239217771,0.0858457824504105,0.0644796943844964,0.954451703143001,0.336604392543544
33,1.88437498018548,2.68490362167358,-0.821787761307708,-1.67404400320124,1.88437498018548,-0.0623224276061678,-0.00098472145399,0.0623302066342474,-0.0395224328834769,-0.149549977923106,0.156876039811185,0.010120631336481,0.153520072121552,0.155941752974239,15.4286695905544,1.0512427521138,0.979568614670866,0.176627287730339,0.240249718104684,0.17942998402466,0.405230222503116,0.158502492482038,0.0364177712719751,,,,,1.93692079365451,-115.089103932968,2.18634830820848,AttemptLanding,AttemptLanding,1,0.533688345310977,0.191546148884435,0.198616067461982,0.895729981110094,0.320253340433485
34,2.68371562299052,3.0,-0.603653992799922,-2.5741760585503,2.68371562299052,-0.0335787752945698,-0.0071169183379001,0.0343246948553305,-0.0265266739473721,-0.340367045110415,0.342614849680311,0.0221176138576127,0.204560718749059,0.206656931619766,15.4060048312208,1.75375817066567,1.46715515878534,0.0633477852239505,0.2402992311296,0.146604799891412,0.464567552895125,0.0018315486244174,0.0092306215305017,,,,,3.0,-101.157933097739,1.72584051308722,HoldLanding,HoldLanding,0,0.756988885788092,0.0774568455506098,0.0506447185886732,0.943018931228053,0.334842311159372
35,1.81537932681071,2.65925049781799,-0.807065216069344,-1.60532556276664,1.81537932681071,-0.0531850409681263,-0.0050532938653619,0.0534245670237109,-0.038243408578813,-0.137841218339583,0.14529791824574,0.0093729299133274,0.148554143318144,0.150772735756281,15.3587729906008,1.0842404491111,0.9665389866568,0.17721020671231,0.240221500665081,0.143254047512777,0.508685129132492,0.158464711182773,0.0354932941420738,,,,,1.86137587595629,-115.841095627455,1.94784198980002,AttemptLanding,AttemptLanding,1,0.514255700967445,0.199665517430986,0.203134723399568,0.895281629648526,0.336331534438766
36,1.95758068162861,2.9368417263031,-0.885774820641497,-1.71549112582224,1.95758068162861,0.0061422940959468,0.0034643549393091,0.0070519168958957,-0.0483515570376031,-0.159619809004763,0.170502551603142,0.0110112746363526,0.212417709093173,0.213690594308416,15.3709902135059,2.03745079453514,1.93251875791666,0.0303904441478022,0.0723508707333561,0.129420810394097,0.486822043132207,0.0211388488414195,0.0072543295797535,,,,,2.00134863438598,-116.022448666907,1.71696384420272,AttemptLanding,AttemptLanding,1,0.564759633962645,0.221626586482675,0.145008933848126,0.953612160013978,0.342479639824846
37,1.80218814514779,2.54424428939819,-0.812736720940773,-1.59433058989809,1.80218814514779,-0.055075586966068,-0.0090175521747201,0.0558089287379781,-0.0371589265999723,-0.134885714814408,0.141349832189091,0.0091177674918239,0.13133383541987,0.133653415045236,15.4329450378964,0.982331029580496,0.939510998850873,0.177053900096923,0.240256628266684,0.167031913055304,0.457454826630004,0.15889020335491,0.0347140872600745,,,,,1.84847057739295,-116.145839673518,2.27154379912732,AttemptLanding,AttemptLanding,1,0.507314188381791,0.177194269391637,0.189557734250929,0.896372862585292,0.325763594197643
38,1.92948217488624,2.70664882659912,-0.768339717128118,-1.74938710616094,1.92948217488624,-0.0651975094007262,-0.0099121644962394,0.0659466923890675,-0.035262167501312,-0.162424823536053,0.167979763707516,0.0108357419968161,0.142157362581567,0.144885943669761,15.4525846625014,1.00902028438416,0.940338742979771,0.177022872486556,0.240263629145274,0.179182523437356,0.447690650831551,0.159654369870518,0.035252758573528,,,,,1.9993932608471,-112.620106358339,2.426150727185,AttemptLanding,AttemptLanding,1,0.543505768703616,0.186952723573394,0.195948316800095,0.896172171398862,0.320363322916731
39,2.61588895639847,3.0,-0.629480276088849,-2.50582129802305,2.61588895639847,0.0083170610001325,0.0014281239020175,0.0084387819950179,-0.0297707890476329,-0.327697002154856,0.330266592673782,0.021329812314202,0.198998881126118,0.201558370237059,15.3717250296683,2.13197971070198,1.93178689223066,0.0191766518691484,0.0698852675003444,0.135368869905008,0.518201682839678,0.0001441811601781,0.0069542491095888,,,,,2.9987372183553,-102.731971335258,2.29218022718687,AttemptLanding,AttemptLanding,1,0.737882062420337,0.0879720948427643,0.0553761552793256,0.958482079328098,0.339836057819996
40,1.89202211527216,2.61506319046021,-0.29653409502823,-1.84801744836125,1.89202211527216,-0.0634699296835564,-0.0104923509069275,0.0643313407414278,-0.0088583303245913,-0.182361976167085,0.182835823180828,0.0117929682370496,0.158725429226031,0.161658787792512,15.4527503470014,0.995326720435809,0.715896731115769,0.176515991920934,0.240248719142627,0.155161344462426,0.412357279787381,0.154575046707081,0.0412105716363356,,,,,1.96262077332345,-97.9255988407311,1.59624139763835,AttemptLanding,AttemptLanding,1,0.536870988297746,0.174478321053238,0.188372675803858,0.898296676920199,0.331039402461144
41,1.89214647299535,2.82584643363953,-0.265971256182904,-1.85199080160436,1.89214647299535,-0.0615215504404103,-0.0274378643930481,0.0673627313211337,-0.0076964606661573,-0.182209745896721,0.182589702782213,0.0117788458425612,0.152478904253795,0.15542964842611,15.4067952653728,1.1135045364901,0.788688654296193,0.177170640989131,0.240292664815634,0.140690982191407,0.412610899188889,0.158746615377802,0.0346985435426102,,,,,1.94919332297993,-97.076725643542,2.33536845880383,AttemptLanding,AttemptLanding,1,0.535658322483981,0.222432325220482,0.216631098608625,0.896468875863542,0.337470674581597
42,2.61787060869976,3.0,-0.631474452458635,-2.50953374971701,2.61787060869976,0.0029263067204714,0.0029918733098125,0.0041850420456962,-0.0294247836721075,-0.32769012947496,0.330163982700256,0.0213169604654933,0.193549665820371,0.19623286293726,15.4115058847451,1.86093346443715,1.9810375129396,0.01572795043414,0.0497039584435881,0.127263312675863,0.399107154333073,0.0002125752663833,0.0064719881185911,,,,,2.97766096785849,-102.83550377438,2.42212927144997,AttemptLanding,AttemptLanding,1,0.737345401574055,0.0867463707509316,0.0544957505716716,0.961949109960684,0.343438527699616
43,1.82662978446161,2.570472240448,-0.245258020215004,-1.79964976931956,1.82662978446161,-0.040072331654065,-0.0269757254963932,0.0483061231134329,-0.005230289425379,-0.172299828068822,0.172461225246545,0.0111239358884601,0.133384036659371,0.136315641410761,15.4470863885336,0.946042018127151,0.640117608358814,0.176748778635143,0.240207556424499,0.14853186254753,0.39590895776559,0.15897603165697,0.037605878336446,,,,,1.87761184680711,-96.9149867627548,2.24601161455197,AttemptLanding,AttemptLanding,1,0.514364404138583,0.176220675167732,0.190063284020021,0.899162927902896,0.333985838867765
44,2.44610047562695,3.0,-0.593863923859128,-2.34214604663078,2.44610047562695,-0.0103435488070156,0.0241105951883108,0.0262356589827225,-0.0287065857097749,-0.303976811312577,0.306603323223836,0.0197922873189428,0.218074795008671,0.219792441380518,15.4113727836163,1.76320494765071,1.44084970215488,0.0626645018541054,0.240425896080375,0.130326756862216,0.369554724319056,0.0019774672458855,0.0075020713829174,,,,,2.70268226585959,-102.84402520654,2.34216375807523,HoldLanding,HoldLanding,0,0.69625194844329,0.129437263797436,0.0812692585673908,0.943493033967332,0.342076996950126
45,1.68529819642137,2.41131067276001,-0.236658855549748,-1.65610276077611,1.68529819642137,-0.0474028771468876,-0.0196291882718298,0.0513063133933228,-0.0051146417974972,-0.14447386424223,0.144665620369175,0.0093306564466428,0.118661627640736,0.12103712088738,15.463973819239,0.959291448888461,0.598164319300755,0.175297791642725,0.240206202559834,0.140516223339465,0.375466010041536,0.156453295273198,0.0403786942297344,,,,,1.74484723470437,-96.8322370152764,1.51470656884426,AttemptLanding,AttemptLanding,1,0.473620276556509,0.172758964631636,0.187873338216266,0.900113951714294,0.33754834518246
46,1.70421196641149,2.38037586212158,-0.232685243184302,-1.67637640411599,1.70421196641149,-0.0047588381576865,-0.0079356599126737,0.0092531745288128,-0.0049997469325044,-0.147359609377542,0.147527731924977,0.0095249552005309,0.119316118460591,0.120493993310792,15.3634950139602,1.71330706188197,1.74257640608711,0.0250011272171971,0.067156837928189,0.130425404201124,0.447157108610937,0.0068976267053601,0.0065516922421507,,,,,1.71876069037497,-96.5690723186371,1.82906427303274,AttemptLanding,AttemptLanding,1,0.478555323038555,0.153833291865054,0.0977480205306814,0.96034606628593,0.342033153688389
47,1.6744136977448,2.6626124382019,-0.160539550084983,-1.64290516920737,1.6744136977448,-0.0750781419753972,-0.0346821859647077,0.0827017619266268,-0.0048089916294891,-0.157117734481581,0.15735799966055,0.0101481698453782,0.182114889482139,0.183547091088749,15.4643341615964,0.699625491933827,0.66060044501319,0.174992835187892,0.241206009332866,0.230848063966604,0.456757576233674,0.143641123377234,0.0047217883942554,,,,,1.8330973949862,-93.5355183886098,2.17996142793608,AttemptLanding,AttemptLanding,1,0.483219737616364,0.237506706289396,0.208061537013955,0.90181609290147,0.297400860459287
48,1.69735149596189,2.67155790328979,-0.205341320788314,-1.66131052996598,1.69735149596189,-0.0669657012525792,-0.044001615744075,0.080128317917818,-0.0058731601173523,-0.150246792107493,0.150558906453712,0.0097121611589159,0.168463099201414,0.170792134429615,15.3596281776484,1.05979800857216,0.854361969715276,0.175979323395818,0.240224198934137,0.158268903565865,0.448272311389809,0.156294472139631,0.0411062177884288,,,,,1.76093856199151,-95.8152911333806,2.22130503549613,AttemptLanding,AttemptLanding,1,0.486785492475759,0.233886633267046,0.224743905359493,0.896970509901261,0.329658265081838
49,2.61554152630643,3.0,-0.680173399387775,-2.48951014467152,2.61554152630643,0.0069770401869268,0.0073522594659148,0.0101358181230785,-0.0338525687954272,-0.322819158942578,0.326176182414613,0.0210676904065586,0.203672506008063,0.206123500928906,15.4142321693651,2.23720642318133,2.07213344396343,0.0198644188945233,0.0500575329166293,0.145313328094792,0.393953918769494,8.5744959782012e-05,0.0055406405367053,,,,,3.0,-103.690253195533,2.25616214497049,AttemptLanding,AttemptLanding,1,0.738702440534163,0.088361389903617,0.0550697211901682,0.956208691596601,0.335416298624537
50,1.70240201486037,2.46074175834656,-0.170852620160028,-1.67673290045515,1.70240201486037,-0.0542338013411668,-0.0017012445106493,0.0542604777052152,-0.0040780297812717,-0.148664680071782,0.148825819355551,0.0095979915620788,0.131004825802906,0.133478036568367,15.4741362135825,0.937744045660215,0.437213583410099,0.175899331531386,0.240222545861934,0.113045795905035,0.381565401519749,0.155395302541535,0.0404486520030019,,,,,1.72627812567413,-94.411640590645,1.76638385818343,AttemptLanding,AttemptLanding,1,0.480669477943106,0.180574196530348,0.192117697553922,0.901247095720183,0.349757424042207
51,1.58965204857491,2.27729773521423,-0.121259282944406,-1.57484908090721,1.58965204857491,-0.0347829102603056,-0.0104409848179548,0.0363161811062953,-0.0021016606745541,-0.131876293135512,0.131930117106769,0.0085128585883823,0.115751085627947,0.117861239620429,15.3164388500782,1.15778389204115,0.914739415615282,0.177171262659298,0.240177124657766,0.141709028760707,0.459553501630473,0.15905195120214,0.0351816199398953,,,,,1.64198518080473,-93.7945426045898,2.38621403118291,AttemptLanding,AttemptLanding,1,0.447479460877396,0.161378246030002,0.180310020049621,0.895130256967336,0.337018209439686
52,2.62407377930389,3.0,-0.62981396970283,-2.51395745753108,2.62407377930389,0.0073116993901654,0.0062284890905726,0.0096049479084234,-0.029768189276031,-0.328785816852636,0.331346348555931,0.0214040669864038,0.194894241350475,0.197558067020752,15.3918055260909,2.2683073724723,2.19802942666182,0.0189463092392122,0.0591252992604903,0.143879969216163,0.452138997091777,0.0003400464500921,0.0092104947694636,,,,,3.0,-102.899260755177,2.3024073064274,AttemptLanding,AttemptLanding,1,0.739264621218522,0.0863443067731686,0.0553069866447572,0.955434199101483,0.336053347015039
53,1.71457125528439,2.38693952560425,-0.1404542584338,-1.69181957301617,1.71457125528439,-0.0551078790976124,-0.0247522067328736,0.0604115061621872,-0.0032161568372376,-0.152372111625951,0.152497108608455,0.0098365539684791,0.140074278552763,0.142681590737944,15.4145617710364,1.00405386655475,0.711064032902898,0.176276317745307,0.240195680172136,0.143029714922205,0.446640117656476,0.159653810311241,0.0374158531475669,,,,,1.76767167051157,-93.7767495596924,1.63308886598625,AttemptLanding,AttemptLanding,1,0.485755319556759,0.16235830361837,0.181977995979173,0.898385914774465,0.336431237812353
54,2.67697828410599,3.0,-0.592296891704407,-2.57186301182737,2.67697828410599,-0.0326632163443636,-0.0074709792487213,0.0335067341424605,-0.0253361038980521,-0.340341623842713,0.342301424017328,0.0220995851056059,0.209660756553471,0.211714129061466,15.4022997245722,1.76056132488321,1.53643415372679,0.0633114985025242,0.240212022025711,0.130439611331279,0.445506417192393,0.001853355419019,0.0085722813191743,,,,,3.0,-101.106544404973,1.5,HoldLanding,HoldLanding,0,0.756203701573889,0.0788227873356042,0.051234579127899,0.942439286273945,0.342026839408321
55,1.62189570310953,2.37886500358582,-0.142295273802872,-1.60436590370775,1.62189570310953,-0.0385028285487862,-0.0096020089017394,0.0396820662416451,-0.0027355674499962,-0.136723852265939,0.136801628635609,0.0088258264987353,0.113407412620972,0.115630125353473,15.3998177482551,1.01718740760115,0.8757450479744,0.176348698047916,0.242547374975749,0.160235052851177,0.429104879215908,0.155332118077346,0.0416631777382921,,,,,1.6954412846166,-94.4207914550518,2.48145725654515,AttemptLanding,AttemptLanding,1,0.455631545899904,0.177593138084798,0.190742626224432,0.896952610253663,0.328784420955033
56,1.70809949341426,2.43458604812622,-0.0946002116488789,-1.69493271326705,1.70809949341426,0.0018242349265683,0.0021949581276,0.0028540627619639,-0.0016459532007179,-0.150535043414099,0.150575946423409,0.00972285947388,0.116143811667293,0.11734165166561,15.4090010424252,2.02731103429322,1.95274304988297,0.0154355642934372,0.0744224739118237,0.137095641984108,0.44205952760739,0.0003103630002264,0.0065588372498488,,,,,1.73280982852964,-92.1431804697514,2.41890751884038,AttemptLanding,AttemptLanding,1,0.478961528576926,0.163982719649884,0.10091260262836,0.961010364334754,0.339068603562619
57,1.58952847223154,2.64842534065247,-0.217155844496917,-1.55385078219725,1.58952847223154,-0.0646586013039659,-0.0268962507016491,0.0700295867786693,-0.0058497990664066,-0.131635939537729,0.131941055788955,0.0085099257737508,0.166222346909047,0.168406591512646,15.4688477180003,0.850977296255429,0.696324315927007,0.176424976940719,0.240206393316722,0.13764038777146,0.365365531429864,0.155659904441876,0.0414243586811747,,,,,1.65239533729994,-95.8334835366937,2.25183670698635,AttemptLanding,AttemptLanding,1,0.457555577564273,0.251090552970798,0.234899914691214,0.899630141719636,0.338826494323796
58,1.64875714410871,2.29176259040833,-0.0932907393066006,-1.63641849155625,1.64875714410871,-0.0404431941566234,-0.0177199568504683,0.0441548278716246,-0.0015558101243044,-0.140652627754956,0.14068606974149,0.0090737567848559,0.105988279244301,0.108254126912743,15.4600051371855,0.88437873871982,0.627073981250995,0.176542724104007,0.24021105098583,0.140246646027854,0.37026132038581,0.158279956923831,0.0354908271192938,,,,,1.68060545220575,-92.4282145747537,2.37049833042379,AttemptLanding,AttemptLanding,1,0.461319397144873,0.152771277193877,0.174915169154136,0.899852938005369,0.337668157320954
59,2.52455799755045,3.0,-0.51175606944902,-2.44090214454614,2.52455799755045,0.0070381983516128,0.0080204692574467,0.0106707152125007,-0.0223304009600174,-0.312477952277762,0.314077733252943,0.0202789479536151,0.206281740827542,0.208739448309663,15.4081172756022,2.03015881977153,1.88152218214368,0.0288489014402486,0.0547486420486602,0.127795080568916,0.33016662642774,0.0201788552610023,0.0075377581985594,,,,,2.78982386220964,-100.41262924442,1.78860636219916,AttemptLanding,AttemptLanding,1,0.714963355675387,0.108930748340106,0.0770678321013591,0.954840912836256,0.343202186413815
60,1.70626139721355,2.22522377967834,-0.095230458642502,-1.690690480539,1.70626139721355,-0.0445739277398457,-0.0082155607603217,0.0453247225337732,-0.0019156925307528,-0.15039661047646,0.150451914822466,0.0097039812142643,0.112662880142854,0.115107345567291,15.4465558750605,0.731523525081521,0.761717047532686,0.175731630318803,0.240208488499971,0.157162917021665,0.378206813451033,0.159055119580835,0.0350480491234156,,,,,1.72864210057146,-91.9462754292346,2.46122439015035,AttemptLanding,AttemptLanding,1,0.478024508370404,0.125076068519104,0.158481550505399,0.900401580341487,0.330149814657038
61,1.59192939787298,2.4118754863739,-0.189671699501039,-1.5582243770574,1.59192939787298,-0.0614067665469632,-0.0269988406435389,0.0670800147126433,-0.0052673304079212,-0.133107408067052,0.13339478369673,0.0086044041122082,0.175142462939804,0.1772442465174,15.4299308864158,0.957847603916116,0.777401504927042,0.175695280751011,0.240207780217643,0.144842294375433,0.395284225324396,0.156384929839217,0.0404834727232726,,,,,1.6541677253945,-95.777639022521,2.01582466932178,AttemptLanding,AttemptLanding,1,0.45996335540294,0.196785872610026,0.202297199636352,0.898518259483584,0.335625646944252
62,2.60181779646156,3.0,-0.535797874483797,-2.51319165253397,2.60181779646156,0.0059184529006503,0.0065815570143681,0.0088512698224941,-0.0241082342081876,-0.329327052363018,0.33110987594278,0.0213888696416424,0.199595267756747,0.202207187456384,15.3927039716383,2.05962078486076,2.18247870397734,0.0265824441314082,0.0577786374985231,0.150360684596827,0.41576251245051,0.0077981488038186,0.0057892864663876,,,,,2.96888331606625,-100.576107342626,1.97516504910778,AttemptLanding,AttemptLanding,1,0.734259516547692,0.09121372859694,0.0602992761496587,0.953377996236282,0.333173029068077
63,1.54395865991309,2.23354268074036,-0.0744856152136611,-1.53224270367893,1.54395865991309,-0.0362448145369043,-0.0129335508783918,0.038483286231019,-0.0011740176578121,-0.124517135478397,0.124550015341787,0.0080359458356708,0.111013782132033,0.113090574296395,15.3720409493133,1.12089434632241,0.864001215654443,0.176832463880181,0.24017946079874,0.171494724745883,0.415622424239654,0.157819344486515,0.0364221882467271,,,,,1.60300708299886,-92.1234906695166,2.45417913396929,AttemptLanding,AttemptLanding,1,0.434340424169436,0.162211673828489,0.180713367269708,0.895988160072949,0.323780122335163
64,2.6054600943447,3.0,-0.581391299589843,-2.50862638366269,2.6054600943447,-0.0124705462341307,0.0126381847246381,0.0177549496341631,-0.0277870795962902,-0.337221589672102,0.339457309288144,0.0219124496468771,0.201523998748138,0.203520048745846,15.3757325556563,1.65225768162626,1.46710965273297,0.0625999090489306,0.240414887020686,0.122633644529516,0.378042613668918,0.001905552148197,0.0086826734245135,,,,,3.0,-102.201792877698,2.27581512745743,HoldLanding,HoldLanding,0,0.735493368241089,0.0920265528720392,0.0592201795798211,0.944190730705569,0.345496157986882
65,1.52468480814148,2.16196322441101,-0.140252016219014,-1.50380339751093,1.52468480814148,-0.0426698524246661,-0.0156494957763957,0.0454491256681381,-0.0029533280960669,-0.12010046771891,0.120211343065546,0.0077528947668584,0.111161048441287,0.113213308728898,15.4554693900357,0.899432609977542,0.600270384758016,0.177194066736724,0.24017260102837,0.109736415900714,0.380025090461445,0.158669402261111,0.03701195545522,,,,,1.55228808798252,-94.2268777224065,2.47862614442999,AttemptLanding,AttemptLanding,1,0.429225277250173,0.151719983366471,0.175010617250961,0.899619585958716,0.351228259599683
66,1.59089375419362,2.37526631355286,-0.122942731295497,-1.57572748823996,1.59089375419362,0.0043665097947931,0.0070185738859053,0.0082660018860351,-0.0021470622751676,-0.130685637487652,0.130737151040644,0.0084416933983364,0.117072916086683,0.118113046279305,15.412408968801,1.96215347783282,1.79383221207522,0.0229371227624592,0.053518883080755,0.127132142081428,0.385222061022676,0.0010328632605666,0.0074612131939121,,,,,1.60696450398557,-93.5145725727472,2.11202383899088,AttemptLanding,AttemptLanding,1,0.447860943707492,0.177999259534936,0.109971774493141,0.959020122483779,0.343496825741588
67,1.6530470328043,2.33012771606445,-0.102351072101621,-1.63272117791502,1.6530470328043,-0.055633769057893,-0.0375768379788603,0.0671351995012787,-0.0021283072930057,-0.142224358019329,0.142323287600333,0.0091790681170925,0.128133050766263,0.130332427978057,15.4337318473187,0.875541259091267,0.62442571030217,0.176190431897404,0.24019358215355,0.119929465003487,0.365040237794372,0.158907359526931,0.0365601289410028,,,,,1.70472744872138,-93.0615211949791,1.73737119185229,AttemptLanding,AttemptLanding,1,0.466879027676757,0.164651273642103,0.182710849650525,0.900119329291778,0.346698015554006
68,1.59636913038589,2.25082397460938,-0.124901164516066,-1.58069257785888,1.59636913038589,-0.0399860951816766,-0.0167355191919808,0.0433470346217969,-0.0022522965361721,-0.132365682090152,0.132427791360238,0.0085422576525957,0.117664222164259,0.119867634336079,15.4594319661698,0.894496235423301,0.775630595698299,0.176874244127348,0.242946782119579,0.16016852074094,0.379957348436662,0.15820815599976,0.0363282375684679,,,,,1.6346567991892,-94.1375227104005,2.28724968643305,AttemptLanding,AttemptLanding,1,0.449671961636786,0.155199296297614,0.176644581985177,0.898440452834656,0.328813990781804
69,2.61677999958944,3.0,-0.400480450036439,-2.55182710859594,2.61677999958944,0.0059599697310098,0.0039467000561126,0.0071482641618418,-0.0171447667632016,-0.338873003672881,0.339879197504552,0.0219437272587337,0.19927160982288,0.202027570052942,15.409455945164,1.69989465823958,1.88420522519513,0.0291638023679499,0.0651534600587771,0.127572907314041,0.442000787205978,0.0229567442165143,0.0046355529573799,,,,,2.97762147861884,-97.4745863886534,1.5,AttemptLanding,AttemptLanding,1,0.738213513901106,0.0875350151887133,0.0644096621636553,0.957257314017609,0.343300930082649
70,1.72366826884491,2.38565468788147,-0.0967525565075853,-1.7094194840149,1.72366826884491,-0.0542354934750077,-0.0226420469788865,0.0587720260317075,-0.0017026102503603,-0.154026205205489,0.154069216678948,0.009936819452283,0.126534532909161,0.12855958701158,15.4386639274327,0.88536021883484,0.550330708065289,0.182235628981956,0.240375153471715,0.151811226632709,0.349763737688371,0.130533692117887,0.0049888281082338,,,,,1.74106956136438,-91.9626622500687,1.87864330953309,AttemptLanding,AttemptLanding,1,0.485356789094291,0.159721815722373,0.155662183020125,0.897601756797664,0.332528343718796
71,1.55376146237055,2.39337825775146,-0.18882221080578,-1.52597029392722,1.55376146237055,-0.0472041279843246,-0.0270860519585836,0.0544231927533068,-0.00470185689052,-0.134262990027557,0.134467731816825,0.0086712920580908,0.154284828224673,0.155558868285739,15.4743753523384,0.662260486698926,0.646719924316685,0.169534732527409,0.241391709187511,0.217675587238709,0.45314300583302,0.140230757892134,0.0050199666715075,,,,,1.67774962146967,-95.9395937551425,2.37058252342351,AttemptLanding,AttemptLanding,1,0.445448163622629,0.198891364298811,0.183485042290682,0.904947787649744,0.303255294560574
72,2.61300503529832,3.0,-0.624135117265383,-2.50303794938523,2.61300503529832,0.0071744475090415,0.0046011046675447,0.0085230781541468,-0.0298079927931153,-0.326116340025589,0.328734404455936,0.0212257716943786,0.201369895254676,0.203955729797577,15.4246160681911,1.95551823263772,1.87706538230034,0.0303419588568586,0.0554059109379849,0.124196245982363,0.383910167756311,0.0187278502584615,0.0080805833348445,,,,,3.0,-102.28205700878,1.7452553577988,AttemptLanding,AttemptLanding,1,0.737592488705735,0.0886364313861371,0.0644437417753864,0.954715863597057,0.344801668452283
73,1.67426782566429,2.59416246414185,-0.192163180171516,-1.63971474690496,1.67426782566429,-0.0687652405888499,-0.028465992458359,0.0744242637846137,-0.0054959804454242,-0.146281165928664,0.146568068361778,0.009452796225851,0.167712480419763,0.170133947518243,15.4471321181737,0.912671761979537,0.473534036477823,0.175985054513441,0.24022599939593,0.106768563996412,0.374013876243849,0.157487208616226,0.0370964850298173,,,,,1.730743683828,-94.7490683234343,2.0926311124668,AttemptLanding,AttemptLanding,1,0.480498209680793,0.220620742017963,0.215856391071256,0.9011158557554,0.352547304890484
74,2.59046010176341,3.0,-0.54545312638203,-2.50150923235844,2.59046010176341,-0.0095993958142326,0.0163985378989759,0.0190015905971699,-0.025759382025594,-0.336825490002841,0.338783748959942,0.0218726890683318,0.200695225968764,0.202734184246046,15.3605964829272,1.84767507763126,1.4766605428579,0.0629316772964775,0.240478237167088,0.133947378963688,0.466728570152016,0.0019431334481123,0.0095400157365237,,,,,3.0,-101.440236798872,2.33724392205658,HoldLanding,HoldLanding,0,0.731336197319451,0.0956301020460479,0.0617107727249196,0.942414381476489,0.340467831571694
75,1.67295344403926,2.52849745750427,-0.190136299698726,-1.63821754479284,1.67295344403926,-0.074808801275761,-0.0434382410678672,0.0865057081086933,-0.0055575240471297,-0.146447347121759,0.14674300834333,0.0094641450687706,0.166212056550843,0.168611155698496,15.4526081599376,0.880231541350035,0.680391054445977,0.176096435959149,0.240215139347165,0.137124032056177,0.362609623901955,0.155519972688242,0.0413056487905203,,,,,1.72844746755899,-95.0560971705178,2.03287928135847,AttemptLanding,AttemptLanding,1,0.479843149550169,0.208356782849555,0.209154293494999,0.899689747339171,0.33905598575281
76,1.75898877673325,2.49521231651306,-0.227623838197093,-1.73280600511609,1.75898877673325,0.0021392054509659,0.0027638644266596,0.0034950173862796,-0.0049789876993331,-0.15720595391051,0.157378513276767,0.0101647508412031,0.120544150179282,0.12181987027124,15.3773560973853,2.23135018827953,1.9852808981604,0.0190480220830822,0.0589010056470191,0.142514910795773,0.42792409598887,0.000321440105362,0.007755833388588,,,,,1.80133462105751,-96.2777836497926,2.28913465967335,AttemptLanding,AttemptLanding,1,0.49342764784978,0.166291049637943,0.102737795102211,0.957345316136431,0.336660039646323
77,1.69908273300068,2.3500988483429,-0.137208052393704,-1.68213398643116,1.69908273300068,-0.0473182958111127,-0.0168855993151838,0.0502408656643265,-0.0026051627500553,-0.14909773785251,0.149168259062604,0.0096212038269756,0.114561169280118,0.117025888471286,15.4149497060335,0.910706435395725,0.595266171760797,0.175666960470124,0.24018544266119,0.118544675207269,0.337312153667973,0.155430878974309,0.03984626757174,,,,,1.75923009576763,-93.8331549635916,1.7235859905596,AttemptLanding,AttemptLanding,1,0.47649390649444,0.155689451323791,0.176983613293792,0.900333877851565,0.347313477685658
78,1.77849884452047,2.46864581108093,-0.198278489452659,-1.75033765279656,1.77849884452047,-0.0510917549999558,-0.019753052198482,0.0547772808756647,-0.0048674984647441,-0.162422460172028,0.162615864895844,0.0104908089209299,0.139024097952991,0.141684739932791,15.4167548011446,1.10152578972045,0.853669135276727,0.17674773624842,0.240235369832327,0.156830447645369,0.441374786161323,0.157754472278339,0.0347355205148718,,,,,1.84421771642335,-95.6415120879709,1.68490242585934,AttemptLanding,AttemptLanding,1,0.502603306525349,0.165325568969977,0.181939538541403,0.896263886036526,0.330297578824281
79,2.63889721962919,3.0,-0.410298155579852,-2.57465114795539,2.63889721962919,0.0080805949061898,0.0029148146508662,0.008590236229979,-0.0171230724817458,-0.343909637426201,0.344868234343037,0.0222682117666349,0.195182243556203,0.197936556911898,15.3497236219279,1.95840983994769,1.89390034555683,0.0302555810947911,0.0693515381713136,0.134334336567617,0.488450788316692,0.0231525138172298,0.0052379463612441,,,,,3.0,-97.5958361626102,1.51111834322201,AttemptLanding,AttemptLanding,1,0.743293236616831,0.0828230022255946,0.0618885152440729,0.954604057995069,0.340295850414393
80,1.79339123577685,2.46925377845764,-0.219778420458093,-1.76794338022575,1.79339123577685,-0.0402493847971583,-0.0146767597718709,0.0428418049800767,-0.0048542714564846,-0.165411302387334,0.165574797949498,0.0106796369858777,0.122872395665785,0.125668380246355,15.4346037996477,0.964033368180834,0.712045223388163,0.177001916115683,0.240210752050946,0.152701651655954,0.399862481334315,0.158277114016374,0.0360396558246285,,,,,1.84269174465958,-96.4089816842801,2.20126546470103,AttemptLanding,AttemptLanding,1,0.503371338923098,0.159923403016192,0.179404755207767,0.898329853008402,0.332132599264021
81,1.85857268201338,2.60429549217224,-0.204033227807521,-1.82762053728003,1.85857268201338,-0.0567459572335464,-0.0018797462950243,0.0567770825992771,-0.0051613476385496,-0.176609740681138,0.176823351516088,0.0114076449582274,0.150844869727523,0.153848370308768,15.4061394776135,1.09940967869315,0.888340921588637,0.176823411251143,0.241762838582055,0.139769770260874,0.464047774650925,0.159004110005316,0.035965467241556,,,,,1.90149022471625,-95.3637271300002,1.81796102757719,AttemptLanding,AttemptLanding,1,0.526389055931989,0.178196764095611,0.190664903517264,0.895970253943643,0.337880102106278
82,2.5770819502132,3.0,-0.401545325335504,-2.51410098557735,2.5770819502132,0.0070045350398357,0.0087405568492124,0.0112009305487804,-0.0166546562303619,-0.331260342287167,0.332207948777499,0.0214535594794879,0.201813658283788,0.204406365789046,15.3756146971985,2.17218715669857,1.77450683098276,0.0292255037995109,0.0556563600344939,0.132862076652008,0.42225844240369,0.018130618775044,0.006955121558549,,,,,2.91783086718893,-97.7855854258006,1.80036309013415,AttemptLanding,AttemptLanding,1,0.728103126547996,0.0972100651359732,0.068913226982692,0.954377509625606,0.340950188154663
83,1.68766454587112,2.34680914878845,-0.306412442461148,-1.64825796751876,1.68766454587112,-0.046562484915545,-0.0280177668164191,0.054342067120138,-0.0070953740135748,-0.144218380330185,0.144542304626878,0.0093250417298792,0.115880341732099,0.118159424497315,15.4198721506696,1.04419142480424,0.900578841595098,0.176118515977175,0.240524238068158,0.14466362899648,0.425898682138918,0.156037018133816,0.0421650579786077,,,,,1.75027764965131,-99.5200046041142,2.25678732233278,AttemptLanding,AttemptLanding,1,0.473675763798427,0.158270247961759,0.179644682970164,0.896660404203989,0.335705053779342
84,2.62988311222621,3.0,-0.440325261983693,-2.56010744161576,2.62988311222621,-0.0224249443680801,0.002184456747528,0.0225310892145344,-0.0187368265957555,-0.344815957452694,0.345954344759189,0.022333770542952,0.202214320500816,0.204295880183661,15.3522319220176,1.90249342921797,1.35977881390703,0.0627174057847871,0.240311373986883,0.129406690352178,0.399536525308636,0.0019126737191881,0.0100236692583201,,,,,2.95681470906161,-98.270421652992,2.11270880318296,HoldLanding,HoldLanding,0,0.742161339297056,0.0874069994384332,0.0569392475109771,0.943009158054481,0.342485915399032
85,2.06236534021996,3.0,-0.467242349249898,-1.98664342080467,2.06236534021996,-0.0707271299178577,-0.0166577925454783,0.0726622939281834,-0.0168254103842097,-0.210174473455429,0.21145664882491,0.0136450187196786,0.162818783273378,0.166363908914038,15.3861586230301,1.32497181992245,1.01626069042391,0.176460082541288,0.240296440519509,0.166652413326237,0.482861571894632,0.155684368852957,0.0398740716986072,,,,,2.10680641889481,-101.731697741666,1.92871168809761,AttemptLanding,AttemptLanding,1,0.58323687250813,0.224289219004009,0.218266246661799,0.893374560433778,0.325932260743895
86,1.98072736797524,2.69105458259583,-0.54644999891678,-1.89067208850001,1.98072736797524,0.004374549203052,0.0063667487164421,0.0077247763688174,-0.0184423290081174,-0.18648822115884,0.187914223346879,0.0121407910263192,0.131908573072082,0.133431241204262,15.3357900246472,2.27183053827165,2.15705404614474,0.0293881004956679,0.0742070461858154,0.143744518131741,0.525849595604102,0.022521093858135,0.0055295982109483,,,,,2.01104491577433,-105.279667622794,1.65188063694161,AttemptLanding,AttemptLanding,1,0.55488021303425,0.161239832290581,0.108764037408208,0.950507570874609,0.336113547497004
87,2.01659458795109,3.0,-1.15499801952278,-1.61702719287266,2.01659458795109,-0.0775454180082327,0.0068200227183649,0.0778447465404734,-0.0776872210639456,-0.142782478540921,0.169762135758086,0.0109506793764308,0.195877490081758,0.198488643169173,15.4287226460577,0.92757056909576,1.0728972777556,0.176869960246816,0.240301086826284,0.172927204523226,0.398366951859821,0.158754212443385,0.035649910922907,,,,,2.06469467336038,-124.238920485483,1.5,AttemptLanding,AttemptLanding,1,0.577456285420793,0.235537754576758,0.224843684470636,0.89584705822276,0.323143464656344
88,1.92358783894294,2.96414017677307,-1.10479305328048,-1.54164679733521,1.92358783894294,-0.0916065801767646,-0.0034174051847762,0.0916703015696956,-0.0724393302217983,-0.131115364409724,0.15629099021432,0.0100809474734936,0.202152244164546,0.204573301713298,15.4363638159986,1.00277331258748,0.872400872175358,0.176199122249842,0.240300547677217,0.159176022768908,0.450848627372369,0.158816886964234,0.0354888807584158,,,,,2.00959748573364,-123.70580417537,1.5,AttemptLanding,AttemptLanding,1,0.55387141739411,0.250930497966224,0.234048629423464,0.897166927423371,0.329255100991597
89,2.62423405439957,3.0,-0.243885695126986,-2.57893826211492,2.62423405439957,0.0058768743366232,0.0081688493302243,0.0100631879316829,-0.0096834715796711,-0.345325839121929,0.345788822230717,0.022326285913544,0.196018751659304,0.198803492979279,15.3968241658095,1.90162790295928,1.83345851201232,0.027896518963256,0.0593823269851982,0.123336555745587,0.467154519305701,0.0160814304375237,0.0072965071875751,,,,,3.0,-94.0907171926139,1.85284920219239,AttemptLanding,AttemptLanding,1,0.739556446435742,0.0863922555475712,0.0616359310861564,0.956704632972167,0.345183753001961
90,1.93949094173071,2.70418119430542,-1.05524576507199,-1.60884927143314,1.93949094173071,-0.0601515343181982,-0.0003690045348952,0.0601526661518852,-0.0620972233631461,-0.137426275912213,0.153986188257248,0.0099336373516386,0.14664664409153,0.149139212071584,15.3966840698922,1.04025988714273,1.03286629667352,0.1761557575475,0.24126750632645,0.144443993278463,0.374148058902095,0.158165003456331,0.0351268893107013,,,,,1.99637079272466,-122.311062912018,1.64822437214931,AttemptLanding,AttemptLanding,1,0.547025426875838,0.183083295623823,0.192918948760797,0.895633272639122,0.335802669654017
91,1.88261320766987,2.62619423866272,-1.12309794855469,-1.49499963327717,1.88261320766987,-0.0520820329013782,0.0159039319096587,0.0544561585252513,-0.0688641120395326,-0.118912583774773,0.140477031103738,0.009061516051558,0.134218069557029,0.136447759556457,15.4373035911397,0.908125291460914,1.0306709539058,0.176141387109662,0.240276483403926,0.18499089279407,0.473822526726534,0.159019956816467,0.0357208273738822,,,,,1.94546366280019,-126.251978914843,1.8891720005831,AttemptLanding,AttemptLanding,1,0.529319740623256,0.177289361036355,0.190038544757008,0.89669590737443,0.317781825424858
92,2.62772370261891,3.0,-0.479129719632443,-2.55117780158588,2.62772370261891,0.0061404779222515,0.0061005085303469,0.0086557306706305,-0.0207467797366092,-0.338546677940928,0.339885173128096,0.02194878302528,0.198697015365642,0.201442763538979,15.3800876132482,2.19628167288554,1.87734470054224,0.0209100029086113,0.0557558940483485,0.132226692413053,0.426218630578682,0.0004930132989953,0.0067867380189814,,,,,3.0,-99.2513675644137,2.22330176970313,AttemptLanding,AttemptLanding,1,0.741014873406171,0.0853490508670279,0.0538964522761675,0.957537934183047,0.341232581149754
93,1.68979608172538,2.33638286590576,-1.02352914628211,-1.32385528355824,1.68979608172538,-0.0590384505722736,0.0083467515487587,0.0596255558245917,-0.0575086110983239,-0.0942513796810647,0.113958017879767,0.0073508647187182,0.127105750584686,0.128957868015388,15.4473886367305,0.875458195668837,0.955299618426694,0.177498831132163,0.240203291327024,0.157189534996928,0.416003491897744,0.148829536144977,0.0220571562103759,,,,,1.74681180591764,-126.657123786368,1.92471870629265,AttemptLanding,AttemptLanding,1,0.47640386206318,0.15641337834176,0.168015271590435,0.896866058751739,0.33013798444581
94,2.50013983407557,3.0,-0.203143418195288,-2.45676813217555,2.50013983407557,0.0143913412809802,-0.0014135329029458,0.014460594010391,-0.0095675062510901,-0.327900995354557,0.328350975339024,0.0211783326746228,0.203365908719223,0.204458779212916,15.4584032605788,1.11236570225212,0.618895965508082,0.0505829007448178,0.250062183516337,0.367403889418061,0.834071438765066,0.0034993606587558,0.0057270726304074,,,,,3.0,-94.2734617915732,1.77480435949451,HoldLanding,HoldLanding,0,0.70759571159607,0.115119646234901,0.0727096310104347,0.961105779380904,0.236709382480862
95,1.81499674916267,2.64779353141785,-1.15109714566568,-1.38029594678382,1.81499674916267,-0.0536015908097334,0.0128216872673803,0.0551137569189091,-0.0727744355486176,-0.10228729865858,0.130099482321988,0.0083903247931704,0.148898942450953,0.150999858543279,15.4648189009518,0.780846853181568,0.819457848439414,0.175499749129494,0.240229520199891,0.146915738919809,0.402666965610529,0.156522280736978,0.0404777204553233,,,,,1.86493072097439,-128.583435678336,1.8884214864915,AttemptLanding,AttemptLanding,1,0.514199104818702,0.197483464775881,0.202774708045515,0.89967630277966,0.33470411603564
96,1.72616460490785,2.44178557395935,-1.05734226937414,-1.35095078729018,1.72616460490785,0.0065464533696177,0.0036445620385631,0.0074925886163271,-0.0599999058322788,-0.0958990191901236,0.115511779532985,0.0074604732738314,0.117104930647654,0.117988152881922,15.3644679368491,2.00963643540243,2.13492704452082,0.0209145122824563,0.0753420579925128,0.131948791820554,0.532562437910508,0.0001836953966121,0.0059822260317755,,,,,1.76269102467469,-127.19753908103,2.21995166539873,AttemptLanding,AttemptLanding,1,0.483908191885144,0.162388359282914,0.0996900128888886,0.956978316516518,0.341356092524198
97,1.77619129983155,2.61788439750671,-1.09930962738209,-1.37462685852465,1.77619129983155,-0.0625930488313122,0.0018325375512396,0.062619868698966,-0.0668734736767392,-0.102135369464652,0.12597999904593,0.0081259139988922,0.146964551047908,0.148918935819905,15.450053512969,0.876889641908002,0.92375412119004,0.177141741464008,0.240214409239562,0.130229760332983,0.392040940817219,0.159434731077652,0.0361253758119425,,,,,1.81622668042125,-127.513201967813,1.63729252841872,AttemptLanding,AttemptLanding,1,0.503434800452393,0.20086125623839,0.204513134517242,0.897281213986511,0.342120106518674
98,1.87708650811298,2.51943588256836,-1.1930645564573,-1.43302881940669,1.87708650811298,-0.0420481710345071,0.0199472106231451,0.0465396594206627,-0.0761972417980586,-0.10858116174118,0.135929893744769,0.0087670471393641,0.128134621923693,0.130323036894261,15.4066501286169,0.827038453045819,0.901319847752819,0.175630183980048,0.240224108010527,0.154227762003001,0.507035187165393,0.155673185315439,0.0401163895659623,,,,,1.91962505408224,-128.853168090004,1.72742879772368,AttemptLanding,AttemptLanding,1,0.526621009542315,0.153060880146247,0.175612388474152,0.898604949932272,0.331454327998666
99,2.6080693393248,3.0,-0.16743886649249,-2.56980322468089,2.6080693393248,0.0021734452177571,0.0032264451838411,0.0038902201273093,-0.0062571804307439,-0.344156635208725,0.344456953023087,0.0222444740800492,0.202995666075307,0.205823509097912,15.3918734687001,2.1536820580804,1.91492205351397,0.0183770854811903,0.0515794020327876,0.142751283495664,0.43892016877539,0.0002697822604304,0.0082523861111795,,,,,3.0,-92.2002194325483,2.31969788790341,AttemptLanding,AttemptLanding,1,0.736649858972862,0.0888976056752605,0.0564593343088069,0.958843853525449,0.336554985113038
100,1.6457567311622,2.24059915542603,-1.02805573929312,-1.27179589931649,1.6457567311622,-0.040171347427069,0.0069945473123692,0.0407757384508393,-0.0568777390187022,-0.0861853780563531,0.10563421467962,0.0068140084381165,0.121957075431489,0.123684612645417,15.3860518995063,0.940556477362232,1.01813414465736,0.176061525005656,0.240191327961557,0.172465594309856,0.446763034701221,0.15892734289859,0.0381802155428075,,,,,1.68546986904653,-128.540481584722,2.2580180313051,AttemptLanding,AttemptLanding,1,0.463605384172337,0.141315097508681,0.169307147869644,0.896579525467018,0.323348624751175
101,1.6345542548476,2.48069381713867,-1.05161418580445,-1.2186374603786,1.6345542548476,-0.0708906928044453,0.0097894658855731,0.0715634261939647,-0.0635875215233749,-0.0822954741769757,0.110005985876766,0.0070956016457273,0.163269268762047,0.165049148247725,15.4357427769935,0.889931872905503,0.965397634732861,0.175991837028244,0.240217770778585,0.170833967486211,0.473278906045916,0.159433010612907,0.0354193840790521,,,,,1.69807149429304,-129.55767099295,2.37072213572329,AttemptLanding,AttemptLanding,1,0.468890964275573,0.203501362984384,0.205839709647335,0.897426492497291,0.324073792228351
102,2.62255254477562,3.0,-0.14154142477255,-2.58732671418931,2.62255254477562,0.0033031382351397,0.0088408653542339,0.0094377763489148,-0.0050496713087337,-0.348179023047948,0.348439749100005,0.0224999112118682,0.198075299778051,0.200894790406061,15.4203003436607,2.01460942224572,1.84987917815358,0.0211027634086982,0.0463386304332831,0.133308399374339,0.426194743908675,0.0003711506716206,0.005647240440833,,,,,3.0,-91.8482151525671,2.18293766735318,AttemptLanding,AttemptLanding,1,0.739526303354709,0.0866559364227877,0.054212059686211,0.959084779292514,0.340751822500294
103,1.68063752635105,2.38630366325378,-1.06261620508989,-1.28765119000023,1.68063752635105,-0.0443248277542235,0.0031286110150712,0.0444351050671111,-0.0610712559890137,-0.088143725868629,0.109850517128044,0.0070857010281495,0.113617132511011,0.115402978067195,15.4299466230805,0.861494328922669,0.967703314911604,0.176991979799337,0.240188023752085,0.151710457671391,0.352280125429251,0.159516513648587,0.0341867726257298,,,,,1.75398132014352,-128.600052606655,1.87058779556855,AttemptLanding,AttemptLanding,1,0.471250602640386,0.166921316732085,0.183480572009595,0.897131742898777,0.332573129923826
104,2.60814652071809,3.0,-0.337602828699219,-2.55252692606316,2.60814652071809,-0.0179025696613694,0.0117433985896828,0.0214104976802584,-0.0145935951044837,-0.349859844577823,0.350663771853947,0.0226365394616559,0.201698394840256,0.203815646259296,15.4246331539244,1.77029993542096,1.49307480180927,0.0625625786226231,0.240387242692796,0.134087433279869,0.40789923050631,0.0019284197703438,0.011220909969612,,,,,3.0,-96.2939600424606,2.21815878944856,HoldLanding,HoldLanding,0,0.736268868110016,0.0920922907464774,0.0601927807994133,0.94307790918188,0.340405585208947
105,1.73401088086334,2.53583192825317,-1.10905295417924,-1.31092198153211,1.73401088086334,-0.0479114898219227,0.0145702281836965,0.0500779632800815,-0.0675749381997455,-0.0926267918423734,0.118825759777136,0.007663362788892,0.140741069082154,0.142698821389067,15.4519364349918,0.810813862376535,0.824187286403417,0.176721787223319,0.24022564144322,0.149816283283499,0.406253944118312,0.160113675373531,0.0378455594377466,,,,,1.78074250763471,-129.221424924807,1.85019278295856,AttemptLanding,AttemptLanding,1,0.490942665841372,0.189590695597393,0.198678072471509,0.898792668790784,0.333414985207334
106,1.85050565941278,2.59350872039795,-1.079254140861,-1.48315378898819,1.85050565941278,0.0042570681277107,0.0022635494611694,0.0048214401590324,-0.064163672026471,-0.116738459887789,0.136883977891326,0.0088361617738238,0.146192694513248,0.147230362907358,15.4095396156693,1.92589855495113,1.65689033905207,0.0230178777620012,0.0536200947249736,0.124873927992313,0.475364568066946,0.0049679109867491,0.0083118711914566,,,,,1.88415857146299,-124.959215831678,2.11121260436327,AttemptLanding,AttemptLanding,1,0.522914248424879,0.168059619417486,0.106066230704122,0.960340576951831,0.344500476447861
107,1.68282635308601,2.27739405632019,-1.03037069652491,-1.31047201243697,1.68282635308601,-0.0610224214022341,-0.0063211303774465,0.0613489413359392,-0.0588392558471968,-0.0920890775807425,0.112788131441777,0.0072770310257394,0.130768991318416,0.132562684746403,15.3836746173922,0.980581020359691,1.18818502577439,0.176570732586782,0.240229334042767,0.161020978225337,0.466811801204119,0.159863089804255,0.0350920955897692,,,,,1.72726488943798,-126.550224489005,2.11832898426435,AttemptLanding,AttemptLanding,1,0.475266231105549,0.14502503913928,0.170826047651436,0.894674329058413,0.328435120788739
108,1.68911155118238,2.54190564155579,-1.03400608638646,-1.31459020504813,1.68911155118238,-0.0532898290486418,0.0209440320120722,0.0572578235436536,-0.0595064534926937,-0.0928868396753208,0.113999607973982,0.0073534217541038,0.138281751447313,0.140092668348164,15.425308605654,0.733902460969641,1.04321171363232,0.176168575641829,0.240192264396894,0.161264905801458,0.451262439643423,0.156639181129795,0.0410724371593558,,,,,1.72684939224008,-126.925173742408,1.97015232975445,AttemptLanding,AttemptLanding,1,0.478448280651601,0.202375937983686,0.205978408319987,0.897952672235785,0.328326708532685
109,2.62442988496162,3.0,-0.303333590320031,-2.57443303346982,2.62442988496162,0.0029197548539154,0.0050861091638929,0.0058645950272801,-0.0121332461836505,-0.344371968244194,0.344946372658385,0.0222706263184209,0.19196086169668,0.194769597680085,15.4003300055493,1.92070620199862,1.76926327468708,0.0259244277411932,0.0587005956886071,0.126563877731258,0.496175497502483,0.0087033894581722,0.0083349567769318,,,,,3.0,-95.4171668207032,1.97969715369532,AttemptLanding,AttemptLanding,1,0.738801888859115,0.0855784516386377,0.0582461374491334,0.958045168812587,0.343749387674996
110,1.62008294060424,2.2675359249115,-0.944350017747484,-1.30327454758436,1.62008294060424,-0.0442395512073135,-0.0056772948034696,0.0446023493474281,-0.0485766024033075,-0.0903534210314838,0.104624050537804,0.006746809015422,0.109691219141074,0.111402743112591,15.4818850202958,0.730590208842284,0.661016597476503,0.175892104417637,0.240176866485913,0.14827348956328,0.350782664890133,0.160066668699129,0.0349889284279742,,,,,1.65985778043302,-125.136897277648,2.02849267950497,AttemptLanding,AttemptLanding,1,0.454302666116981,0.153854018849496,0.176176399654837,0.901119894312962,0.334100671305209
111,1.53852109731855,2.25201845169067,-0.926469157077123,-1.2091180761849,1.53852109731855,-0.0474133871399197,0.0096658053188403,0.0483886047798614,-0.0478053531816132,-0.0785682481655803,0.095040896315592,0.006130069442246,0.118446841547896,0.119948115720561,15.4161068761332,0.774855114779743,0.96765725313021,0.176864177714589,0.240161566725445,0.144861027835154,0.512471257345088,0.15833654072292,0.0362494508208188,,,,,1.59306398738573,-126.486183134521,2.13143102831155,AttemptLanding,AttemptLanding,1,0.434261915762391,0.16940814894337,0.185198303723173,0.897876742537699,0.335617320962154
112,2.63081141817929,3.0,-0.234162103556462,-2.5871459613403,2.63081141817929,0.0035015652529393,0.0055251386922755,0.0065412626296054,-0.0092372453491028,-0.347857557180529,0.348296899031782,0.0224898869752532,0.195364536341491,0.198263846868032,15.4067260231822,1.89131753169602,2.11887909420539,0.0138063822154272,0.0675658993264558,0.135875267792263,0.507014545998481,0.0002073188146118,0.0091799097588555,,,,,3.0,-94.1056534981467,2.49646692805671,AttemptLanding,AttemptLanding,1,0.741202480888082,0.0842666623917551,0.0539902881336563,0.961588121117347,0.339610992092328
113,1.7820438025771,2.5740385055542,-1.03557131472264,-1.43043409120788,1.7820438025771,-0.0517351704985139,0.0031992634942041,0.0518339961165995,-0.0592322744865372,-0.109496067012818,0.12792031204925,0.0082506601863645,0.1405719197497,0.142618467755066,15.465747710987,0.831555230836634,0.932132287188743,0.177033881936962,0.240221547736587,0.150072520933439,0.37111794892719,0.15876506480892,0.0373887808780412,,,,,1.77528590773906,-124.910768203071,1.62544151719769,AttemptLanding,AttemptLanding,1,0.503735374238239,0.187701707457891,0.196779195820209,0.897625514247034,0.33330110180736
114,2.68144085662498,3.0,-0.433145865757289,-2.61263408893998,2.68144085662498,-0.0261118166300964,-0.012972331283175,0.0291566175446367,-0.0174598860266828,-0.348386287010611,0.349429716095523,0.022556687042711,0.202052006323864,0.204228977206132,15.3435529122367,1.78722601234009,1.45783657622889,0.063336527424781,0.240369152826992,0.123996367534521,0.519496950637915,0.0018735490247834,0.010251405212968,,,,,2.9979851142919,-97.9705526263991,1.6524255637079,HoldLanding,HoldLanding,0,0.755896690541222,0.0770211871425621,0.0507731844548031,0.942834815948853,0.344890503317991
115,1.83098908695015,2.56523704528809,-1.06061410444211,-1.4766363452458,1.83098908695015,-0.0518360259994449,0.0075793846834873,0.0523872185136356,-0.061144230532513,-0.115028486986929,0.133010035672764,0.0085793498079508,0.115966911927926,0.118169311443701,15.4240186312899,0.994897881107004,0.863149667417768,0.176773962339318,0.240207390029675,0.142814908333321,0.42033329286602,0.158509518342617,0.0375043979430667,,,,,1.89315516909655,-124.179562229341,2.32875652641962,AttemptLanding,AttemptLanding,1,0.51189761880878,0.174810114020203,0.188972706119451,0.897014073806218,0.336526707407413
116,1.67677718803689,2.45278120040894,-1.01744106712817,-1.31110417493151,1.67677718803689,0.0021384463231125,-0.0141441131773253,0.0143048554781172,-0.0573890178318583,-0.0914325789580597,0.11172511698702,0.0072091235559649,0.143565204173779,0.144421399212222,15.4437514705202,1.34951518685511,1.38074370020685,0.0209717060118508,0.056087748059192,0.203323079026634,0.620239924888569,0.0116690272578675,0.0128531959480775,,,,,1.69700248239393,-126.66944677606,2.31171051902504,AttemptLanding,AttemptLanding,1,0.476024863318949,0.177223459621364,0.116194199545313,0.968062112881445,0.309634187099274
117,1.53524158484694,2.29274344444275,-0.913698610054087,-1.22108163409155,1.53524158484694,-0.0359933273373378,0.0057432597648228,0.0364486576644323,-0.0491814781588669,-0.0851198787840384,0.100375072552766,0.0064738484215269,0.126395239374213,0.127229343357081,15.46605892738,0.557079130324079,0.991968637911507,0.169276238000893,0.245780121414466,0.229013952149006,0.456651263036452,0.140352905845546,0.0049579846567888,,,,,1.6721231422542,-125.43586516234,2.27567462506661,AttemptLanding,AttemptLanding,1,0.4348436246306,0.177120172314203,0.170454076164769,0.903190791391988,0.298216021267109
118,1.72337839651752,2.48313689231873,-1.06545465610455,-1.33937855225223,1.72337839651752,-0.0445515671510714,0.0037296665739571,0.0447074104413275,-0.0618015495576244,-0.0950429414322889,0.116083174789188,0.0074872686739386,0.122656405076046,0.124603218997219,15.4119084755019,0.805818498005309,0.964890114672186,0.176867946637733,0.240187658225548,0.138914748709261,0.469281857396585,0.158900977007099,0.0361391725553308,,,,,1.78141492798702,-127.597402747289,2.13882937092603,AttemptLanding,AttemptLanding,1,0.484488216204116,0.179142020136181,0.191249385822156,0.897653316152953,0.338260111684773
119,2.56739773000762,3.0,-0.36450894159189,-2.51127633216905,2.56739773000762,0.0070715875310485,0.0053543771338664,0.0088699889910277,-0.0144607040398841,-0.330550192331399,0.33127284398709,0.0213887629634749,0.203698996541193,0.206300063596673,15.4123048550541,1.84221761072892,1.83092818740165,0.0283697807478939,0.046972825020605,0.126490499390643,0.402844441585127,0.0132494751303868,0.0060495562081777,,,,,2.88139783872518,-96.8469577847742,1.85450708944902,AttemptLanding,AttemptLanding,1,0.725899407388033,0.098961675396641,0.0674654994726454,0.956954678355027,0.943782000270825
120,1.72867437417075,2.41004943847656,-1.02969850469224,-1.36891863629053,1.72867437417075,-0.055629922382649,0.0088105084571211,0.0563232929042022,-0.0583924907645539,-0.100499914983817,0.119634544651862,0.007715837260081,0.143203278473075,0.145109407245738,15.4640996015297,0.761043629402349,0.90584097463157,0.176249531901279,0.240227800775336,0.162344664247627,0.396352910569305,0.154326348773921,0.0421290380135899,,,,,1.76744363452008,-125.864521808831,2.16682074989673,AttemptLanding,AttemptLanding,1,0.490001714561348,0.163635326501245,0.182090334431471,0.898778283589094,0.327846815889943
121,1.70188245197271,2.44507694244385,-0.985767351572731,-1.36668217930156,1.70188245197271,-0.0624660295537127,0.00297682644062,0.0625369198463027,-0.0540652707921175,-0.100588399726739,0.11761463850698,0.007585935850937,0.138822966580575,0.140634075145912,15.4615520213127,0.83454593531908,0.909389260326964,0.175800206968007,0.240225493174685,0.140763303091351,0.459110494356678,0.154312290249185,0.0410290796117669,,,,,1.76448514358837,-124.664357217421,1.76263917134151,AttemptLanding,AttemptLanding,1,0.481962135555237,0.178683862327829,0.190713222820816,0.898397548550206,0.3374385319594
122,2.62080687902444,3.0,-0.378826784203833,-2.56140731068596,2.62080687902444,0.0059771334348326,0.0070738672483756,0.0092609784550789,-0.0157164385271575,-0.341438289030315,0.34227314926586,0.0220996507115848,0.193274556645663,0.196078940001739,15.3952774509821,2.03935066344269,1.74780953008886,0.0292438727704926,0.0696371864179219,0.121698645461666,0.498503348074494,0.0218755951392685,0.0095082041530081,,,,,3.0,-97.1526305433791,1.62233447563873,AttemptLanding,AttemptLanding,1,0.738097622406865,0.0870162982695984,0.0653897944732349,0.955621804951291,0.345911713128148
123,1.61235874891281,2.62952017784119,-0.929566298766811,-1.28892280475968,1.61235874891281,-0.0802107908991114,0.0031070938039156,0.0802709474752061,-0.0515128957523885,-0.0915097917805845,0.109708944492991,0.0070761658685908,0.168221822766783,0.169931087352754,15.4444559333492,0.848449162445936,0.869470820238195,0.175604726287426,0.240192189110998,0.148688212044895,0.394779025630277,0.15513811662467,0.0414397787101081,,,,,1.66518818535526,-124.488998271363,2.21130785124035,AttemptLanding,AttemptLanding,1,0.463948550513967,0.243577661879339,0.230165881623052,0.898699694135197,0.333916350202269
124,2.68943297110715,3.0,-0.551497792653461,-2.59643545349902,2.68943297110715,-0.0239578659642755,-0.0111000837404909,0.0264043784363143,-0.024688982632317,-0.343569978801769,0.345467310576782,0.0222989152494517,0.200728547375485,0.202851374665271,15.4040188413211,1.69930928225368,1.35107692762431,0.0628208979155083,0.240263903520106,0.127505795657791,0.451454574086846,0.0018479991786189,0.0089482044271422,,,,,3.0,-100.530616564359,1.79111463752693,HoldLanding,HoldLanding,0,0.757752400561627,0.0747183842142157,0.0489062560157653,0.944622230821776,0.343330757485426
125,1.56941700062236,2.19090557098389,-0.813875726269646,-1.32875962662149,1.56941700062236,-0.0372022583600623,-0.0020751173364971,0.0372600877488105,-0.036500364853708,-0.0931771809617775,0.10170268764743,0.0065607322680826,0.0999706147307807,0.101647913170669,15.3957546682036,0.897185433783795,1.02187025382738,0.176355607879719,0.240181790794971,0.170284363664497,0.471417192295604,0.155579271632619,0.041408103056637,,,,,1.59718321662841,-120.692341177793,1.95595486438514,AttemptLanding,AttemptLanding,1,0.438840782800097,0.146665944418625,0.172203401619601,0.896743901371767,0.324318060593557
126,1.5351418741172,2.16111373901367,-0.853941403366306,-1.26375672449405,1.5351418741172,0.0061309724566496,0.0041019580702417,0.0073766444454248,-0.0397741890144248,-0.0843395408752129,0.0948897973566655,0.0061271223824573,0.104307766909658,0.105043570797044,15.3829376510843,1.85041242707567,2.11292469698516,0.0226743221860396,0.0559442782991248,0.140551491212864,0.443456824707863,0.0027239020127067,0.0094900390579185,,,,,1.57811714801433,-123.111297136965,2.13343815389696,AttemptLanding,AttemptLanding,1,0.430379880590661,0.142196054416701,0.0899791790605679,0.957522332932217,0.33753267057206
127,1.50318619125598,2.21638154983521,-0.753705215942337,-1.28900527664827,1.50318619125598,-0.0445061740804283,-0.0059793284806574,0.0449060341196703,-0.031503998489084,-0.0887146495504755,0.0954858068831999,0.006159109128042,0.111080809957465,0.112527202138008,15.4275477939791,0.824858193405617,0.968262753222054,0.175860771540065,0.240162129628937,0.130003108689275,0.41069921265096,0.159070179028421,0.0356574599167438,,,,,1.53181850141805,-119.504479623187,2.23104261249249,AttemptLanding,AttemptLanding,1,0.423355091429197,0.168701728602265,0.184885243567958,0.897980806792179,0.342220840582544
128,1.64343283788578,2.25198650360107,-0.887910574831889,-1.37056809578742,1.64343283788578,-0.0378242452456651,0.0095612169213208,0.0390139769495596,-0.0430547640458045,-0.0991973660163741,0.109843063143086,0.0070848662438096,0.113231188334316,0.115034774838807,15.4585960632499,0.88705262872269,0.866490405012373,0.17612613248587,0.240198865679929,0.164676967197102,0.398547961745099,0.158507133413493,0.034181285112882,,,,,1.67347133841587,-121.814224359451,1.77336857283461,AttemptLanding,AttemptLanding,1,0.461255711737302,0.144077137226694,0.169323455409324,0.898159095634861,0.326810236801288
129,2.61421280401606,3.0,-0.503762347282052,-2.53087675948213,2.61421280401606,0.0059753102182647,0.0063166610679877,0.0086950870756037,-0.0225910593491157,-0.33334007436513,0.334901714647221,0.021624707531022,0.201644268179735,0.204210882420884,15.431299513466,2.03883083012722,1.83306364569433,0.0174745017182008,0.0434282546143106,0.137292630006256,0.410175397564577,0.0001982744044341,0.0054726359209414,,,,,2.98812679975473,-100.15154225882,2.34519968373817,AttemptLanding,AttemptLanding,1,0.73796559088846,0.08839621839358,0.0551159024194712,0.960840721116587,0.338981053330553
130,1.63490420096629,2.32220506668091,-0.91642567544597,-1.34099066247519,1.63490420096629,-0.0446921118748955,0.0044171572535808,0.0449098668673271,-0.0460671839960474,-0.0956285291018553,0.108101973831834,0.0069735082677724,0.112664968786916,0.114454880557634,15.3887779756965,0.916773097061417,1.03052010839581,0.176975398364629,0.240188249968225,0.164287883233061,0.459849622796129,0.157713595873167,0.0354264363168356,,,,,1.67291748571223,-123.514973806059,2.36501395151164,AttemptLanding,AttemptLanding,1,0.458865429702538,0.162876170378132,0.180702974204914,0.896212139917664,0.326983163007528
131,1.49319767508958,2.06623268127441,-0.742754195510612,-1.27956339006667,1.49319767508958,-0.0447635148584247,0.0119471545337084,0.0463304086311865,-0.031453078552465,-0.087470490282812,0.0946971934770597,0.0061068309347923,0.112770364237984,0.11430209783836,15.4725161656709,0.669655073898351,0.763869757606581,0.17619386378567,0.240155139459975,0.150270570584307,0.41246796719649,0.159266420476483,0.0360542514427647,,,,,1.54515709711904,-119.107877075441,2.25151237563674,AttemptLanding,AttemptLanding,1,0.421046466258226,0.137426784640639,0.166351783439987,0.900639658716769,0.333213079740308
132,2.62334286847641,3.0,-0.457727339921648,-2.54992572916003,2.62334286847641,0.0031447565204617,-0.0020770663915778,0.0037687794268182,-0.0197461212220599,-0.338364744469097,0.339608380717683,0.0219297560391729,0.202431834902741,0.205140603410669,15.3955685363054,2.04583311643514,1.78243213159022,0.0242976545047155,0.0531727592570358,0.134369753908592,0.420325295289617,0.0060820917599408,0.0086611461363725,,,,,3.0,-98.8062245222683,2.04816745287746,AttemptLanding,AttemptLanding,1,0.740586218942509,0.0854387974877248,0.0571159380718956,0.957771945798871,0.340280109373959
133,1.62782726899998,2.32526087760925,-0.85094988150799,-1.37126871714337,1.62782726899998,-0.0506570204077248,0.0044327491088691,0.0508505946990871,-0.0406481816871691,-0.100260409603873,0.110375780522487,0.0071197035664636,0.117940877970758,0.119691154640779,15.4109368076071,0.890097614977673,1.00600151657188,0.177079934300774,0.240195399829879,0.140686034767357,0.452037367247525,0.158791823930649,0.0384690174490425,,,,,1.68330103474598,-120.509023497779,2.27933975500351,AttemptLanding,AttemptLanding,1,0.458025502661483,0.166245170965253,0.184309980166163,0.896562111101724,0.33747287343673
134,2.67539191622179,3.0,-0.642424817845076,-2.55833245866634,2.67539191622179,-0.0326300864236131,-0.0083008711536082,0.0336693778071598,-0.028415493798007,-0.336676925910787,0.339115563910975,0.0218875587735052,0.204368605880436,0.206426919598939,15.3932425982331,1.59765212047977,1.3219384211648,0.0632795135225878,0.240431717300817,0.119978551684465,0.492319039215626,0.0018359537874721,0.0085524086687539,,,,,3.0,-102.269542710179,1.51623764766727,HoldLanding,HoldLanding,0,0.754723228245597,0.0792095381147443,0.0514516691185831,0.945420603268642,0.346676199251349
135,1.67869773990399,2.39169263839722,-0.860218700322032,-1.42423593632506,1.67869773990399,-0.0513729712933369,0.0072186362107265,0.051877653071904,-0.0418601972876187,-0.108011395895101,0.118139427659631,0.0076205188181663,0.127492589339587,0.129355410401808,15.4155841680172,0.872251765713732,1.02811667028922,0.176122149851425,0.240195883992068,0.179517233654117,0.481822638338402,0.158515253262012,0.0373775748381865,,,,,1.71044333906111,-120.370167332204,2.08127119360103,AttemptLanding,AttemptLanding,1,0.473523812721426,0.169934755224158,0.186003922202204,0.897007458791407,0.320214562820392
136,1.63606061225751,2.27763414382935,-0.759845972201476,-1.43595420293792,1.63606061225751,0.0066596247266861,0.0038514616526806,0.007693137094993,-0.0322915769620374,-0.108465369413859,0.11447963120193,0.0073909027397159,0.113853403232772,0.114770850401644,15.3714140196274,1.9096417210099,1.96672345632826,0.0163751215016352,0.0719596803248546,0.132581850758181,0.517335573558617,0.0001777412065978,0.0099446692904632,,,,,1.66149639163359,-116.91481150861,2.39125018962772,AttemptLanding,AttemptLanding,1,0.459237000015664,0.145764453071079,0.0911539113128189,0.961355284284383,0.341074732996364
137,1.47654981141122,2.08753538131714,-0.703663875624103,-1.28657753796638,1.47654981141122,-0.0451332542944594,-0.0008925168402423,0.0451420782587427,-0.0275827136375588,-0.087865181259331,0.0932571753114218,0.0060148486728777,0.108485313319433,0.109970714679298,15.4512498572035,0.91906192055984,0.749601876374673,0.17591499301925,0.240148987757404,0.14216355880199,0.42266917479086,0.1558128798643,0.0416942473196697,,,,,1.50463962214456,-118.009747287404,1.64029752688817,AttemptLanding,AttemptLanding,1,0.415740759312186,0.1457478009096,0.171860393854218,0.898931573657318,0.336816196088005
138,1.58909961521225,2.25663089752197,-0.7281191879696,-1.40004643246359,1.58909961521225,-0.0458498998695108,-0.0001443717069442,0.0458501271670421,-0.0299224333675442,-0.104442962019587,0.109850546549251,0.0070843125989091,0.109904201793218,0.11161482612713,15.4638312968556,0.798784422571175,0.689390250633657,0.175239457155884,0.240168104466148,0.1217688858755,0.439124277939601,0.156261011746781,0.0400779959196635,,,,,1.62198882751374,-116.427624599585,2.27366476430256,AttemptLanding,AttemptLanding,1,0.446082862615361,0.158600395166978,0.179183392352371,0.900687470418306,0.345880495166445
139,2.54591948855413,3.0,-0.469957895816655,-2.46795439661134,2.54591948855413,0.0027698784892174,-0.0005945841265975,0.0028329767257482,-0.0212741880859411,-0.331534841001131,0.333102800550125,0.0214909806865322,0.194272722513334,0.196525482237268,15.4204926560962,1.15273992059022,1.14137952729587,0.0215734912273405,0.0779725215531182,0.274716860546918,0.662318547242334,0.0083267380368644,0.0137615351817868,,,,,3.0,-100.33835635475,1.71419203680929,AttemptLanding,AttemptLanding,1,0.718216960061889,0.102687494141708,0.0703174635574121,0.971188030152939,0.277903617534703
140,1.38035566134741,2.2662615776062,-0.64953075818964,-1.20908847171593,1.38035566134741,-0.0476553295134278,-0.0107866440169407,0.0488608444481016,-0.0269132342087223,-0.0896360505790338,0.094492846266496,0.0060936213257481,0.130516037454058,0.131919415129658,15.4611322510602,0.64589513041807,0.541966757706799,0.166754819277377,0.240167396494314,0.165550295878091,0.391378368729755,0.158897571277317,0.0357858325948464,,,,,1.62484937329115,-117.662804067615,2.08973677484651,AttemptLanding,AttemptLanding,1,0.394478726051907,0.20828665264038,0.208606164408636,0.907289389811759,0.326422090720849
141,1.53123510447708,2.31178069114685,-0.768766556417011,-1.30140714108139,1.53123510447708,-0.0621087984184395,-0.0042042620073456,0.0622509330051266,-0.0352985051264642,-0.093262838763744,0.102437086708709,0.006608143378222,0.15922643308711,0.160839545612359,15.3557788109614,0.959542147820293,1.01921768597494,0.177264926358526,0.240177238204629,0.15714023345144,0.470912927118139,0.158502205673889,0.0373727730633976,,,,,1.58700801541868,-119.377240163094,1.77191767382733,AttemptLanding,AttemptLanding,1,0.440497270316361,0.187035428051638,0.196256780870714,0.895820138126632,0.330159896243805
142,2.63885376445426,3.0,-0.626281289988461,-2.52577951177576,2.63885376445426,0.0056350022501713,0.0044757491425004,0.0071962198928346,-0.0307647943526411,-0.331062844989936,0.333876620747584,0.021559112977714,0.201156651753038,0.203811161722682,15.3507969366373,2.00192530504999,1.85043724875512,0.0283580681946255,0.0698069793554625,0.128516352595478,0.486156955616475,0.0195942690703621,0.0061658505692889,,,,,3.0,-102.460692774955,1.73559965442544,AttemptLanding,AttemptLanding,1,0.744456569532339,0.082577209978145,0.0604970174979005,0.955552402979933,0.342881621068677
143,1.47551136608892,2.14067816734314,-0.642556476853876,-1.31766693766182,1.47551136608892,-0.0355059570138984,0.0083923795266462,0.0364843119380381,-0.0229644200089188,-0.0918808812078052,0.0955519362490116,0.0061622363134714,0.100660201978753,0.10218517830352,15.453410885544,0.705486768307873,0.693671955718362,0.176338272031915,0.240148295825473,0.112657487975879,0.377789463023655,0.155309813983897,0.0406932528852736,,,,,1.50542716708844,-115.316950545559,2.44462171272992,AttemptLanding,AttemptLanding,1,0.413906733284415,0.156351320804173,0.177634922979083,0.900837474009551,0.349930005344054
144,2.66828797964388,3.0,-0.567625730316759,-2.5724634302767,2.66828797964388,-0.021590577010684,-0.0089566175448608,0.0233746446710786,-0.0264966585088141,-0.33967597277879,0.341795949095973,0.0220675757749298,0.206067995485051,0.208142474971579,15.3983500684926,1.8045986884377,1.53458292859479,0.0627543432690532,0.240576898627153,0.135397582603222,0.452786695473454,0.0018666545040725,0.0088352612819344,,,,,3.0,-100.955060334027,2.04952378452644,HoldLanding,HoldLanding,0,0.753171956232684,0.0789205561031579,0.0513947801702668,0.942386401374504,0.33982329662079
145,1.65489626132153,2.50410652160645,-0.761259963768599,-1.45252399546442,1.65489626132153,-0.0627265312343359,-0.0065732068810067,0.063069998964584,-0.0335352355531108,-0.113232157605926,0.119840465479098,0.0077322070422958,0.13481748742527,0.136748119369892,15.389742197104,1.11944446284929,1.05067806986033,0.176647809775892,0.240200381654025,0.170115947859329,0.424239970663909,0.159232954327165,0.0366757036620558,,,,,1.68254359450145,-116.590495520199,1.69902058190787,AttemptLanding,AttemptLanding,1,0.46865529355972,0.202635141707613,0.205687906461227,0.89462513235505,0.32439291206252
146,1.71952717639132,2.4820442199707,-0.809363570923006,-1.498283259499,1.71952717639132,0.0028186025586253,0.0012089131683815,0.0030669188825555,-0.0376227078193723,-0.119325367754767,0.127193676245539,0.008213625438107,0.14169562931892,0.142666777366866,15.3963648379219,1.99930965047267,1.809843620945,0.0283479766882085,0.0529479294867993,0.132880476289503,0.415384518386471,0.0194472642684078,0.0060722386063333,,,,,1.779143412243,-117.297381887505,1.73881876093528,AttemptLanding,AttemptLanding,1,0.487073935844392,0.172128603267163,0.114128477289974,0.955896950237614,0.340942010537999
147,1.43694541220729,2.03168511390686,-0.706840622435897,-1.24104457770373,1.43694541220729,-0.032970303546699,0.0090409866811312,0.034187429797074,-0.0275409422515157,-0.0817401533749684,0.0872793611521574,0.0056296930590686,0.095514425026776,0.0968971636636671,15.4317048814785,0.834621836970645,0.883321836962011,0.176518088598319,0.240154804284276,0.140712856427015,0.438511721639064,0.159165464158677,0.0352355511553335,,,,,1.48754464037965,-118.732441752547,2.04748175211164,AttemptLanding,AttemptLanding,1,0.402564875988012,0.140084128345199,0.167603610992713,0.898242826834227,0.337460952699105
148,1.68222963165593,2.40322232246399,-0.745852034009485,-1.49592194218235,1.68222963165593,-0.0475591654744765,-0.0159968018595809,0.0501774041811982,-0.0313099912988827,-0.118364638407086,0.123560038579618,0.0079726906173618,0.123685780654077,0.125693124497007,15.369523996461,1.05771847133322,1.12037771285794,0.177626067083995,0.240204978254642,0.131433238675202,0.473429376382125,0.157378811314246,0.0357100804744583,,,,,1.75445964810256,-115.915142708198,1.81690164488509,AttemptLanding,AttemptLanding,1,0.473733193340982,0.171422546198367,0.185785149889802,0.894073353582215,0.341585227255466
149,2.57997248324263,3.0,-0.610606057392693,-2.47263137731397,2.57997248324263,0.0063832646263621,0.0059737730028917,0.0087425414600243,-0.0288491933188711,-0.31918451622236,0.321714298486441,0.020772023940001,0.203098319380247,0.205691181195879,15.3914405596826,1.85366530470788,1.95400681868304,0.0243687405454029,0.0524818281199657,0.125106262527473,0.423804810709551,0.0084675303740988,0.0072452232524999,,,,,2.89228411426449,-102.374592577792,2.04352739198797,AttemptLanding,AttemptLanding,1,0.729130898437212,0.0961089905380784,0.0640633677930525,0.957898205900656,0.344397216654456
150,1.52212925174752,2.19571614265442,-0.650301924147655,-1.35959104834021,1.52212925174752,-0.0471104995566058,0.002988354361502,0.0472051843578951,-0.0247703731626545,-0.0986962775105841,0.103069389800802,0.0066482018689215,0.124125849738606,0.125706720470617,15.4444396424847,0.959688744138716,0.810414705888779,0.176158664142312,0.240171108492616,0.163503841353536,0.378707303927085,0.158940162471405,0.0349816606355996,,,,,1.57055207434036,-114.528428258895,2.03225783766962,AttemptLanding,AttemptLanding,1,0.431042477893462,0.160211334253,0.179487476628804,0.898012712250056,0.327331626065095
151,1.46484434926832,2.06030559539795,-0.647163193917291,-1.29972931614073,1.46484434926832,-0.0499335664297597,-0.0028716060289127,0.0500160691936153,-0.0244556729653978,-0.0905837073812076,0.0950401980597514,0.0061301140529779,0.114766976450386,0.116171133161387,15.4497647501978,0.756600455846364,0.947382933775504,0.176400332705815,0.24016679805183,0.150927314732572,0.405961860181086,0.159642531067605,0.037084374857488,,,,,1.53043490962982,-115.371127707452,1.64573321131572,AttemptLanding,AttemptLanding,1,0.413859386437163,0.143148393064663,0.170326499089749,0.898411392728635,0.33292119345219
152,2.62088155905937,3.0,-0.657140463472595,-2.50215468895801,2.62088155905937,0.008849595850439,0.0043366225745921,0.0098550313074372,-0.032226534890491,-0.326885699364358,0.329861217072634,0.0213017889698783,0.199082964372976,0.201654308314875,15.4125900300579,1.93902282603811,1.88679476298737,0.0234761635363242,0.0495765306346125,0.135112403766211,0.392533876243537,0.005578851455354,0.0064694358547849,,,,,3.0,-103.235441300153,2.11194261290868,AttemptLanding,AttemptLanding,1,0.739232610745474,0.087108404951338,0.0570970546355284,0.958201922889495,0.339950042770573
153,1.45178015167649,2.36156034469604,-0.696862958249007,-1.25048522401506,1.45178015167649,-0.068879419203524,-0.0115655000298705,0.069843648106007,-0.0302614534061904,-0.0871214009365864,0.0946260304251817,0.0061025731855715,0.152228287122915,0.153749990895291,15.481937518996,0.720482224599181,0.695539614943921,0.176000512126155,0.240194477454257,0.147549688012394,0.370358044811967,0.158444159878197,0.035301494051273,,,,,1.53053947457772,-117.277382087191,2.05199622829931,AttemptLanding,AttemptLanding,1,0.417891371959455,0.217505212248835,0.213759660889569,0.900873858054798,0.33442236088338
154,2.68558381721017,3.0,-0.660376153796089,-2.56882159008213,2.68558381721017,-0.0267413780960797,-0.0099404723996909,0.0285291831990772,-0.0304118152945789,-0.337487068430012,0.34018178019508,0.02196513701948,0.201361571007986,0.203417092059273,15.3946040081368,1.95522047773323,1.55815146602306,0.0624827500326138,0.240264600626722,0.131981484570948,0.442932719117218,0.001857767461239,0.0083046538087354,,,,,3.0,-102.931426400997,1.92182969411553,HoldLanding,HoldLanding,0,0.756839103001234,0.0759739913808749,0.0494299433680097,0.941153559711322,0.341341562412912
155,1.65230220996293,2.27769637107849,-0.777830310421094,-1.43707731873537,1.65230220996293,-0.0649813892462028,0.0017482948517777,0.0650049035323896,-0.035234330899437,-0.110800178306674,0.118480514363467,0.0076429774876562,0.130434009141903,0.13214673534634,15.4248727351762,1.00221595698173,0.964235324252066,0.175962694266331,0.240201878328575,0.168588581663194,0.438243213070267,0.155301598802958,0.0413340167472487,,,,,1.68981233095603,-117.495671617653,1.65952802667468,AttemptLanding,AttemptLanding,1,0.467043269726051,0.152631251898605,0.175632235484932,0.896567964228569,0.325071741483025
156,1.63340348942224,2.31156516075134,-0.72059539821447,-1.45405639809292,1.63340348942224,0.0038420484867756,0.0033888181569644,0.00512302889663,-0.0291074476010026,-0.111254033885911,0.116084100086651,0.0074952250533657,0.116866718515529,0.117754286544679,15.4250287974736,1.96171651637894,1.78643518284882,0.0277721770452466,0.048675670564555,0.134005914441037,0.412795013982935,0.0195842609280613,0.0054360452329522,,,,,1.64682358488304,-115.230680905002,1.68571192340375,AttemptLanding,AttemptLanding,1,0.459125121154866,0.15352559801343,0.102796218497159,0.956664148126301,0.340441815803984
157,1.64996438538468,2.44696307182312,-0.723835443142054,-1.46410819042354,1.64996438538468,-0.062859270608232,-0.0067171738391307,0.063217152148638,-0.0307006175670491,-0.114516967516985,0.120245751810645,0.0077557149867717,0.131983091916875,0.133852958413112,15.458740840272,0.913889112152849,0.766012723576229,0.175340812511725,0.240217315868409,0.17050723677857,0.42103413639636,0.156471070919588,0.0406736269024446,,,,,1.69535374865113,-115.407012304463,1.98598614742708,AttemptLanding,AttemptLanding,1,0.466761094451871,0.190914515675899,0.19888181737473,0.899130365034838,0.324219005876191
158,1.62045557515041,2.19652223587036,-0.748968884960721,-1.42569169119494,1.62045557515041,-0.0382811782755991,-0.0013103270320696,0.0383035973127743,-0.0308898134551916,-0.107556069431515,0.113020852182524,0.0072898846606553,0.114227510976564,0.115993663166272,15.4140280906156,0.920441739985047,0.839995898452414,0.176058809454907,0.240188773349406,0.143837629386081,0.5072814335616,0.159567535496618,0.037081188515232,,,,,1.65925020896733,-117.23842078182,1.50505843017961,AttemptLanding,AttemptLanding,1,0.455320219340031,0.136637324835997,0.166385368117755,0.898138585256252,0.336072164717297
159,2.57440437401418,3.0,-0.735554015193068,-2.43250435355175,2.57440437401418,0.0106405631061685,0.0063927757639564,0.0124132656937884,-0.0376389030615001,-0.310031903360016,0.314178102038906,0.0202882070690362,0.202103345295155,0.204521497011697,15.3918338892075,2.08773299509295,1.94922276520707,0.0247347613817681,0.0535197460838463,0.132764929188446,0.421650702484495,0.0100940947104224,0.0086938629902292,,,,,2.88835322200788,-105.56852442763,2.02668910970126,AttemptLanding,AttemptLanding,1,0.727412132472786,0.0980347812240051,0.0664685377738661,0.955913681192473,0.340993364805135
160,1.51987612609928,2.08926248550415,-0.672089621643216,-1.35236992832365,1.51987612609928,-0.0460924285650026,-0.0064738977067186,0.0465448528039022,-0.0254433554352411,-0.0973252845159645,0.101516569117767,0.0065473304221641,0.112095960693698,0.113666352697558,15.4475580353963,0.919205162498739,0.708839173589795,0.176004621698846,0.240182648874891,0.117945739061038,0.389930802364912,0.15821490945547,0.0369083192675066,,,,,1.56544004446909,-115.546181583882,2.4232640780529,AttemptLanding,AttemptLanding,1,0.428033570832652,0.136645153880145,0.165726036870217,0.899205912224167,0.347579671528428
161,1.62468696601929,2.55897235870361,-0.754768175555054,-1.41386237978655,1.62468696601929,-0.0779959013119003,0.0162855273139509,0.0796779707406579,-0.0346105108750522,-0.110282427216361,0.118233313398415,0.0076249240360728,0.16550932104222,0.167086352605513,15.4347968678715,0.746541020144959,0.768635045953865,0.181785004479225,0.240216920359171,0.137368177078852,0.44674349651379,0.122927265436786,0.0049968138835546,,,,,1.70136515468512,-117.053321105748,1.5,AttemptLanding,AttemptLanding,1,0.466667128126247,0.224821841323093,0.191344468218366,0.897202542955325,0.338947476853843
162,2.43914687510618,3.0,-0.627198043459279,-2.32076030307136,2.43914687510618,0.0054464738423129,0.0051923856147644,0.0075249548628155,-0.0312191205510054,-0.29974835886922,0.303146069781174,0.0195548316136772,0.20699096665069,0.208607201903945,15.4644566884102,1.13080668138561,0.927237781595771,0.0275074624027562,0.0768475784389008,0.272216229123922,0.713182852451252,0.0225344052211629,0.0159543593049385,,,,,2.85921158454158,-105.062668776886,1.60829348906661,AttemptLanding,AttemptLanding,1,0.692160607075771,0.127571528159292,0.0923597933067767,0.970075919446625,0.279015009278257
163,1.65582905629197,2.58095049858093,-0.772184745603821,-1.43722217528289,1.65582905629197,-0.0704456418641885,-0.0029868191364741,0.0705089323859858,-0.0364913063513735,-0.113201652986652,0.121961695048258,0.0078663183352372,0.175096256972114,0.176871546565968,15.4556970143568,0.959886779757425,0.837562913192799,0.176302647551306,0.240215754719605,0.166465060308536,0.388504148566004,0.15629577272971,0.0408936819616416,,,,,1.71874998102098,-116.787170824054,1.57332246003093,AttemptLanding,AttemptLanding,1,0.476928724324385,0.221078962119115,0.216982594955573,0.89772585720831,0.326015528751762
164,2.52501271820997,3.0,-0.778704121857128,-2.36457513011949,2.52501271820997,-0.0279793249055695,-0.0156821354733066,0.0320744757583746,-0.0391149670862296,-0.288049877561121,0.293034976802632,0.0189192898082765,0.231161962503503,0.232909654583511,15.3699314804609,1.81753681287904,1.59152308250528,0.0632414182825323,0.240268202896442,0.137104226162937,0.507060738650822,0.0018367634594233,0.0081745993990264,,,,,2.64390369362176,-106.697557678757,1.53851396686738,HoldLanding,HoldLanding,0,0.719918655772693,0.11275245895846,0.0714403962900212,0.941593820252143,0.339064788372028
165,1.62475695946073,2.25252056121826,-0.689593497662476,-1.45924880240955,1.62475695946073,-0.0475090737405764,0.0078784951936348,0.0481578942044153,-0.0268602522458146,-0.112879522929835,0.11701358983004,0.0075469672513636,0.113923092574188,0.115741903581422,15.4649669954017,0.906619914330466,0.760041288872042,0.176109204837191,0.240183647431142,0.164138793674312,0.435998885506328,0.155511745703606,0.0417475129841302,,,,,1.65443912380199,-114.70021335318,1.60447403460566,AttemptLanding,AttemptLanding,1,0.456416903239145,0.150075757666255,0.174342699835989,0.898850202413385,0.327049425033639
166,1.63506328740646,2.71781444549561,-0.72633862128394,-1.4399854940797,1.63506328740646,0.0052707658523874,0.004459203641605,0.0069040183797552,-0.0329233858996709,-0.112844458951168,0.119977453762368,0.007747453231911,0.18035921111747,0.181302608332774,15.3543465504506,2.01811382499824,2.07954590396072,0.0274450121391041,0.0607199595180833,0.139351498365558,0.501871754608147,0.0195471151146062,0.0076927130711704,,,,,1.6985678915868,-115.061450151433,1.55641703058495,AttemptLanding,AttemptLanding,1,0.472277398308278,0.244884747273012,0.158415805289109,0.954081596060056,0.338066000726419
167,1.47989851916396,2.10193300247192,-0.700050615666957,-1.29172542589575,1.47989851916396,-0.0611826264731443,-0.0254150463418179,0.0662513272524336,-0.027767491462564,-0.0885409614064169,0.0939996003215578,0.0060617922327051,0.105921620392343,0.107443744270181,15.4739617357414,0.732431364169292,0.562441576776011,0.175607819698081,0.240146153663921,0.0934147296361106,0.410580210428433,0.155935323830399,0.0398034900093472,,,,,1.53242316823457,-117.234742424214,1.78112943475021,AttemptLanding,AttemptLanding,1,0.416128353964427,0.152103835407237,0.175040885980444,0.902022088472104,0.358482342383951
168,1.74552155829765,2.38474225997925,-0.861756304583628,-1.5048111114789,1.74552155829765,-0.0374180959471223,0.0090874919248087,0.0385057971452549,-0.0409632197685912,-0.119180313562061,0.127693759657632,0.0082386890252122,0.113302816471577,0.115356833457847,15.3598698642643,1.04627227057123,1.09162881477053,0.177979777790157,0.240192749234587,0.137373933285648,0.480875820768356,0.155871427305416,0.0398276140471876,,,,,1.76822611766951,-118.998443980142,1.94868139526123,AttemptLanding,AttemptLanding,1,0.488543782237608,0.150884054021657,0.174289391070944,0.894212316862951,0.338944918539712
169,2.48429173888969,3.0,-0.775097683445885,-2.32720902689617,2.48429173888969,0.0086001403380863,0.0062725216517595,0.0106445733454456,-0.0404507792919332,-0.285398758939728,0.29037499079108,0.0187509551050401,0.21398931706262,0.216232579948844,15.3842156916335,2.06664390109975,2.0113448600679,0.0143131443097832,0.0486013043062644,0.139006777840585,0.456106645510765,0.0005395387924351,0.0056041367514203,,,,,2.66549340284327,-107.193726307889,2.48821106805114,AttemptLanding,AttemptLanding,1,0.705724313027019,0.117985863863152,0.0730691812463586,0.960802087578791,0.338219209848629
170,1.73527444133887,2.39648294448853,-0.772038005966712,-1.54063442784198,1.73527444133887,-0.0489596083359695,-0.0035723544328941,0.0490897643567959,-0.0334780620956901,-0.125403065815499,0.131119146182241,0.0084583385725777,0.119266068250135,0.121377656602951,15.3790772717867,1.00227522458602,0.96959759083925,0.176989096549153,0.240243133068309,0.173166716190908,0.500539423204752,0.158225950400384,0.0375798675203959,,,,,1.77840570795084,-115.675983280215,1.91699560913159,AttemptLanding,AttemptLanding,1,0.48701538234429,0.157771703340751,0.178651072997896,0.896012165318511,0.323037015026263
171,1.63665818048004,2.32339429855347,-0.790407094787769,-1.42092485506727,1.63665818048004,-0.0431427217132644,0.0067681228311152,0.0436703781010107,-0.0345366719643832,-0.106771611673538,0.113543941158939,0.0073227823259822,0.105656264964713,0.107427320656695,15.4414428125446,0.759141480010763,0.799171391390303,0.175599232665158,0.240201526535762,0.135706549482278,0.460890275173842,0.157207547178015,0.0413744151908191,,,,,1.68221562017466,-118.331726157389,2.36183243544061,AttemptLanding,AttemptLanding,1,0.457927645592682,0.162521862551707,0.182428380386602,0.899956496820698,0.339685978007876
172,2.4267647441813,3.0,-0.853117918478481,-2.23780016310005,2.4267647441813,0.0083303814224697,0.0031075560492471,0.0088911281198192,-0.0470426256037377,-0.265521117304465,0.272496916461498,0.0175972714848312,0.221996538499245,0.224087524660788,15.4112811352771,2.15162472604595,1.88856270469181,0.0279971912692119,0.0494045488221764,0.1386538892348,0.467450975896958,0.0212144569628684,0.0084029942042769,,,,,2.5789773418386,-109.450212225276,1.57989027177854,AttemptLanding,AttemptLanding,1,0.691954770047171,0.130607972714508,0.0908490654238582,0.954257074552455,0.338376049228978
173,1.54569086553277,2.61815476417542,-0.725815265234943,-1.33880062209541,1.54569086553277,-0.0593391310639384,0.0033643347179139,0.0594344279312708,-0.0328542867301268,-0.0977108982228091,0.105759563006506,0.0068208741809391,0.157684060654091,0.159411182683698,15.4366317633996,0.750069844326236,0.818654933443246,0.175610049371781,0.240191936783366,0.151835865893886,0.449786369173869,0.159095603196978,0.0383435120254235,,,,,1.60572032516396,-117.151648626796,1.52669524350423,AttemptLanding,AttemptLanding,1,0.444066467345479,0.252200688981994,0.235972665647603,0.899869280631635,0.332517392936051
174,2.32294017754802,3.0,-0.775761196410209,-2.15694471458129,2.32294017754802,-0.0292853594354062,-0.0047017090265166,0.029660383426904,-0.0375410588379214,-0.249617660538052,0.254550251523789,0.0164314443061847,0.230675467915471,0.232123187789556,15.4088772498234,1.59908890215688,1.53790398127272,0.062660132154133,0.240307530592598,0.131240239433488,0.410918191058281,0.001906564679214,0.0095816230978239,,,,,2.36078838964489,-107.709824257803,1.5540089964645,HoldLanding,HoldLanding,0,0.665875351570716,0.157776197013295,0.0989973068686546,0.944022132695987,0.341671004696228
175,1.62330280214348,2.42920136451721,-0.79672431385362,-1.40089995322194,1.62330280214348,-0.0462207528103403,0.0019014665092758,0.0462598483054201,-0.0354866856930806,-0.104412264583535,0.11176912710409,0.0072079026763139,0.111394700294831,0.113162419685971,15.4569494189041,0.737323108158933,0.688945427302536,0.175067547012688,0.240182664808421,0.150877030391001,0.427876225272467,0.155993621168088,0.043196346449775,,,,,1.70036876942666,-118.357386427334,1.75256629568533,AttemptLanding,AttemptLanding,1,0.455513231175456,0.189808148723417,0.198923149876351,0.901259830857888,0.332943542048444
176,1.7591927657558,2.49575233459473,-0.882260566582792,-1.50963310889442,1.7591927657558,0.0021429381476918,0.0009203012181059,0.0023321960116765,-0.0427652654506954,-0.119342311137543,0.128382380272179,0.0082887652257664,0.117363397561976,0.118389788422949,15.3984816289056,1.81178756853715,1.85719805927485,0.0269978858859166,0.0705539670798654,0.128508185058762,0.520942513150211,0.0183851871511041,0.0051302929150688,,,,,1.79740384781532,-119.424856454763,1.82561551287327,AttemptLanding,AttemptLanding,1,0.492796028552802,0.166153472257567,0.109728838703945,0.957673312838519,0.342885251084995
177,1.93667378055083,2.8267285823822,-0.989450403944773,-1.63354698349457,1.93667378055083,-0.0758253229399368,0.0083739838191104,0.0762863238329678,-0.0587168741035728,-0.146267506930567,0.162545663687855,0.0104880143555246,0.193300159258057,0.195897690614292,15.3828475378946,1.16300614850701,1.1192191303328,0.177300540387643,0.240290305932586,0.162088165463637,0.415753963876104,0.156112645787292,0.040180944638365,,,,,2.00389774569212,-119.82849383685,1.5,AttemptLanding,AttemptLanding,1,0.555625879603079,0.214248156448103,0.212543544592316,0.893417959758152,0.327960815349495
178,1.83075758814812,2.56743454933167,-0.970664080366353,-1.53829770550251,1.83075758814812,-0.0452987121062398,0.0100076235589759,0.0463910104199312,-0.0516526162803655,-0.125310921402154,0.137635926910407,0.00887894529522,0.119759722360855,0.121960861252532,15.4234202649951,0.938519711022581,1.12001659157552,0.176657366720227,0.240250768208854,0.165742103944103,0.526177751800298,0.157731862732419,0.0364845888146245,,,,,1.88108853169074,-121.75609313085,1.96667385156388,AttemptLanding,AttemptLanding,1,0.512594195756671,0.174257334843286,0.187924574214587,0.895497102833758,0.32633684269151
179,2.50605094552439,3.0,-0.660723299860367,-2.38263956868211,2.50605094552439,0.0051548567290065,0.0058671238507471,0.0078099737628617,-0.0323697509115195,-0.298780242342977,0.3020278339791,0.0195117475537717,0.214156002473376,0.216483000249308,15.3640145250806,2.01412061419052,2.47772735031827,0.0158685985678354,0.0658578166744018,0.153110999999148,0.511631563060128,2.94549720755589e-07,0.0062609293514385,,,,,2.73243854491602,-104.018907315581,2.4298682192771,AttemptLanding,AttemptLanding,1,0.711576852189698,0.112570365780204,0.0698190519614507,0.95677260956637,0.331950666667045
180,1.79315861656859,2.75081348419189,-0.901474273537813,-1.52129980549625,1.79315861656859,-0.0743179843274067,-0.0059763971583037,0.0745578977539097,-0.048491431664456,-0.127136758764151,0.140038917434412,0.0090332728353769,0.179441180375553,0.181572181334654,15.4407915966733,0.989708329824915,0.956659702795381,0.177181030500315,0.240271732324542,0.16186339898699,0.416800414484287,0.156338097694737,0.0361309360126673,,,,,1.85620598441334,-119.444845846151,1.95013544028519,AttemptLanding,AttemptLanding,1,0.514490067351888,0.229141293136793,0.220106897043939,0.896116593064969,0.328060711561338
181,1.84405334603866,2.57744193077087,-0.919071928568398,-1.58436934936322,1.84405334603866,-0.0593184925293697,-0.0076164755139129,0.0598054701111104,-0.0470121991549618,-0.132344665250373,0.142425702417297,0.0091850932658587,0.117961331909348,0.120229198391388,15.4601649496535,0.79414368421572,0.682388848522707,0.175996496271664,0.2402298833499,0.135348765464681,0.453523082466229,0.156058314455869,0.0408246984964221,,,,,1.8944468966032,-118.434379956689,1.97949557729004,AttemptLanding,AttemptLanding,1,0.515793398621922,0.175976767751784,0.189790656428135,0.900400424821223,0.339844993126808
182,2.43301463844784,3.0,-0.449251558048408,-2.35927846799876,2.43301463844784,0.0047207148458388,0.008465580929204,0.0096928431909644,-0.0192409621183805,-0.295995552281487,0.297306277712734,0.0191982802862746,0.218532849677936,0.2208282059501,15.4074411340438,1.95621493502461,1.83087270232703,0.0274375121120173,0.0711795375971433,0.127448758570067,0.492811222581146,0.0225429856547044,0.0085923826531191,,,,,2.61222307005049,-99.3162222201901,1.55091552400858,AttemptLanding,AttemptLanding,1,0.692969544776111,0.129348727600913,0.0907528440789241,0.9565255553648,0.343356107302192
183,1.79129849374294,2.82309007644653,-0.951662874646927,-1.48741502081811,1.79129849374294,-0.0735845391170545,-0.000596000607235,0.073586952741591,-0.0540179398508023,-0.12224007694218,0.138531201747537,0.0089357818628184,0.182270471392758,0.184335342112538,15.4268888821771,0.951303243084332,0.937187095024035,0.175924488020476,0.240249684255385,0.150694282162042,0.420376770157989,0.159048991324821,0.0338034339185104,,,,,1.87171872539055,-121.350351106356,2.04261307326629,AttemptLanding,AttemptLanding,1,0.514546666753959,0.245644047444266,0.230367026843918,0.897199617618911,0.333024763483537
184,2.50048754191635,3.0,-0.276467827734079,-2.45201752425645,2.50048754191635,-0.0104077994192006,-0.0043592174254851,0.0112838408936393,-0.0103150512134784,-0.315641963432465,0.316162938850459,0.020394175211196,0.213307248991593,0.214588073452287,15.4633734740293,1.20470599300916,0.816735861166929,0.0620178655697025,0.244884758314989,0.342599350150824,0.690681685973299,0.0022104359681548,0.0129301806617022,,,,,2.70378156394852,-95.0700514349474,2.20846683779993,HoldLanding,HoldLanding,0,0.709714292534817,0.114459007232656,0.0743597042024227,0.953108309789479,0.247733622155189
185,2.07528060433027,2.81038093566895,-1.20257370091667,-1.67675939137951,2.07528060433027,-0.0501878797171951,0.0033256642380609,0.0502979454166068,-0.0785698583804104,-0.14978551180553,0.172085818449189,0.0111000643651401,0.134708691808454,0.137308371336943,15.4257227458755,1.01356070597408,1.00409530204373,0.176259552070879,0.24031152835987,0.157211169036129,0.409087074855503,0.158839226847521,0.0360298878980662,,,,,2.15708888634091,-124.745911655981,2.260349993558,AttemptLanding,AttemptLanding,1,0.580869835422127,0.174618864544247,0.188468308076258,0.896017212472992,0.330128369317276
186,2.06192655886296,3.0,-1.12651135380701,-1.68969639425401,2.06192655886296,0.0079750861485739,0.0039087631407981,0.0088814654403447,-0.0745056516933811,-0.155665474115633,0.179581659158273,0.0115947999210034,0.216161510241393,0.217495604867472,15.4202570496468,1.85971191439102,1.88514726383564,0.0274573379696789,0.0478349463557059,0.128678512237209,0.420759606783516,0.0208247360257121,0.0057190968547615,,,,,2.10837557196529,-122.363616262261,1.77416511684566,AttemptLanding,AttemptLanding,1,0.593346203336951,0.212694792919897,0.138951985569138,0.956847437471951,0.342809550116796
187,2.04458525436837,2.82745838165283,-1.1254380924903,-1.68321888031335,2.04458525436837,-0.0678961481139811,0.0075524692863137,0.0683149084829685,-0.0706842076154903,-0.150427133950043,0.170577702634583,0.0110032621920981,0.150641049973615,0.153374142088684,15.4474192988667,1.05275605828913,0.985057049575675,0.175213059149023,0.240283621406142,0.152210105541759,0.409221770837564,0.156167754679694,0.0405347829349311,,,,,2.09849345512064,-122.244984043751,2.42868776098135,AttemptLanding,AttemptLanding,1,0.575897562915968,0.188670853527549,0.19735032415253,0.896382081720837,0.332351064203663
188,2.02399195046038,2.67960786819458,-1.12569302282416,-1.66612208150527,2.02399195046038,-0.0567803919138786,-0.0033904572306961,0.0568815269320966,-0.0693421168394397,-0.146773423334668,0.165311400639849,0.0106643884075408,0.137826098911872,0.140531315613801,15.4002264629017,0.971508476418618,1.12295355063424,0.177632420042878,0.240310644743309,0.169509817755277,0.508223135668319,0.158979021229465,0.0361907018043753,,,,,2.08252249604559,-123.526280590972,2.38663573932995,AttemptLanding,AttemptLanding,1,0.567837449912196,0.157941861427746,0.178582714826889,0.894727302623146,0.324662303219877
189,2.50336367190881,3.0,-0.786238714951367,-2.33942279438846,2.50336367190881,0.0074761501769689,0.0046768580247805,0.0088184932076033,-0.042263860967299,-0.288213202509514,0.293690530583774,0.0189695952819382,0.222736450629839,0.225028067886571,15.3707379834213,2.15978972217701,2.02948002609644,0.0200530043390353,0.0580981112858806,0.139367717929284,0.472734484177533,0.0003897761325439,0.0061116964433286,,,,,2.71977714743149,-106.924123588306,2.25084338321068,AttemptLanding,AttemptLanding,1,0.712569259419663,0.113359897575245,0.0704116074521347,0.957057806951191,0.338058792031429
190,1.98756947630161,2.94728374481201,-1.08290315320787,-1.63388293800298,1.98756947630161,-0.0767048576261788,0.005242059917118,0.0768837718613429,-0.0688856684144751,-0.14698510193463,0.168204582428278,0.0108503349510444,0.203865700698522,0.206442902995992,15.4413484432929,0.991562381861645,1.03799264358424,0.176567397894373,0.240291254204947,0.157273122418564,0.440736966197479,0.159312926383509,0.0360367184745878,,,,,2.06580628279313,-122.281189709167,2.25175582858177,AttemptLanding,AttemptLanding,1,0.57130710761296,0.230031068589421,0.221928647476476,0.895769797281453,0.330100834480638
191,2.00507381800059,3.0,-0.989815383765646,-1.70742965594263,2.00507381800059,-0.0826635108085155,0.0009808943493072,0.0826693303040134,-0.0603249142949747,-0.159543015687632,0.176184795453628,0.0113648909903131,0.199338298732337,0.202106915983304,15.4393255798257,1.06432935622328,0.849184580342782,0.175883177044187,0.240301323491017,0.155492410364176,0.476370649313857,0.158985151675399,0.035867845321867,,,,,2.07634549688122,-118.754548572983,1.5,AttemptLanding,AttemptLanding,1,0.575107734663484,0.239014434838937,0.227111581158966,0.897023659119173,0.330892262060366
192,2.47322603013603,3.0,-0.96500421877943,-2.24451018120694,2.47322603013603,0.004495638646913,0.0034733711003675,0.0056811155281763,-0.0573206007830367,-0.266698872429719,0.276275975165917,0.017843333327824,0.21423257283143,0.216242206148961,15.4026972415176,2.0143374551655,2.16699863901645,0.0269254590738369,0.0474369822777597,0.146167860837696,0.470973805776649,0.0134636356314882,0.0086680017357136,,,,,2.68099720733185,-111.612146549017,1.92602132871593,AttemptLanding,AttemptLanding,1,0.702775382599401,0.119565681066225,0.0808752473293429,0.953683915437366,0.335036506294357
193,2.03505993211592,2.84134078025818,-1.06288347542776,-1.71445859646635,2.03505993211592,-0.0636459539687555,0.0079913019307979,0.064145680783215,-0.0636518692898333,-0.157127038699451,0.173025574113262,0.0111627279164647,0.154792647717848,0.157476011062533,15.3992013573713,1.14205627823732,1.05755342122467,0.175526152780946,0.240289980611942,0.182877652122477,0.410278761792246,0.156684617599206,0.04292371087457,,,,,2.11900443077325,-120.570247299149,2.17764569827375,AttemptLanding,AttemptLanding,1,0.574177850776751,0.193173232308932,0.201150169343436,0.894954275970897,0.318721043501121
194,2.46852361928307,3.0,-0.982633307622964,-2.22682106443394,2.46852361928307,-0.0224335848333371,0.0050185007586565,0.0229880638231924,-0.0592991964073159,-0.266659586989008,0.277479805405901,0.0179126868028313,0.227510602431818,0.229173086541301,15.378834921505,1.6345495614198,1.51938936833719,0.0624822546952965,0.240265175418226,0.129302725986804,0.490724901423773,0.0019371505797521,0.0101749266050682,,,,,2.61715863552686,-112.220792726245,2.10393004948002,HoldLanding,HoldLanding,0,0.704107582450412,0.123796664028894,0.0788389275414937,0.943977923918547,0.342532121783643
195,2.05037285017487,2.82749009132385,-1.04242562304519,-1.74934660962887,2.05037285017487,-0.0519145831833885,0.0094676665749716,0.0527708315026379,-0.0599920819467497,-0.161366924078479,0.174632881891914,0.0112653811912944,0.128591747876085,0.131450785042302,15.4098529554937,0.928099940957768,1.0802380050436,0.175540913244497,0.24027418519862,0.143486902720968,0.500814377375912,0.156519115316158,0.0406585858169673,,,,,2.08957514186263,-119.371133784789,1.92570788469817,AttemptLanding,AttemptLanding,1,0.573056250388426,0.184526031700671,0.195064610569107,0.896449745230598,0.336228043235125
196,1.97119104383781,3.0,-0.925340828778587,-1.725058772204,1.97119104383781,0.0037305966967961,-0.0013255597770893,0.0039590984373697,-0.0473920573445524,-0.156132480388836,0.165142868443038,0.0106625134871179,0.136894302988599,0.138214187891667,15.3937467280924,1.87290718674324,1.93759440369937,0.0186689392412508,0.064082269884542,0.129449444990359,0.52800244284918,0.0002375894444967,0.0059541682779522,,,,,1.98818975952798,-117.123132335998,2.27622048175912,AttemptLanding,AttemptLanding,1,0.55329378260175,0.23220784985001,0.141595457319745,0.960725875025897,0.342466913337618
197,1.8959692196558,2.52269673347473,-0.853771044513562,-1.68080525497633,1.8959692196558,-0.0527993653603351,-0.0060179263164124,0.053141212063745,-0.0403973291873781,-0.148292422798895,0.155043432672894,0.0100016198790055,0.120859976497382,0.123315626478306,15.3819007092999,1.00412518329652,0.99477142629561,0.176881844249036,0.240246342625641,0.148469767658474,0.474264078727726,0.156446219430215,0.039458037550992,,,,,1.96491164649544,-115.571452830696,2.32374747985935,AttemptLanding,AttemptLanding,1,0.530254917203874,0.15075624615428,0.174333778063933,0.895853461657258,0.334013436596234
198,1.839768756156,2.71776127815247,-0.830680157147642,-1.61484493016421,1.839768756156,-0.0779597697961248,0.0059935868798373,0.0781898253633485,-0.041797017791157,-0.141883433129437,0.15091696064036,0.0097350113131696,0.177103243418782,0.179355020053238,15.4274970282432,0.940050527546194,0.97248889387937,0.175410696512894,0.24028191042048,0.159231984169297,0.405938016704582,0.156152259847519,0.0406369053483806,,,,,1.88489007794024,-115.359098105949,1.81911232284205,AttemptLanding,AttemptLanding,1,0.526476005652248,0.211883118765819,0.211307932126487,0.897267556289495,0.32923022925809
199,2.49060740678207,3.0,-1.1361983796042,-2.18200847577424,2.49060740678207,0.009188806930745,0.0054497311205983,0.0106833394637317,-0.0758052026428281,-0.251658384821359,0.267984557825632,0.0173048606542699,0.211244312593971,0.213261243544604,15.4115642243941,2.11572259956,1.75180521333478,0.0236567156615029,0.0509454797444673,0.141149841881411,0.437765528154395,0.0066711298993333,0.0060693256398077,,,,,2.68563096804021,-116.007396076949,2.05254338119597,AttemptLanding,AttemptLanding,1,0.706814223850805,0.116571945709052,0.075115141552742,0.957783923639361,0.337266736941595
200,1.92131498756025,2.73437857627869,-0.829572607361645,-1.71166415277461,1.92131498756025,-0.0701740544557582,0.010524840988569,0.0709589331697875,-0.040169022637838,-0.155839480740779,0.163075494803367,0.0105187971889394,0.144276000291614,0.146791612208125,15.427915395324,0.991956394793343,0.888253359255545,0.176009345238153,0.240285751506547,0.142027742411806,0.393733497013632,0.155936041207054,0.0411137161946403,,,,,1.97177383483815,-114.893051128023,2.35890327194985,AttemptLanding,AttemptLanding,1,0.541708985791024,0.195948445209443,0.201824416581398,0.897222250741968,0.336876558928086
201,1.82451497864079,2.48302292823792,-0.783516667756327,-1.63382309538955,1.82451497864079,-0.0504344404860974,-0.0050863986305143,0.050690277550771,-0.0348815035271468,-0.141536248405738,0.1471536474491,0.0094935165882408,0.127269863038628,0.129592514653889,15.3943327615746,1.0731402636868,1.0410872935352,0.176685383341869,0.240294871553958,0.19363857071401,0.46422642683255,0.159659086195481,0.0358604995930127,,,,,1.87135485490829,-114.338554000358,1.77907376341571,AttemptLanding,AttemptLanding,1,0.512455830568321,0.157457506210328,0.178474279261042,0.895045520379464,0.313938413015996
