scenario_id,mean_wind_speed,max_wind_speed,wind_velocity_x,wind_velocity_y,wind_velocity,wind_acceleration_x,wind_acceleration_y,wind_acceleration,wind_body_force_x,wind_body_force_y,wind_body_force,mean_wind_body_risk,mean_wind_gust_risk,mean_wind_risk_raw,min_thrust_margin_n,mean_estimation_uncertainty,gps_dropout_enabled,gps_dropout_start_sec,gps_dropout_duration_sec,moving_pad_enabled,moving_pad_amp_u,moving_pad_amp_v,moving_pad_freq_hz,mean_abs_roll_deg,mean_abs_pitch_deg,mean_abs_vz,max_abs_vz,mean_tag_error,max_tag_error,stability_std_z,stability_std_vz,mean_imu_ang_vel,max_imu_ang_vel,mean_imu_lin_acc,max_imu_lin_acc,wind_speed_cmd,wind_dir_cmd,hover_height_cmd,gt_safe_to_land,label,success,onto_wind_condition,onto_gust,onto_temporal_pattern,onto_drone_state,onto_tag_observation
1,2.11363314055815,2.88063740730286,-1.29423301051728,-1.65249092711034,2.11363314055815,0.0009049792988063,0.0007249852077227,0.0011595650402995,-0.0896904997792846,-0.145029472047412,0.174810971141742,0.0112848604585918,0.143685589772933,0.144597454155742,15.3159558580222,0.320644174689873,1,14.9605102736682,7.42651472357787,1,0.0717747328300573,0.112032227880748,0.270226572149888,1.44242547192768,1.54342229886142,0.074496874162973,0.282487621108639,0.149810983546542,0.538054846103177,0.049547228364705,0.139209520494274,,,,,2.1396688985117,-127.709262372896,2.31472368639318,HoldLanding,HoldLanding,0,0.592554994979988,0.172788546941614,0.176315762365381,0.939291330433742,0.333417340645981
2,2.07893655449152,3.0,-0.627730831936619,-1.95439410358133,2.07893655449152,-0.0107294525058275,0.0028414403427063,0.0110993213439366,-0.0300813586297018,-0.229360413719179,0.232880755143151,0.0150166421889421,0.227313200377374,0.228163707395852,15.4952517489483,0.142250014523768,0,5.68896641803291,3.27734786037709,0,0.172238026354346,0.124482933551646,0.251354765379329,0.865555629934421,0.360323843696605,0.128335240992133,0.74815633740153,0.249216852277198,0.26036888556534,0.0376116003987746,0.0941120497703787,,,,,2.4078142646114,-106.948920050051,2.11957571683729,AttemptLanding,AttemptLanding,1,0.600015822676909,0.20927415081913,0.176503320888243,0.926200469353976,0.289236954543467
3,1.86372265437224,2.99569487571716,-1.18491625171765,-1.40217841186734,1.86372265437224,-0.0073392974330997,0.0008945844440249,0.0073936167157214,-0.0814441952013689,-0.111460499911983,0.145803516075337,0.0094032577607197,0.198562373637273,0.198872543546951,15.4364408972219,0.327314579967371,1,14.269910299941,9.33257989956095,0,0.0792581617937344,0.101152742573894,0.0975162914651047,0.715134636106164,0.787063982833876,0.0630800512029044,0.421636435557764,0.238718110111276,0.28050709298704,0.0001670977480841,0.0048803903840782,,,,,1.93938346389085,-129.159046213467,1.917348144641,HoldLanding,HoldLanding,0,0.536767216541986,0.256049246200491,0.155478500798502,0.956656985249733,0.293903062172766
4,2.46938249027028,3.0,-0.751504343221693,-2.32062632696605,2.46938249027028,-0.0113879968636342,0.0140593057590365,0.0180928314807887,-0.0397513994312847,-0.293027770579765,0.297786527081832,0.0192171073638253,0.217670561971838,0.219326708229375,15.3884891850465,0.211346511986334,1,13.4847437546095,8.11836830597077,0,0.0884103817990246,0.0867052213601525,0.11608876216047,0.981602979016773,1.45421640577984,0.0879970982826125,0.447603470945314,0.110117560259708,0.378050249146538,0.0248953304843805,0.0178729995579467,,,,,2.6973243686687,-107.092406890338,2.42064192526264,HoldLanding,HoldLanding,0,0.702367339051282,0.122705958793999,0.0911874391693167,0.936862869978149,0.351058862106797
5,1.9913082210343,2.78273439407349,-1.1060780189632,-1.64011651744431,1.9913082210343,-0.0002167894005431,-0.0045841260213126,0.0045892492875701,-0.0665823298994504,-0.138409244421186,0.156494715169553,0.0100984242364456,0.134568715711651,0.135399493869215,15.3917453765903,0.137596819052613,0,14.3211092796662,8.24771905308302,1,0.0469025944422426,0.0484370941932134,0.168311824809301,1.29482711435961,1.15554230687121,0.0707338293660252,0.787437317864671,0.127966879877648,0.471705825050071,0.0266783309635048,0.0171846993399728,,,,,2.00200400724988,-124.398868862931,2.12896341716216,HoldLanding,HoldLanding,0,0.558095424382991,0.178912251303204,0.125453368343874,0.945380182721602,0.34312583116549
6,1.96684386578691,2.71238088607788,-1.16590553743874,-1.56821909109391,1.96684386578691,0.0065527729994504,0.0036582967568392,0.0075047964091924,-0.0735278571470065,-0.129012942006549,0.151623698500528,0.0097894139039017,0.13581474529145,0.13700133303328,15.3916748003427,0.29738132816455,0,9.37133435977865,4.6096080770925,1,0.145467649645729,0.0422216178096939,0.274770766694373,1.51554517800559,1.79644619194612,0.0503912925924038,0.374529765866206,0.170655110105881,0.428072257472693,0.001311292030416,0.0109869722202014,,,,,1.99661919299708,-125.85580820349,2.4589527782308,AttemptLanding,AttemptLanding,1,0.551891964149831,0.169121708907155,0.106051084427783,0.948781564368463,0.324153284397386
7,1.85918971157482,2.75195336341858,-1.07799685913143,-1.49092055696231,1.85918971157482,0.0058637239500655,-0.0016120441857416,0.0060812782389358,-0.0657556435429218,-0.116655806659964,0.138359987625593,0.0089272134530501,0.154130576107541,0.154859001118897,15.3598368170677,0.23819387249797,0,10.9808497010853,4.61539012914305,0,0.0640590951971166,0.140419265044943,0.0534566424866301,0.903311349665839,1.35633412056076,0.0739324810393421,0.810230112092503,0.0894273018080049,0.445769986313087,0.0255533186903427,0.0161263133234391,,,,,1.87426200826755,-126.596930639358,2.26993517010276,HoldLanding,HoldLanding,0,0.526755723310397,0.201986722675318,0.138413178070028,0.945279402214263,0.360254532529776
8,1.94451527563229,2.88047480583191,-1.16166229194386,-1.53331358495448,1.94451527563229,0.0021547617763341,-0.0002909163227777,0.0021743115277276,-0.0758704685795695,-0.120299741760097,0.147099885319645,0.009488666913349,0.159113101331082,0.159946337111071,15.4147725110604,0.191770051661287,0,9.40664145203932,9.98260004771993,0,0.160855752105247,0.0585414687319019,0.0921788565895718,0.650474922040066,1.04302586000106,0.0492363888070487,0.275671370720821,0.163981412311016,0.309846021383806,0.0310059583574823,0.0190380121282262,,,,,1.95332820371371,-127.202212038542,1.55438012475909,HoldLanding,HoldLanding,0,0.55052667425749,0.210989518074999,0.147297050282831,0.962075728023295,0.327119372306215
9,2.5159187703627,3.0,-0.770253023565524,-2.36296398930826,2.5159187703627,0.0082197667402538,0.0030234836828047,0.0087581972371242,-0.0396565406877164,-0.2932785593616,0.297958854775348,0.019223675033897,0.206776309018522,0.209099253484556,15.3880112038241,0.19178977825012,0,8.89175441378507,6.39751551528138,1,0.166228109899332,0.115796989777443,0.0584222524746999,1.02546127588436,1.18444168628606,0.0264930461180007,0.103970369592765,0.217586275089629,0.438676543491233,0.0029730557106654,0.0051325681208614,,,,,2.74487220964884,-106.758294244659,1.68941752613879,AttemptLanding,AttemptLanding,1,0.712731522793631,0.110523946161865,0.0695021141983341,0.969389953666804,0.303294988849054
10,2.01808469727535,2.88685011863708,-1.07472852042407,-1.69156041774124,2.01808469727535,0.0012272904152272,0.0042117589939183,0.0043869300867646,-0.0644425846164276,-0.148979754995298,0.165240545298714,0.0106614717089342,0.140001513312831,0.140939025324608,15.3757000273084,0.267560791642235,1,9.01215855865682,7.80864040338076,0,0.134673872969381,0.143930177943681,0.0578653513970587,0.686936227550947,1.17893988399965,0.0521007755563586,0.251136573685687,0.226729414067175,0.378955713460433,0.0241545992244346,0.0173037655763135,,,,,2.05126066309477,-122.211439927127,1.63853989121228,HoldLanding,HoldLanding,0,0.566343724338349,0.196276490322296,0.134793550017847,0.959289157059637,0.2992313715257
11,1.91100737091842,2.60288906097412,-1.07637270636773,-1.56376452107007,1.91100737091842,0.0031372667996354,-0.0016324557215986,0.0035365738582807,-0.0636409444599528,-0.128278587726388,0.146089615518988,0.0094268182638145,0.136611892952473,0.137385350510329,15.3709239845822,0.140690800975162,0,12.0497505762801,8.83552043593153,0,0.0356505069338878,0.0412296388392565,0.24157586189668,0.756271928739945,1.42148048408743,0.0728407246461078,0.252124059531128,0.0996349139826474,0.440587699295029,0.0244622595121321,0.016629368751536,,,,,1.94106924244638,-124.863664714484,2.25067541007148,HoldLanding,HoldLanding,0,0.537079035680311,0.156321752136551,0.110712209803033,0.946468725861874,0.355717816007712
12,2.54828072351755,3.0,-0.604745347449838,-2.44155312714593,2.54828072351755,0.0083855470681172,0.0087724419298299,0.0121356144073487,-0.0285720953826954,-0.312464471092602,0.314980060191281,0.0203392874469542,0.21139497628563,0.213845357515538,15.1802963797166,0.147803830448628,0,8.36468623343468,8.00301229615807,0,0.179274171185565,0.138193307862337,0.0882464902433919,1.90172860197115,0.970320066220206,0.0366693231158491,0.123253243368707,0.164257134957105,0.525363631294121,1.19544137865164e-07,0.0275913665177616,,,,,2.82179955786848,-102.658248237611,1.93521258911907,HoldLanding,HoldLanding,0,0.722310597774456,0.103861699849897,0.0723502972289433,0.959099241763429,0.326996828907954
13,1.82613871490675,2.7413272857666,-1.00324533753499,-1.49097163200323,1.82613871490675,0.006188376965627,-0.0051587554840164,0.0080565977690693,-0.0604294907355573,-0.117813885269364,0.138289393276175,0.0089221437624636,0.196427508760486,0.197103805253003,15.3654219332309,0.237387567563814,0,8.05917447780242,8.23613202132354,1,0.0941972083079414,0.162178740553935,0.275524020584059,0.926951200066589,1.17224961287852,0.0707650270832446,0.250867399197541,0.189550368165823,0.549230267900675,0.0249025616047724,0.0160618214737271,,,,,1.81564992585132,-124.856492181276,2.17534228579688,HoldLanding,HoldLanding,0,0.526391085025733,0.207394471367797,0.141345150332437,0.948123765785238,0.315755391926301
14,2.67626671926141,3.0,-0.819040715637845,-2.50954191369091,2.67626671926141,-0.0287152205233444,-0.0050769591802802,0.0291605796276845,-0.0401656999474552,-0.324973596745116,0.329634111001378,0.021268249047097,0.196560064505515,0.198621639842697,15.3783484573002,0.240480834155997,0,11.1369464911041,3.15467251748006,0,0.132104218297022,0.0722767177999341,0.204508752595128,1.01530572539514,0.990318511202988,0.0672321186971465,0.251189266595578,0.0896801624135519,0.365900523210371,0.0255866671082005,0.0170383125641271,,,,,3.0,-106.356863714422,1.9030219893474,HoldLanding,HoldLanding,0,0.753395453104916,0.0781860944312575,0.0644792587301625,0.950625464506727,0.360142150038421
15,1.90022409811906,2.70276212692261,-1.07453158018461,-1.54160083789719,1.90022409811906,0.0020347139419457,-0.0068255050674011,0.0071223296926403,-0.0652104637409678,-0.122016903626891,0.142907152807636,0.0092279293152897,0.156262202935852,0.1570188223787,15.3357098306936,0.225450357339156,0,15.2188612446177,5.86455892769953,0,0.101689161294098,0.14301994779096,0.151255182182497,1.58456577371964,1.14009826022484,0.0701573178863932,0.252067384283076,0.144690182095062,0.441882535163335,0.0241031128633895,0.0207110145482009,,,,,1.89152489310621,-125.328378154295,2.08356853384541,HoldLanding,HoldLanding,0,0.538130190640822,0.18187681692445,0.127369862778148,0.943513266504382,0.335693252402195
16,1.75680786513631,2.93710207939148,-0.954037726413197,-1.46118839620787,1.75680786513631,0.0016082053250309,0.0019057686895576,0.0024936476626733,-0.0532102923397606,-0.120793679765278,0.134384289329251,0.0086678519119671,0.145417910279782,0.146036451873963,15.4572087873808,0.155659819332385,0,14.4429965827361,4.66863421390142,0,0.080209307416615,0.0919698049936414,0.227460642975201,0.672050012177713,1.09360670524849,0.106340393140767,0.577146198699062,0.244329145023073,0.312672000984495,0.0255836653647729,0.0511457522804546,,,,,1.91158907974983,-123.148647987168,2.33267792335149,AttemptLanding,AttemptLanding,1,0.497689387744476,0.266023366945569,0.189582993481951,0.932956786364125,0.291409268878634
17,1.78770984130907,2.86732387542725,-0.954132475692118,-1.48147359407259,1.78770984130907,0.0010555191560049,0.0091559193256367,0.0092165600625321,-0.0586333657475555,-0.124487936166611,0.142940026208691,0.009221119496061,0.19007878340447,0.190457665393938,15.4011501906916,0.297246464462575,0,11.5087693785167,4.38518008474687,0,0.0499326527132244,0.0963564547081167,0.265445319956398,0.727844428900053,0.984148711298242,0.0721152802002448,0.442279958251995,0.236136089132285,0.303353978639473,0.0245156838783244,0.0174082682793303,,,,,1.96200270211122,-122.666388364578,1.5,HoldLanding,HoldLanding,0,0.514814157427874,0.24460286035472,0.163987855088611,0.950490985226891,0.295050627052318
18,1.98252381046167,2.98988008499146,-1.08856356375231,-1.63159512524603,1.98252381046167,0.0025646202568266,0.003416916583205,0.0042723057004745,-0.0683733776973132,-0.138676345298061,0.159033730032893,0.0102584898571985,0.161940071234848,0.162801457674285,15.3986545862585,0.181666394990996,1,13.1290533363924,7.67503766260113,0,0.10307174602427,0.0967090024472712,0.24145844815063,0.671085801457838,0.996194632903865,0.050744625392987,0.251366239298552,0.209034911074797,0.345866631301178,0.0246303124364521,0.0149074847502672,,,,,2.01539435512142,-123.830694564799,1.60457326886021,HoldLanding,HoldLanding,0,0.561233307657968,0.22743841781429,0.152830759761438,0.961527626747807,0.307095595077868
19,2.60805839678914,3.0,-0.820316470651617,-2.44187153812773,2.60805839678914,0.0117605111602744,0.0045931879651573,0.0126256484361875,-0.0439199506864872,-0.311030621444959,0.316328250579396,0.0204103723978528,0.195832331516692,0.198185691484518,15.3428046233053,0.143323746019499,0,13.8906289550413,7.15687574848522,1,0.0909612804448962,0.176109822287518,0.153164146571702,0.994859952944574,1.17831089219073,0.0233801314271846,0.118979360717621,0.29388634332732,0.499326343611464,0.0031192107038659,0.0050189421523818,,,,,3.0,-107.357187901088,1.56300926111873,AttemptLanding,AttemptLanding,1,0.735119377440675,0.0905015629357439,0.0575123235034246,0.971235020503202,0.26938384741008
20,1.75966354480001,2.48786973953247,-0.855891598280134,-1.52460918384076,1.75966354480001,-0.00043336378582,-0.0024669809071469,0.0025047552708972,-0.0399561627650485,-0.119687639544718,0.127888843114455,0.0082574914528467,0.119938956732464,0.120610040664149,15.2669387498403,0.213016246824499,1,5.73656183856354,4.59041820885573,0,0.0383689872314443,0.165213011647743,0.150003611609362,1.76787060660922,1.11496411065395,0.0789084095364033,0.252673516266761,0.153248249490021,0.530933481981297,0.0256190387179437,0.0169370827852323,,,,,1.75292430226957,-119.550273636708,2.35229884507068,HoldLanding,HoldLanding,0,0.4933656200795,0.164305598947801,0.116128537993507,0.937894951024731,0.331889666893324
21,1.81567377905451,2.62691211700439,-0.952556503509076,-1.53024748727307,1.81567377905451,0.0008608806760735,-0.0004513480699535,0.0009720239805105,-0.0504669761179284,-0.119989245123023,0.13239419703916,0.0085406100329506,0.13282185697355,0.13356371699567,15.3413097634651,0.230965863720698,0,9.40162538524221,3.64967382781653,0,0.0788501283042176,0.0544650622352215,0.0793868136360086,0.626943951041497,0.958008476913923,0.0517680283320098,0.250300316650142,0.240708160658844,0.347216505953194,0.0246947696991778,0.0163679327861039,,,,,1.82710314960735,-122.310740141076,1.6461292346088,HoldLanding,HoldLanding,0,0.51089241781367,0.182706830435151,0.126551527019308,0.961662788185774,0.293018595262736
22,2.62848075735928,3.0,-0.663483346743875,-2.50921377143284,2.62848075735928,0.0064257099523151,0.0046636595768945,0.0079397398597462,-0.0323663883863443,-0.327358280720599,0.330382296256187,0.0213174268544602,0.192827697810582,0.195514789853105,15.3887749686334,0.290844992714143,0,12.3216528048749,6.56930672644292,0,0.0412244406476768,0.065646461020404,0.0558511923744785,1.03701871993139,1.18168022740265,0.0234818415364056,0.0893026702643167,0.235780625937664,0.351286270121024,0.0030905131591168,0.0049473905903799,,,,,3.0,-103.513196987454,1.58660729764167,AttemptLanding,AttemptLanding,1,0.740031159933095,0.0850474485684492,0.054201081668896,0.970826444645601,0.295208610694371
23,1.88172917955524,2.80586671829224,-1.03851182616964,-1.53319820331364,1.88172917955524,0.0020356145193708,-0.0043474084070759,0.0048003839772863,-0.0640980215836289,-0.122396655633897,0.144608385448712,0.0093260057268355,0.200240011189844,0.200940247309314,15.4273427894043,0.241302290793527,0,12.688647754213,8.4959791298578,0,0.150651499495239,0.144739977573232,0.0938832350927178,0.638030377679195,0.717531131581754,0.059180215627709,0.251162121209782,0.0675723499693733,0.335427681785776,0.0242706022649564,0.0167499427475368,,,,,1.88087930278733,-124.632218690049,1.8357980820608,HoldLanding,HoldLanding,0,0.541982497343261,0.208811016611659,0.142164432578808,0.959759051756238,0.369967844458056
24,2.59134996612117,3.0,-0.660867961660899,-2.4718041170119,2.59134996612117,-0.0163945628750181,0.0186754346264049,0.0248506247476406,-0.0332065086944713,-0.331960131273627,0.33513405807368,0.0216255447081981,0.203063766217451,0.20499724485763,15.4120221023645,0.14644730963065,0,5.5976526224823,3.2058763056581,0,0.160725740435673,0.0350315048565801,0.214583210516431,1.10562311291746,1.25519995295197,0.0843870910534598,0.250591802115439,0.103379728239604,0.378436469290756,0.0244013349097769,0.0174999192471229,,,,,3.0,-103.635733958443,2.33609894849213,HoldLanding,HoldLanding,0,0.732026106603838,0.0965022054931376,0.0751099680325149,0.939257130384296,0.354053454115731
25,1.74061609207917,2.51860380172729,-1.00278979720243,-1.40039944164656,1.74061609207917,0.0018056163621216,0.0005087432853411,0.001875918489045,-0.0571336043883061,-0.101563137329967,0.120141248124567,0.0077492362428411,0.145820324243775,0.146502602193064,15.3826123856691,0.135109746177049,0,11.5206121291774,8.1964978633403,1,0.152139743867444,0.166880701422676,0.27933110262577,0.690940154171697,0.912339088032877,0.0511178369051717,0.250629202995697,0.311587380638409,0.47944713050725,0.0245052506242118,0.0163587321170725,,,,,1.76072715108059,-125.424728650442,1.64776309145215,HoldLanding,HoldLanding,0,0.493464811659725,0.175391153060486,0.122074544196695,0.961843887501521,0.261516719716263
26,1.85504487964222,2.75405764579773,-1.07866195531911,-1.48684658795927,1.85504487964222,0.0060629255224098,0.0027976322373604,0.0066772608175663,-0.0647427137463557,-0.118073232034291,0.13867030440721,0.00894284458359,0.160061743787472,0.161130795627525,15.460040763336,0.225401729273154,0,14.6726345027025,7.69711572559581,0,0.0901848066076195,0.0943657436483626,0.22431700001692,0.663463964506177,0.773706053889144,0.0333587891376139,0.120266763943114,0.061825745613333,0.261853954959311,0.002811444150136,0.0053610124618936,,,,,1.88801056126119,-124.747033688317,1.89880138266014,AttemptLanding,AttemptLanding,1,0.526904793696763,0.20350203686821,0.125300211931372,0.972028555286658,0.372521890838519
27,1.88103759808828,2.85819506645203,-0.968224076090285,-1.57828733472581,1.88103759808828,8.54823230136158e-06,-0.0081665844266633,0.00816658890052,-0.0571103556247997,-0.128126223231076,0.145464609035565,0.0093830168902665,0.200150919946729,0.200940956336687,15.4036109087154,0.311946573400373,1,7.10971127133674,5.22682488867154,0,0.0668460410368985,0.0418858734272669,0.275486661554772,0.632525403930171,0.943746717180973,0.0524055622939305,0.252491513414454,0.227124479120557,0.359754201915105,0.0251807043272199,0.0192988206669435,,,,,1.88786131788593,-121.743469379942,1.65881844457221,HoldLanding,HoldLanding,0,0.541798217424213,0.221357638346937,0.151023760123391,0.961412223615733,0.29905578705753
28,1.90873838221089,2.66318202018738,-0.974959958050203,-1.62507374519682,1.90873838221089,0.0002033123057027,-0.0023371119654189,0.0023459386676882,-0.0531768884866323,-0.134551105726427,0.146893757748075,0.0094771435924226,0.131171315666928,0.131997253818728,15.3618918736881,0.209318870725458,0,14.6033701841906,8.45472169180541,0,0.112176874478574,0.166977425765469,0.1480714647789,0.676980357259196,1.17215751179821,0.0504737082268377,0.250205613380969,0.218949124399184,0.359726396342562,0.0248511834046383,0.0165312952833127,,,,,1.93366507970541,-121.303703794887,1.61044054684457,HoldLanding,HoldLanding,0,0.53539635268665,0.170179907300452,0.119164294885356,0.960234205486844,0.302689278044807
29,2.62441098929249,3.0,-0.562236986766121,-2.5311710498533,2.62441098929249,0.0067880811979656,0.0070531803346068,0.009789044855483,-0.0253888349661463,-0.33293659941495,0.334863741364216,0.0216068516649726,0.193737543432807,0.196399489753274,15.4357668089196,0.211517240001585,0,6.98716682836864,6.21899686489646,0,0.038951678414654,0.0992672888636716,0.243268619744511,1.17911042456864,1.45680042192835,0.0474673695964866,0.177112332051482,0.102304799000449,0.341396978822059,0.0026474782972214,0.0062491490972892,,,,,3.0,-101.47367915972,2.39800344680081,AttemptLanding,AttemptLanding,1,0.739122828428652,0.0863021856326951,0.0552303862541641,0.955555587122138,0.354531200444245
30,1.90352026728176,2.89492964744568,-0.85998245355944,-1.66500298146211,1.90352026728176,-0.0003469131453671,-0.0050243236725847,0.0050362860420476,-0.0471332011450496,-0.143606893694514,0.155176529988054,0.0100090698796954,0.204234042038727,0.20504266912822,15.3854646670686,0.167645195618165,0,11.3284635414095,7.14836257464351,1,0.0688076260221219,0.127836626154246,0.174615660617187,0.715936854740164,0.87991638735765,0.05236787489643,0.251441783133204,0.241094613456505,0.432852127854932,0.0249244945490556,0.0170537463296341,,,,,1.90418233211605,-117.468545924201,1.65076250028147,HoldLanding,HoldLanding,0,0.548613938434112,0.223990429644591,0.151673173221353,0.961277215649588,0.292846838463776
31,1.95217885336413,2.67468643188477,-0.99033829780424,-1.65741058735436,1.95217885336413,0.0028075220955083,-0.0015481556475267,0.003206082691656,-0.0561175958540958,-0.146809382828399,0.161171680007208,0.0103981219394777,0.16627600192036,0.16703780650861,15.4112884384388,0.265702303443415,0,11.454190429095,4.0164043284711,0,0.087056247164438,0.166175869433425,0.0788245133001855,0.989557605266482,1.12318147396217,0.0852640984857731,0.284728946007728,0.104914393282786,0.371872767038644,0.0881712255530443,0.0882771891928348,,,,,1.95361636761473,-120.978689808246,2.24380036017624,HoldLanding,HoldLanding,0,0.553988588865489,0.163151986993948,0.169179199623399,0.940767857991745,0.353371380763206
32,2.44631769355029,3.0,-0.551927362528342,-2.35243562016298,2.44631769355029,0.0051765274989537,-1.42196637431126e-05,0.0051765470292716,-0.0254584988470047,-0.313117260105854,0.315311085281736,0.0203324478211898,0.193129537287863,0.194718124317368,15.4756006294047,0.236055199352099,0,11.451164327446,7.02231256290234,0,0.161587645795095,0.0452548082996172,0.104753829979107,1.0455329703191,0.305682953222846,0.072080437497967,0.36733406176508,0.252417753694431,0.27341439549613,0.0104509567428706,0.0246374921539782,,,,,3.0,-103.063417072898,2.489918548664,AttemptLanding,AttemptLanding,1,0.691295009810218,0.125527552573217,0.0889204892634204,0.953343084708901,0.887814331691364
33,1.82278872974988,2.71188950538635,-0.836540660865518,-1.59082245868564,1.82278872974988,0.002129743156682,-0.0067495483454759,0.0070775849540186,-0.0431585343918778,-0.132690797830849,0.143199283604062,0.0092450829060352,0.188966440223889,0.189694405122995,15.2449316768328,0.197567949110162,0,5.75614547811316,7.28026877159539,1,0.0430596265598774,0.138576551446579,0.059156090725273,1.48900409262743,1.12805351397703,0.0700200011271752,0.249913157300642,0.171077384327947,0.538037014903376,0.0247154550631236,0.0141907052468991,,,,,1.82477587595629,-118.302001637458,2.11688191176566,HoldLanding,HoldLanding,0,0.524015875624566,0.201345231759777,0.136952042204006,0.944427403955949,0.323965606965357
34,2.60754271062444,3.0,-0.600226934961677,-2.50159067023372,2.60754271062444,-0.0192714048147663,0.0073977288982529,0.0206425152630837,-0.0290467037610207,-0.332954082954016,0.335535635408654,0.0216538891806199,0.213158209109091,0.215199804467643,15.3813137376174,0.266269428853353,0,9.87429819656055,9.69130676165294,1,0.0333542846746429,0.0516722791116846,0.128093328790494,1.41885076232578,1.1971795151946,0.0834480914123919,0.646163313996202,0.119970005049809,0.3459713194966,0.0252817322205032,0.0177603940522501,,,,,2.95266872258167,-101.961285859905,2.30485784949483,HoldLanding,HoldLanding,0,0.738384683726712,0.0920873512410666,0.0729470612858838,0.937721430684715,0.346679997755641
35,1.97456023547008,2.69592475891113,-0.931036028159239,-1.72427016280958,1.97456023547008,0.0001217792484299,-0.0090994006525118,0.0091002155150458,-0.0483899747939437,-0.148773513841432,0.158604231206675,0.0102419426905426,0.13341460433658,0.134226470830609,15.2900247168637,0.283991830128827,1,6.48590615149357,5.49751465924498,0,0.149485146407275,0.0777402396577643,0.200907138847806,1.68372011289455,1.00558030144104,0.0650121284227578,0.248556600459972,0.163845294284996,0.493988463199542,0.0246912078299454,0.0173305178616463,,,,,1.95785632669367,-118.543232805973,1.94012519664543,HoldLanding,HoldLanding,0,0.553394690291476,0.163975390618663,0.115661111012984,0.946363718247413,0.327179869206668
36,1.76458215673632,2.59049916267395,-0.861963550398224,-1.52022758617644,1.76458215673632,0.0058212922454075,0.0032717093825898,0.0066776886488191,-0.0422640348056749,-0.122105182121156,0.131577585694353,0.0084885055422304,0.141278595426306,0.14229867209142,15.4089533249481,0.253839425916158,0,15.4298499552771,5.18127841230251,0,0.132544902275803,0.0719236035012332,0.0958312530470354,0.677889715135892,1.44119744536483,0.042689029451825,0.166137192103011,0.0853171097803964,0.385723748685684,0.0028981795059852,0.0053848206436533,,,,,1.80194750046987,-118.644695572194,2.26721575203329,AttemptLanding,AttemptLanding,1,0.499014976214635,0.187055569254918,0.115479537931081,0.962005514727296,0.362081284542046
37,1.97916555300094,2.70382118225098,-0.803248778417477,-1.79121831111278,1.97916555300094,0.0032320057239119,-0.0126912777440439,0.0130963503227374,-0.0379537788669554,-0.159901394586669,0.165813781440281,0.01069680185428,0.133809166742268,0.134716338699963,15.3911289931623,0.242699109739452,0,15.1397482180528,9.36849535926082,0,0.0874655716191274,0.112707530319777,0.113872870055913,0.774095397027368,0.939110575665189,0.0597483160228149,0.250988066841125,0.086707560013643,0.420889988625077,0.0245357820255188,0.018108995062597,,,,,1.94925992751377,-115.036005485037,1.8726916255148,HoldLanding,HoldLanding,0,0.554720748540242,0.165448514140428,0.11675898960927,0.956664937917437,0.361463306660603
38,1.96298667939155,2.78041195869446,-0.759386939086253,-1.7891221026225,1.96298667939155,-0.002611339155668,-0.0093209274691464,0.009679813070045,-0.0347253953963884,-0.162316123372349,0.167893005908291,0.0108296495984724,0.157121441009421,0.158005533006566,15.3971473643609,0.246080641566153,0,7.59158683446164,7.99226662481761,1,0.174291299697185,0.164405646754934,0.178366237969718,0.776598847836862,0.943902499609888,0.0591473929436261,0.251500254030693,0.171083420823671,0.400724199254234,0.0243439099628186,0.0152964153994387,,,,,1.95556734378663,-113.09173062844,1.85520444091852,HoldLanding,HoldLanding,0,0.555064221105725,0.18569532023933,0.127799040555152,0.956908078655391,0.323962924078369
39,2.61651541756148,3.0,-0.532737635872261,-2.53040768612502,2.61651541756148,0.0074967553677447,0.0027741059825527,0.0079935602234701,-0.0234454065858637,-0.333475744135277,0.335091261083318,0.0216230397279958,0.195254351206692,0.197939043673268,15.3802156050024,0.267765177101603,1,7.32825176561587,4.06280725579779,0,0.154808116279618,0.108418412706893,0.0906465265478031,1.06201824480139,1.32069777957837,0.0288133328738204,0.113872459722925,0.130491414320546,0.394198208416112,0.0030809281407335,0.0048351907803906,,,,,2.97839668406099,-100.746107780264,1.76132689476235,AttemptLanding,AttemptLanding,1,0.737325253417716,0.0877495170896358,0.0557772628425324,0.966871993371535,0.342003815857535
40,2.09140700331621,3.0,-0.366979962026123,-2.0275759872863,2.09140700331621,-0.0013892426272743,0.0046673259139703,0.004869694678792,-0.0158230424056969,-0.221653772581049,0.222854419063736,0.0143783248315743,0.229337001218144,0.230586942384129,15.3701145970735,0.290436384567432,0,14.8741761740485,6.47754306762706,1,0.0514409237021718,0.0340060249002207,0.115418245841032,0.854181324154613,0.978003338114844,0.0475295438532798,0.251774348571456,0.247748763358426,0.333356968977265,0.0242049261983228,0.0179184904800136,,,,,2.14315727359721,-99.704949465741,1.50335951890037,HoldLanding,HoldLanding,0,0.603825922694481,0.205326201611632,0.140469280664016,0.961839491441243,0.289889438507366
41,2.03732811411222,3.0,-0.341622863376884,-1.9788570465053,2.03732811411222,-0.0033318465879444,-0.0003399650838267,0.0033491458528732,-0.0138375599846063,-0.205536782412347,0.206548239250852,0.0133290116975068,0.215538593764485,0.216729700499387,15.3724892920051,0.175052983320993,1,4.9934006182921,4.63602995982264,0,0.0667231718149363,0.0918122389104845,0.270852100943803,0.824436199798652,1.28880069367559,0.0507996972858925,0.251116945741451,0.236719194869797,0.362721636916073,0.024433644180331,0.0144943800931564,,,,,2.06610024186884,-99.4944295849637,1.59114920474564,HoldLanding,HoldLanding,0,0.586633437196469,0.217215184397778,0.146459191722386,0.957996147194042,0.294791468946757
42,2.62559912595462,3.0,-0.714246909610661,-2.49248544848897,2.62559912595462,0.0072234936943227,0.0052460613335543,0.0089274868057776,-0.0358635862782024,-0.323202753419226,0.326873174705946,0.0210916622707022,0.201651365598709,0.204273011875041,15.4035085978371,0.157775346210122,0,11.4547996456312,3.00303809053218,0,0.15676051975896,0.171034501636167,0.219727994843271,1.00819230066473,1.2171557013786,0.0310321069871348,0.115310218274026,0.111789573766391,0.386224751779478,0.0029293050360067,0.0043593813394112,,,,,3.0,-104.488379335247,1.85411038559526,AttemptLanding,AttemptLanding,1,0.74101436929624,0.0858769025746034,0.0544132844720661,0.966999069347521,0.350315744992715
43,1.89670798156345,2.62928342819214,-0.287180341916543,-1.86101141424428,1.89670798156345,0.0032122231647372,-0.004952719715339,0.0059032033878888,-0.0075544735480044,-0.176912057114853,0.177246434315593,0.0114337013984056,0.1335329078971,0.134439572181952,15.4010852244471,0.224688855516177,0,15.5919368633006,5.47837543960657,0,0.123325410591907,0.0932518711929841,0.134400662785636,0.778368063306574,0.826173653730981,0.0598592217807105,0.249664022613889,0.0888559595344153,0.386465523038997,0.024683189582207,0.015129502809693,,,,,1.89634686321448,-99.0299435298773,1.86298871466023,HoldLanding,HoldLanding,0,0.532676709519977,0.165911729445901,0.116018981533864,0.957463275618635,0.360508462429149
44,2.62292919468646,3.0,-0.68680723652919,-2.49271780669664,2.62292919468646,-0.0339552374235647,-0.0068416329454667,0.0346376397846496,-0.0305911720813628,-0.321023542990022,0.323916022126197,0.0209054083760485,0.213150325280291,0.215058521457131,15.2707940045354,0.221148886674176,0,9.83167814366897,4.69160978342138,0,0.11881977175103,0.0719948448084884,0.0804072485898567,1.56888133308356,0.755612729040334,0.0716957680257574,0.251576977536795,0.128681312220581,0.505411921528279,0.0246007555147942,0.0154191627321588,,,,,2.84909439858493,-103.288186023973,1.96525850398061,HoldLanding,HoldLanding,0,0.742459489541149,0.0911911651560657,0.0712553364775653,0.945888234070434,0.342808305679742
45,1.80488780121732,2.4317934513092,-0.249524661470275,-1.77347680626203,1.80488780121732,0.002664322201677,-0.0059824247762766,0.0065488944867174,-0.0062650415630205,-0.160726279870951,0.160998217925698,0.0103953296018347,0.129258868333168,0.130176858311459,15.2435504130636,0.171324576938821,1,6.33408169754853,3.29970073378369,0,0.0879396879632425,0.0657603963231281,0.0943462504527162,1.79347318282376,0.884753053611996,0.0736366241276834,0.249611130599901,0.163821425894908,0.617499174787037,0.0247718572874974,0.0175265690399917,,,,,1.79227934712189,-98.4873526901086,2.18572796514629,HoldLanding,HoldLanding,0,0.507338785320243,0.142254401926573,0.102735653338667,0.942138481792735,0.327190477380041
46,1.84172281373703,2.72584247589111,-0.250607128627929,-1.80736484417025,1.84172281373703,0.0053157138652081,0.004773175855709,0.0071442299547459,-0.0066000849897836,-0.172248610633434,0.172522623159601,0.0111313631959605,0.150426200712817,0.15184954304752,15.3812152544071,0.219899181089458,0,12.0112739100453,4.40116855947884,0,0.0697728358228525,0.174837036865795,0.274568603569965,1.23291807284505,0.788898540681621,0.0345767137331725,0.124123592415662,0.135267937061898,0.400935742498799,0.0001404579198055,0.0217040713205398,,,,,1.88430874295808,-96.6306497925403,1.92561665132121,AttemptLanding,AttemptLanding,1,0.521495992272713,0.200236699476371,0.128096834999064,0.96682594116999,0.339880916861379
47,1.77262113969673,2.57332897186279,-0.174667145711935,-1.75120611766477,1.77262113969673,-0.0004565433917661,-0.0013114789498088,0.0013886716330209,-0.0039838092518619,-0.158510678938697,0.158638792685072,0.0102300803914201,0.125735801273931,0.12646187043486,15.4510311950936,0.261101455644645,1,9.44122466209517,5.62178703077763,0,0.157818060312588,0.05629374431009,0.136855419080864,0.705230285754692,0.449854005391552,0.0803290149668534,0.332945435322841,0.0974038222857382,0.325645747712869,0.0474335311007802,0.0694960863738576,,,,,1.7942306129035,-95.9383136609595,2.09980408053653,HoldLanding,HoldLanding,0,0.497991344672766,0.180413852036752,0.154601184736124,0.950759830228996,0.35670941231745
48,1.69376308752653,2.48050761222839,-0.244988239510772,-1.6649550401979,1.69376308752653,-0.0013737455869356,-0.0084163244169707,0.008527701544339,-0.005634941464701,-0.146931562836868,0.147149009100739,0.0094892732721571,0.11921423076733,0.119685047660095,15.3820055273254,0.179364828886768,1,4.52435410668905,3.00215350594375,1,0.149541687482753,0.123684366990957,0.211748451412241,0.699956412999957,0.303593550062681,0.0722371814274706,0.357100885499415,0.323112345495083,0.373171595968204,0.0247320116688874,0.0163714367866758,,,,,1.77505847970161,-98.1997036075808,1.77934328582907,HoldLanding,HoldLanding,0,0.47560716620576,0.178580930007715,0.12409381293141,0.955996373862201,0.256394513113296
49,2.62835978584545,3.0,-0.650647769148098,-2.51211907460564,2.62835978584545,0.0079026637282297,0.0059093468619932,0.0098677492031783,-0.0314713078192883,-0.3278640881641,0.330723713566736,0.0213440929494056,0.193430757086164,0.196002244063468,15.3988224216418,0.278748318168423,1,6.67178777478075,4.76194621386494,1,0.148683686910394,0.0810052621995464,0.183889869651044,1.07845891070531,1.49648152880633,0.0258605763529281,0.0880507820132515,0.261747511241592,0.429548495250777,0.0030996394427338,0.004538444409481,,,,,3.0,-103.17867703994,1.69518662429013,AttemptLanding,AttemptLanding,1,0.740096391704813,0.0854281355386904,0.0542848422749476,0.966838036941659,0.283667772781515
50,1.8195560286122,2.66555047035217,-0.187671392573623,-1.79128778158227,1.8195560286122,0.0019080026546207,-0.0012246520917316,0.0022672112552257,-0.0053111901556422,-0.168579381173227,0.168813665391521,0.0108867591672731,0.150514717873497,0.151407569913177,15.4636350578329,0.202122658212467,0,4.94444409535466,3.91697087302946,0,0.101597564320669,0.0736617942412217,0.226777094170018,0.789815859147892,0.586832660836481,0.0671875027254968,0.25411846194626,0.0607297333783639,0.275938598232287,0.024370406648424,0.0163794275933188,,,,,1.82096079078944,-96.2053882192846,2.0904424208175,HoldLanding,HoldLanding,0,0.515496454945888,0.190764404788286,0.131246090205195,0.95558972455166,0.373009007387394
51,1.80872703112172,2.89161777496338,-0.136432714569331,-1.77890673669145,1.80872703112172,-0.0052372892090078,0.0042566154988594,0.006748923896735,-0.0046989089896466,-0.17080637951262,0.171047001708313,0.0110340132903139,0.193623854909349,0.194584880010336,15.3867259035952,0.22089254122627,0,6.65069967746276,9.75467381864686,0,0.0853474975620845,0.0931226531012844,0.075516314691925,0.741372359202999,0.75922794236555,0.0466166707644755,0.250814490849575,0.236241360638454,0.335261250628968,0.0248729676115042,0.0171729324732212,,,,,1.8507515569247,-93.8235592237573,1.50450388856384,HoldLanding,HoldLanding,0,0.521244184301192,0.244887720078775,0.16423198703658,0.964901233676867,0.295003839716243
52,2.52396894378407,3.0,-0.528417691672279,-2.43557515321396,2.52396894378407,0.0089618100619913,0.005781633230658,0.0106649576839788,-0.0235209796134762,-0.311829073719073,0.313604835563235,0.0202378304257348,0.213217323294775,0.21569870173398,15.404763194562,0.361103665759371,1,11.9082633415835,9.20322212535422,1,0.0976432733427944,0.110967004996273,0.101867968333348,1.00537158897459,1.7323016217587,0.0476288000522712,0.169778897166292,0.131266948245903,0.358764664402127,0.0021844226116067,0.0067657817714075,,,,,2.77719317437895,-100.961436075895,2.39880610669008,AttemptLanding,AttemptLanding,1,0.716198125355881,0.109062229890647,0.0688684767089476,0.95467531046096,0.341659134112932
53,1.77292246602733,2.52725005149841,-0.103721930500314,-1.75758697248017,1.77292246602733,0.0042965924502111,-0.0011940489099004,0.0044594236715573,-0.0024610448164619,-0.160348002907019,0.160413698390648,0.0103491287183948,0.121357735347073,0.122231698754828,15.3972355258614,0.260129270919861,0,4.14359512398448,3.12219412042909,1,0.143294808069665,0.034549241128265,0.133978913832797,0.915397673086493,0.966007643951768,0.0669863488661081,0.249793247940162,0.136777439152401,0.474980585061025,0.0248581926643806,0.0169680254189098,,,,,1.7823160694897,-93.8829963932827,2.07449626042989,HoldLanding,HoldLanding,0,0.497225664024919,0.170541267737447,0.119543037332503,0.951724355218788,0.339210027043377
54,2.55582012497418,3.0,-0.542499676078189,-2.46426342334822,2.55582012497418,-0.0189297939036998,0.0149799618476933,0.0241399327711346,-0.0246018672121774,-0.328445589096481,0.33034113768082,0.0213131679100052,0.212557429588515,0.214555336573655,15.392968070156,0.144534404088941,1,5.75339198222801,4.01786206152802,0,0.12192418828565,0.125549698192681,0.086212024476094,1.19763247422381,1.05193314405567,0.0828769864717224,0.250952121469454,0.0940382202614812,0.411244194444005,0.0243839672909238,0.0183930434067236,,,,,2.84178461070235,-101.224141607748,2.2899523529055,HoldLanding,HoldLanding,0,0.72446310064118,0.104366126222183,0.080145373949903,0.9408863483348,0.358205235439342
55,1.81319143907177,2.62870240211487,-0.0709974417213567,-1.7959413574968,1.81319143907177,0.0079487885387281,-0.0061337181806001,0.0100402060712139,-0.0021447972611484,-0.164105761190141,0.164164966936203,0.0105970850998942,0.128266402606756,0.129163904052576,15.2778608036431,0.221181657102587,0,11.5357602239724,8.29051450307528,0,0.0966307764469325,0.0444655406877223,0.116732811086703,1.44910075217239,0.855663271699018,0.0658387635854314,0.251941196736267,0.137508981413247,0.494513253668657,0.0246818322576518,0.017502506612404,,,,,1.81268753267023,-93.1526665262232,1.99409077781255,HoldLanding,HoldLanding,0,0.509350497896321,0.185330671131086,0.128532653763331,0.948971758019723,0.338884897149668
56,1.68189052474937,2.69127917289734,-0.235508243982617,-1.64206755409275,1.68189052474937,0.0032691787229868,0.0095139777165316,0.0100599851646755,-0.0069930170783166,-0.145768569620176,0.146184800030577,0.0094334772969404,0.175757558275851,0.176892607813687,15.3676296704022,0.177506482675495,1,12.0763432599249,6.60619148581384,1,0.0908561059756968,0.139596148220458,0.108995222197789,0.685328391934265,1.4828821098555,0.0253781659685937,0.0996665986310608,0.191565586826034,0.411126634378978,0.003092555676999,0.0050071713780624,,,,,1.7288427871229,-96.8513027264581,1.63913464634868,AttemptLanding,AttemptLanding,1,0.483882661495904,0.228956776446816,0.14056932464989,0.970274977358784,0.314859739188429
57,1.80935281674067,2.76446628570557,-0.156173028086571,-1.77694558987534,1.80935281674067,0.0002951763242827,-0.0044713589648198,0.004481091391022,-0.0056097241391636,-0.164389796369547,0.164693985671531,0.010622430164153,0.186292361937198,0.187224811580304,15.4170832193388,0.20359032163978,1,12.4225875268215,6.6798803318522,1,0.0534663861728427,0.1428047474443,0.234396014383489,0.732175656188602,0.672849191056953,0.0551625804820599,0.251986641523941,0.169376521387756,0.4302675170909,0.0247876900146051,0.0172446462238705,,,,,1.80912450321235,-94.8944011061714,1.72517097696734,HoldLanding,HoldLanding,0,0.51993904678024,0.215722063938789,0.146720769925919,0.961379228816326,0.324721546049886
58,1.67944280227025,2.50907182693481,-0.0756839597519424,-1.65155177642205,1.67944280227025,0.0020287717392247,-0.0067480141138338,0.0070463898026136,-0.0029728889292816,-0.140295867080216,0.140470872214478,0.0090609635638075,0.173722543825044,0.174513182987737,15.3840948532207,0.23638345323718,0,8.78648212704668,8.22177691325142,1,0.0873420077246373,0.130831292857118,0.192723152330042,0.728768864752675,0.778099525322772,0.0549196429700891,0.250262591657558,0.243503650589947,0.381020988204686,0.0251457202365534,0.0170593801614649,,,,,1.65786584843096,-92.9146212669234,1.72416150245573,HoldLanding,HoldLanding,0,0.482754050536282,0.187958368680005,0.130154307836499,0.96070049830722,0.291776155293357
59,2.61396867415578,3.0,-0.648591393824531,-2.49678750526285,2.61396867415578,0.0098666720883349,-0.0004706420116827,0.0098778905643811,-0.0318035239957134,-0.325544232143425,0.328522776063955,0.0212010565529574,0.202252647567432,0.204716443518814,15.4012387935449,0.251153766130841,0,6.83463706011339,7.98899225975598,0,0.159035680453639,0.168654720358336,0.147835638402564,1.0824670631196,1.45372718235197,0.0364456960576528,0.132806111077289,0.0974175340112233,0.415073241165556,0.0025730327236679,0.0060931932167777,,,,,3.0,-103.288913453806,2.04620813511602,AttemptLanding,AttemptLanding,1,0.738001601811971,0.0886679949184192,0.0565600736747423,0.96184991147104,0.356703318217234
60,1.56704606531977,2.41372585296631,-0.126758571150589,-1.54653824028898,1.56704606531977,-0.0023804755260384,-0.0036680917421479,0.0043728206867971,-0.0031081554982409,-0.124047954983022,0.124165805505024,0.0080105454339901,0.128801044255799,0.129541394693235,15.414190657794,0.21744337659349,0,9.69999400666642,8.11397338529238,1,0.15380860393084,0.0443292861163401,0.110765809635192,0.667984963455083,1.04557468706823,0.0496184704771205,0.251336359025731,0.244609258830404,0.389662260956437,0.0243463451088874,0.0163055938640806,,,,,1.57454882872326,-94.5469327829021,1.57472259329945,HoldLanding,HoldLanding,0,0.443787229690584,0.191304636013052,0.131532686293669,0.961727081793042,0.291284773853154
61,1.62639423645622,2.40678977966309,-0.0749130092108553,-1.59874179814826,1.62639423645622,0.0051490490015363,-0.0056867772826464,0.0076715149405216,-0.0029522328510667,-0.132951259768712,0.133116696219747,0.0085888053459143,0.168773749933608,0.169517293772794,15.3823821527652,0.225537076677263,1,5.68455263327323,4.49282180630507,1,0.0835717694147521,0.0481833076400602,0.182810615791212,0.695081352284193,1.18795225496119,0.0575511537917317,0.250857181657789,0.213517185079472,0.455960499559495,0.0247027514981336,0.0174007771769713,,,,,1.61762345460285,-93.6644143083513,1.80926241080507,HoldLanding,HoldLanding,0,0.467608588476216,0.176995441627308,0.123503820979302,0.956429159047206,0.305103473298013
62,2.64938587692852,3.0,-0.543665530111979,-2.55509122529522,2.64938587692852,-0.0077637291706084,-0.0138763512824326,0.015900585383816,-0.0257780447271697,-0.339166118256948,0.34121162702675,0.022013209339607,0.203430120479886,0.206094237596361,15.4154681843458,0.13058482301008,0,11.7955228262355,8.47485071138135,0,0.159762303634913,0.119587537052484,0.101847184779337,1.06830643980365,1.0811181922155,0.0271874590933715,0.0980089690734273,0.221174111341475,0.360081199633907,0.0008226312771787,0.004993725758685,,,,,2.97152933216033,-100.613250726234,1.70149888258109,AttemptLanding,AttemptLanding,1,0.747721748033543,0.0818032850114502,0.0512634851837239,0.969517934058878,0.301700394959344
63,1.55290855777344,2.37957334518433,-0.101204512073542,-1.53669903987938,1.55290855777344,0.0108293130477396,-0.0021526200450935,0.0110411862652743,-0.0022722582442554,-0.12552564798884,0.125584178465085,0.0080972442554928,0.112607057612098,0.113096052331907,15.4967154879673,0.245139584919777,0,6.68539754750122,3.1340829158211,0,0.0549053741784634,0.060087483010911,0.124221497391957,0.651500007654526,0.129946081972604,0.0514549430271861,0.338732433934264,,,0.0106583368362037,0.0087434998821781,,,,,1.62156253992994,-93.9354210374525,1.93878765576475,HoldLanding,HoldLanding,0,0.436728159205964,0.188023794649417,0.120730769886129,0.968132594925051,0.4
64,2.64787836141562,3.0,-0.432924464155216,-2.57536375408902,2.64787836141562,-0.0207932084068891,-0.0076587284884015,0.0221588275391857,-0.0160789296191051,-0.340040215515618,0.340997426189934,0.021994718285849,0.203765823153765,0.205964435078136,15.4040549826248,0.25297811002633,0,11.5016728992813,3.00673050321812,0,0.134567777513868,0.0836604309120414,0.240459889012371,1.05323442085227,0.684876631504123,0.054187876255525,0.251643496533649,0.200008657369947,0.307792908430646,0.0248298396790045,0.0184196512538086,,,,,2.94853364793101,-98.1270015879143,1.57265501214812,HoldLanding,HoldLanding,0,0.747293783393126,0.0832898203970028,0.0677074315413664,0.959249475032294,0.311107263391135
65,1.70501441774389,2.35651421546936,-0.0310465645279202,-1.69256868084985,1.70501441774389,0.0038833635168039,-0.0037220759832041,0.0053790670035229,-0.0009854490342972,-0.145941146588245,0.145973348710986,0.0094142199200124,0.116164558238829,0.117017020711961,15.3981965772489,0.195346193731202,1,8.32996532902651,9.82089244311133,0,0.170596737099381,0.12466742219783,0.0848331964325421,0.675952630769652,0.518483419891208,0.0586034963428701,0.252020463894223,0.0862629992685138,0.352660974962335,0.0247373690469144,0.0160298082513049,,,,,1.70415838852487,-91.4034471635259,1.82907196417623,HoldLanding,HoldLanding,0,0.478073915540764,0.147573616772209,0.105367577488691,0.961313397144801,0.361660889213994
66,1.58710302258016,2.48797416687012,-0.178745899075629,-1.55552535273055,1.58710302258016,0.0047406377477248,0.0080128959313548,0.0093102173692066,-0.0048107814043773,-0.131050894062032,0.131293112745659,0.0084732168172682,0.165722371905865,0.166736169304605,15.395014622073,0.209269880062591,0,15.9386999992086,8.55998587332785,1,0.132957881590257,0.0331276521569158,0.225400689183439,0.713175062443346,1.43421566970189,0.0257320348093133,0.0958243962507223,0.25065889530962,0.409511156397303,0.0032270239794253,0.0049851347662139,,,,,1.62915702887708,-95.203704492906,1.67250327592366,AttemptLanding,AttemptLanding,1,0.456574706548965,0.204402880649594,0.125888737548124,0.970261626842774,0.288596046529058
67,1.49946640563065,2.16686153411865,-0.0563076470752335,-1.48811049463144,1.49946640563065,-0.0049435664785003,0.0040121168858258,0.0063667834447923,-0.0009320550574124,-0.116941307875813,0.116973606857837,0.0075438875295249,0.110193231121309,0.11083967182767,15.3983235187584,0.249359913049691,1,6.43138508625423,5.32080618557361,1,0.0545498611235203,0.0381602255402044,0.216347667477117,0.592984957480971,0.449444570770844,0.0481144473672761,0.251465676032554,0.224900370389534,0.297946428177692,0.024450584968261,0.0179141222532137,,,,,1.52305422024291,-91.6803892574387,1.53194507075172,HoldLanding,HoldLanding,0,0.422025642533707,0.151331147541346,0.108179841451264,0.967752258594383,0.300044279826874
68,1.63989906303538,2.36022591590881,-0.0920785162832779,-1.62600095280043,1.63989906303538,0.004244717129473,0.0041865421070364,0.0059619424958004,-0.0019580978431375,-0.139522718288655,0.139582143077489,0.0090104416227036,0.115397152731732,0.116154373839495,15.3057167028093,0.225454439208788,1,6.60803015833816,5.80787829695869,1,0.11735913163785,0.0660136624580817,0.246901481631621,1.44606288422979,1.14792183192709,0.0809219872490045,0.248567614749292,0.170639122702825,0.485269808326371,0.0243335345641592,0.0170473592136711,,,,,1.65992886901319,-93.675633913439,2.42516083618179,HoldLanding,HoldLanding,0,0.460537291577333,0.16316656468742,0.114913882777252,0.939157697891408,0.324160389909855
69,2.62881538381545,3.0,-0.471463561045067,-2.55283281520371,2.62881538381545,0.006409835446116,0.0049629130367642,0.0081065711775552,-0.020667489212608,-0.338880878876116,0.340208021932017,0.0219575805294449,0.196853906014796,0.199610194025457,15.4083403755659,0.222138519315937,0,13.0491771524613,6.0422980308845,0,0.161482284441151,0.0726779028152745,0.165632456557974,1.14052055306825,1.68450418820404,0.0455492932489782,0.177222633188723,0.10774569155747,0.392114450393657,0.002769933951405,0.0060271610450515,,,,,3.0,-99.3718557434864,2.33634783330552,AttemptLanding,AttemptLanding,1,0.74093947448921,0.0850027433574097,0.0544244226960991,0.955028730408371,0.352113025974458
70,1.65362657465298,2.39414572715759,-0.0860129071076393,-1.63322745871046,1.65362657465298,0.0050074666985427,-0.0085116724986604,0.009875388167635,-0.0025931948803881,-0.135986978118502,0.136099955426261,0.0087825231430294,0.136156097058072,0.136873523227956,15.4080617578077,0.145470729407109,0,11.2971272005862,4.94123343693596,1,0.174490151896824,0.0588950530096197,0.0754134807920636,1.23073113706845,0.894789250764974,0.0672352424733099,0.254841222458156,0.161478988664487,0.446732052967421,0.0246102367235199,0.0161066989489369,,,,,1.63718820829973,-93.6710336136772,2.09380817298866,HoldLanding,HoldLanding,0,0.468341791219718,0.168427297144272,0.117851242710771,0.949681861430368,0.328231560593561
71,1.7067274445886,2.47519373893738,-0.144417311683767,-1.68434623934057,1.7067274445886,-0.0014580128887721,-0.0030889438254686,0.0034157540222806,-0.0037442312624299,-0.145904628102734,0.146042487409253,0.0094244809671624,0.139071401975167,0.139885789162226,15.3744634412931,0.254842450936692,0,8.82431905701773,3.01101345004039,0,0.0969255334745964,0.0798112370604536,0.202853067163023,0.708029744453502,1.24016763338538,0.051029305111214,0.250620273948769,0.23213538240517,0.405155879112591,0.0246007488578303,0.015615502747034,,,,,1.70051980624269,-94.7465968646039,1.6028463007772,HoldLanding,HoldLanding,0,0.483104476389406,0.173531137799226,0.120730713473857,0.959178082332802,0.296828718931035
72,2.58171508503598,3.0,-0.490509886543101,-2.49980560596422,2.58171508503598,0.006853637523192,0.0046558836795494,0.0082855054243419,-0.0219248381825366,-0.326370424305895,0.327876180220379,0.0211557255443626,0.208820996593292,0.211369682060277,15.4056089246285,0.135540711187828,0,9.08975499034628,7.76450662089569,1,0.116093263300387,0.10839772832015,0.161424355641267,1.02409872151029,1.12310199802026,0.0302588883963459,0.115788640244729,0.167305374110794,0.437080503057803,0.0030415496103746,0.0047980665142421,,,,,2.91093538813022,-99.816427293789,1.85316923869918,AttemptLanding,AttemptLanding,1,0.73073129242165,0.0956331151947002,0.0604764204033777,0.967999693005516,0.325642055950758
73,1.75377945962295,2.55113101005554,-0.0968281430702537,-1.73234606451913,1.75377945962295,0.0052542343141714,-0.0130331343244208,0.0140523865783223,-0.0029529899532568,-0.150412419322081,0.15052646176597,0.0097142487385006,0.139730689027299,0.140576248926875,15.4092692797911,0.154398976208613,0,6.77040435567038,8.22588339083125,1,0.054865912468144,0.0853996985251673,0.109583555074969,0.746369539211149,1.5516086468445,0.0635899214899695,0.251814032224358,0.138769689885025,0.459384716300128,0.0245043164970201,0.0175907558644686,,,,,1.72562512383076,-93.8374795978128,1.96094015201002,HoldLanding,HoldLanding,0,0.495789772351495,0.181980369720026,0.126475667660195,0.950149496364578,0.338324582273322
74,2.62088424887623,3.0,-0.530851100984862,-2.53501546763629,2.62088424887623,-0.01737619793694,0.0080870521375453,0.0191659246325111,-0.0237080813756112,-0.342134715082071,0.343806898243551,0.0221793032442653,0.198521704522093,0.200589507875842,15.4427590025538,0.188782830705188,1,5.33344315736568,3.59778483683319,1,0.11802969749262,0.164256418360055,0.108328073468189,1.20531723089125,0.916381405430915,0.0807483476162912,0.252212197556928,0.16157796603099,0.400137249093505,0.0243896652909374,0.0172331868380888,,,,,3.0,-100.724454534549,2.28014356442115,HoldLanding,HoldLanding,0,0.739020367942164,0.0888147968521415,0.0703953427473702,0.942955336906466,0.328187570652893
75,1.78042715145991,2.48551845550537,-0.0800215008036725,-1.76501654805854,1.78042715145991,0.0034011850976876,-0.0082905861891895,0.0089611315931144,-0.0020010792843115,-0.157574408314656,0.157631186697156,0.0101687311460462,0.119898060873719,0.120811989231679,15.4117057527909,0.289226628434246,0,15.2374911827097,7.63607585104235,1,0.0825153522204877,0.0917782477402217,0.129320734958216,1.11991584046009,0.618546365986033,0.0599375390321894,0.250830661286622,0.152511986424841,0.440850480320414,0.0245664129371338,0.0177077087740043,,,,,1.75314324486889,-92.9988255456999,1.86165397794885,HoldLanding,HoldLanding,0,0.49894297156898,0.160288417535632,0.113530623098127,0.956371884576114,0.332216894922293
76,1.67388798560586,2.39024090766907,-0.158607987781035,-1.64922410908708,1.67388798560586,0.0037289398181451,0.0061687837522121,0.0072082511851977,-0.0038530670557442,-0.143289347844415,0.143452705920325,0.0092603429428238,0.138097541706443,0.139285045895579,15.3288719974477,0.207887788897223,0,6.44847209547307,9.01328722973471,0,0.0451922837884748,0.11085693537548,0.0825605654035471,1.41920596107965,1.65833350244065,0.0507015130719291,0.175271484494783,0.137329493422683,0.429836313767786,1.05260420821037e-06,0.0231739039201422,,,,,1.70076581873366,-94.2444526353916,2.43958516711988,HoldLanding,HoldLanding,0,0.474227138674011,0.162500920181508,0.105927894085776,0.950468576250662,0.338964669589919
77,1.77634575255296,2.55227851867676,-0.090258850314621,-1.75596694270129,1.77634575255296,0.000342255613821,-0.0094572591924244,0.0094634502343431,-0.0025332242483986,-0.156013562268739,0.156120368120765,0.0100822971807177,0.147332005988465,0.148156851866215,15.2774744592301,0.226472977690732,1,9.26916999559304,9.07270728983119,0,0.111837849659312,0.152234268212586,0.165872718170459,2.16875320103159,0.41224913920823,0.0680793513309783,0.249057636754104,0.179338695438503,0.523837714893282,0.0243496377541919,0.0169005997136796,,,,,1.75267540990144,-93.0921521707442,2.01347573955548,HoldLanding,HoldLanding,0,0.503323571054033,0.17631983825415,0.122759636799732,0.945681020232627,0.320293913138443
78,1.74805978881389,2.4680392742157,-0.268654375299996,-1.71524434805513,1.74805978881389,0.0012648792514087,-0.0007258165945136,0.0014583309807844,-0.0064317083687499,-0.15337521037209,0.153659399569885,0.0099092184255338,0.123724060923867,0.124312795302682,15.429097436886,0.237040769770815,0,5.70271376359732,9.31885473571796,0,0.0490484561989436,0.132067248672306,0.122176527476783,0.693906129575354,0.484322406436373,0.0747081051734644,0.281243042355689,0.108874240901691,0.278678302587516,0.0468757318497832,0.0660127704761773,,,,,1.74654853556253,-98.8045454304196,2.23558464770648,HoldLanding,HoldLanding,0,0.491011836077573,0.162262744895218,0.142195949346553,0.953388437487461,0.351611448488137
79,2.61134177266953,3.0,-0.422071571033463,-2.54613056253322,2.61134177266953,0.005182078904217,0.0063209505482783,0.0081736379662492,-0.0175116524841424,-0.338649894574274,0.339636157620168,0.0219165281730939,0.201584794264505,0.204119080900752,15.3636291283911,0.166603214165615,0,12.7134614646717,7.77241161323054,0,0.167974652962178,0.0372704320007734,0.120402881060889,1.04612511867878,1.14772495187994,0.0443607551876144,0.160308070726686,0.159456980748169,0.392383310364618,0.0031513706784049,0.0050515676447637,,,,,3.0,-97.9055764515173,1.79898523170783,AttemptLanding,AttemptLanding,1,0.737181622225359,0.0889466014431673,0.0566055037453076,0.96058222899466,0.329130230778592
80,1.66689833668952,2.65580558776855,-0.140986972636092,-1.63728772230967,1.66689833668952,0.0025413278748537,0.00307160707929,0.0039866172900158,-0.0045860718335283,-0.146716347055194,0.146964965251523,0.0094821679630044,0.179607674095168,0.180412765508938,15.3907893219678,0.266045349198613,0,14.4861963525689,9.27594192805191,0,0.0598530872861807,0.10867187658119,0.154721414091248,0.713746187516834,1.19283958968979,0.071610632078189,0.250337936733045,0.0893044346559001,0.396967941420083,0.0245107065029008,0.0152461644657813,,,,,1.69628480395598,-95.2657092073146,2.22484491330005,HoldLanding,HoldLanding,0,0.480588776218994,0.223235011329285,0.150378713937932,0.949214367139996,0.360309140152933
81,1.75399096313502,2.43254280090332,-0.300155579434523,-1.71009020132982,1.75399096313502,-0.0016401666810841,-0.002432994134614,0.002934213216657,-0.0087817537212903,-0.15050799393212,0.15103808656126,0.0097412594370203,0.14562287927441,0.146482839783096,15.377243984773,0.315698029358767,1,4.12155934429073,7.59627027154477,0,0.037877816799166,0.17996176252157,0.196331607320453,0.720511398155614,0.62107869202429,0.0476224839166536,0.251436035653204,0.181255796796325,0.275529321302568,0.0245131516531116,0.0150084367113217,,,,,1.77104898685277,-99.7532888830882,1.54231150620239,HoldLanding,HoldLanding,0,0.497027491459292,0.153212102587587,0.108279608970173,0.965647693047402,0.319441868090522
82,2.6144897678624,3.0,-0.395461108158852,-2.55157312840374,2.6144897678624,0.0055243123907964,0.0054390529899006,0.0077525044223176,-0.016631541173824,-0.339817167641816,0.340771628506389,0.0220079859934617,0.201165858215193,0.203840403291462,15.3279427886679,0.224834775824837,0,4.30075203455921,7.21192851123415,0,0.0797447147418666,0.146625411023537,0.244695274339121,2.14837039153793,1.17263621939153,0.046278059171516,0.220720362117731,0.146419078263602,0.425072027704979,1.9394479384635797e-11,0.0256067567016693,,,,,3.0,-97.471050396456,2.22994589545762,AttemptLanding,AttemptLanding,1,0.737965352088267,0.0881610947083843,0.0622082047251664,0.950767347042653,0.334924854105066
83,1.68142581136921,2.41056156158447,-0.247355745858631,-1.6518364982553,1.68142581136921,0.003373375689866,0.0061223546560548,0.0069901995736527,-0.0055899775055283,-0.145756128818401,0.145989553854049,0.0094226759471302,0.118907178227681,0.119662076072947,15.357251747515,0.247238957659277,1,8.6636031087361,3.12541762866233,0,0.170546098301321,0.0823768350430871,0.202154698915346,1.18131462516776,1.29491839222586,0.0770013022152226,0.250875941394852,0.119721761580068,0.451463595381108,0.024788831499267,0.0188868724932359,,,,,1.71534999253807,-98.7349354691493,2.38259170243222,HoldLanding,HoldLanding,0,0.472312631579711,0.165337080386938,0.117087460310185,0.942043232327153,0.346790328186637
84,2.67202305733707,3.0,-0.517393929265192,-2.58581506055503,2.67202305733707,-0.0254488871500679,-0.0093292615856217,0.0271049991497851,-0.0208568827633391,-0.342685403793055,0.344125987944995,0.0222029287166508,0.199569343759432,0.201788108879384,15.386141358292,0.294963195387381,1,13.8709529727389,8.7257929226606,1,0.0998646795048201,0.0798746664077042,0.197419861666633,1.02069927709257,0.982028414557359,0.0623528842768234,0.472423342141093,0.241084690906539,0.490778270425563,0.0244346498477607,0.0167118896270572,,,,,3.0,-99.8806899531268,1.75228055006593,HoldLanding,HoldLanding,0,0.752897103732429,0.0787640619432862,0.0641953323162296,0.953087840284339,0.292851248485983
85,1.93914317776417,2.93814015388489,-0.238071464137417,-1.89631235012633,1.93914317776417,0.002310409077304,-0.0036137306897209,0.0042891770308906,-0.009070106909238,-0.190457143577668,0.191030475006688,0.0123264077270395,0.205423358245907,0.206421180327881,15.4063474638344,0.146942188984757,0,5.90195840014221,3.96345136430963,0,0.0452483549661969,0.0759783850119225,0.160523992423419,1.08088364873974,1.02936987592615,0.0676201147232645,0.253261791385911,0.0888554003788012,0.365956546255533,0.0241802703793875,0.017198288561239,,,,,1.91928845417784,-97.3182776792843,2.08087919169234,HoldLanding,HoldLanding,0,0.558389083469354,0.225560668749492,0.152337111198156,0.949609379230279,0.360508710942755
86,1.7101454985979,2.41821050643921,-0.218092277678211,-1.68414245740283,1.7101454985979,0.0045566063137413,0.0068449695623896,0.0082229112489718,-0.0046131632555012,-0.148655217550836,0.148817579082922,0.0096079728527692,0.116440035373924,0.11760429499922,15.342217866096,0.197920405812946,0,11.2313419182208,7.07995211855329,0,0.129558306194235,0.0736346365756414,0.198820068028888,1.30406055074304,1.39789961516543,0.0381467528146153,0.134006030569674,0.135077915610203,0.399334103854789,2.42940586356508e-07,0.0062779103346016,,,,,1.74559850451354,-96.6109051974514,2.05451647070452,AttemptLanding,AttemptLanding,1,0.479559658625951,0.160822160493272,0.0987762807548671,0.95969693657484,0.33996537083991
87,1.89191788609894,2.62750220298767,-0.275388105744961,-1.85841247079199,1.89191788609894,0.0015197904536513,0.0026862786902897,0.0030863985849067,-0.0071289595673023,-0.178691262555681,0.178980384476735,0.0115414512501336,0.127321829103594,0.128395999700604,15.428184934638,0.256054272954191,0,13.2597859498036,6.24792697272066,0,0.0954476157984239,0.0633390250604857,0.0585525847472919,0.744289198333286,0.289289771815208,0.0475507709178445,0.250553189294433,0.2481412198227,0.264763669492057,0.0244021060330862,0.0169621097235327,,,,,1.90999160407999,-98.7042901753648,1.55354045889777,HoldLanding,HoldLanding,0,0.530190636233172,0.16607231104053,0.116656806982934,0.968103636918482,0.289715013412133
88,1.85962485709541,2.64030337333679,-0.217332441011908,-1.82799990819529,1.85962485709541,0.0027312542666893,-0.0036544566689867,0.0045623243434471,-0.0063871256918524,-0.171480217004989,0.17177285578329,0.0110827463297046,0.14867388684814,0.149666698432251,15.376830171962,0.251521997191119,1,12.4480268174505,3.30821090484145,0,0.0739030592592899,0.140770441386205,0.0836814849587317,0.76013830566533,0.993610856893501,0.0541984606554065,0.251046731545735,0.233028693304593,0.38654088766702,0.0247367439423745,0.0189612402201274,,,,,1.85804652340585,-97.050859497189,1.6966093758512,HoldLanding,HoldLanding,0,0.525833301578559,0.176489092283943,0.123782560232882,0.959121311966477,0.296431691864625
89,2.63440308602757,3.0,-0.415243217271252,-2.56895338655669,2.63440308602757,0.003581175196558,0.0037899966353787,0.0052142967200404,-0.0175272687252149,-0.342806803318772,0.343820278326434,0.0221915654844311,0.193229321912684,0.196001146886188,15.4017314764166,0.197199738573676,0,13.7241718751228,7.08514932588996,0,0.075880985851388,0.131328474142114,0.102504961503699,1.71859533680866,0.987431121836112,0.0373073300928336,0.123793033090268,0.121185597696331,0.380822812360441,0.0009409791950595,0.0105664756710562,,,,,3.0,-97.63858562104,2.01741770479394,AttemptLanding,AttemptLanding,1,0.74170771898459,0.0832152600424702,0.0541897237905391,0.960084698492803,0.346139734357186
90,1.99460553081796,2.72853064537048,-0.399624846147875,-1.93937470734725,1.99460553081796,0.0046713411595556,-0.0080605830754491,0.0093163527061386,-0.0120745281085269,-0.189910807115647,0.190601550152735,0.0122980354912889,0.134573689272373,0.135628893369941,15.3996163184002,0.244748372653432,0,11.5904445516786,8.88492407121991,0,0.0781906138348014,0.132653105774556,0.140450279501253,1.17501665199388,0.819188310647148,0.0627436708303444,0.251127038982269,0.108950895891243,0.402736581524155,0.0245417301382637,0.015194715560675,,,,,1.97595603721084,-102.204413883357,1.9599596662154,HoldLanding,HoldLanding,0,0.55902058689211,0.166841148770444,0.116537475992245,0.952959411306934,0.351577379603892
91,1.96830376229297,2.9128258228302,-0.413623216038269,-1.89562201280905,1.96830376229297,0.0002694790921757,-0.0058865650681416,0.0058927300364589,-0.0164618664450885,-0.186627170070506,0.188119007692047,0.0121317567620564,0.20771524204527,0.208737162295248,15.4263205453331,0.197861027360122,0,13.2603983469792,5.95465520490303,0,0.144287270645309,0.165494556943976,0.0908522214464524,0.766011731617641,0.478567130495738,0.052829182503055,0.251644841531115,0.224091412432818,0.27844116487236,0.0247870787121957,0.0182908085160205,,,,,1.98269676727326,-102.196075792471,1.68161934450279,HoldLanding,HoldLanding,0,0.566628435737174,0.213597797460895,0.145826361000914,0.963806574831867,0.300403816696525
92,2.63724521968676,3.0,-0.336149550194407,-2.58461112490064,2.63724521968676,0.0060944665156031,0.0064714600371265,0.0088894497648579,-0.0136022858381386,-0.346915627097336,0.347573490874199,0.0224441827095786,0.190642001458271,0.193409855542931,15.3768860718022,0.263256418658946,0,9.61520644622727,5.42917217842517,0,0.0574020311509432,0.164456847672497,0.127870499127095,1.12745920594256,2.14602710309619,0.0257603786557134,0.087413954107783,0.235474074016199,0.406462247658364,0.0031044018453391,0.0049963627118032,,,,,3.0,-96.1325283262809,1.59670340030805,AttemptLanding,AttemptLanding,1,0.741947363025055,0.0832495580273703,0.0531463281378347,0.961399561101125,0.295344855992801
93,1.94755933100998,2.70771050453186,-1.08706453956168,-1.59935409190138,1.94755933100998,-0.0009973278013816,3.40387862349087e-06,0.0009973336100816,-0.0646120523272005,-0.130983048033699,0.148956078035683,0.0096074489559796,0.141539854684641,0.142253594513747,15.4083554739354,0.206313643974199,0,4.97662754668401,7.27740474538946,0,0.160507803622644,0.171841911014385,0.142709808438525,0.677879574025211,0.914180546331109,0.0596234023637202,0.287899139398778,0.223683744599746,0.366174642733427,0.0540883235392315,0.0731933932368346,,,,,1.94231362243633,-124.407068044808,1.6996414025543,HoldLanding,HoldLanding,0,0.547799873838745,0.171216858537604,0.153385149387737,0.95767925501534,0.300585002400113
94,2.66428838601479,3.0,-0.108878658701025,-2.62911405937816,2.66428838601479,-0.0116487691623043,-0.0079621078553843,0.0141098895990516,-0.0031123019098563,-0.351674042413732,0.351915469431498,0.0227046417704195,0.197691600987009,0.200067548238189,15.3782069900546,0.268332279485204,0,13.1539192552706,3.43464347359516,0,0.114062365311534,0.04802644052379,0.175080648457189,1.07890549379371,0.845836069846106,0.056045543316672,0.263432923434649,0.248469539094025,0.324829707451555,0.0246738954972853,0.017383844529878,,,,,3.0,-91.4563513127585,1.50277506677631,HoldLanding,HoldLanding,0,0.750490412584915,0.0781219262398313,0.0641607295313348,0.956854258913065,0.289569093735989
95,1.92934035154076,2.86613416671753,-1.15949832835115,-1.50876928774421,1.92934035154076,-0.0022470429099614,0.0018376245461278,0.0029027686459205,-0.0777895370311357,-0.11999164513754,0.150011534356615,0.0096767754644527,0.207225864360676,0.208036482952672,15.3626928233841,0.322313555973578,1,4.12070233327193,6.56468712391901,1,0.162780086605222,0.123627228968516,0.120686278207579,0.627882910155302,0.996296680759966,0.0507253536478939,0.250126825908141,0.242721143611618,0.437539226279293,0.0244339422652916,0.0165978633049342,,,,,1.96331253915621,-127.216824388755,1.60382705962038,HoldLanding,HoldLanding,0,0.556098057001405,0.211310782666525,0.14368158615194,0.961875912104576,0.292123936172614
96,1.81858680200417,2.64717578887939,-1.08294233562302,-1.44633937200836,1.81858680200417,0.0040681149504309,0.001911355147441,0.0044947566952582,-0.0633384116891508,-0.11039047424418,0.129962369554324,0.0083862151038084,0.128813519238052,0.12980337054835,15.377107426822,0.237251217584458,0,11.5200167677856,7.42402280023845,0,0.0493886307334243,0.132010390347651,0.262205903712831,0.597215638527992,1.54078018413986,0.0228575028590101,0.216001795018104,0.244983559580217,0.31879003912187,0.0031845092757475,0.0048381548314748,,,,,1.85410920649287,-126.007447320558,1.51070420392952,AttemptLanding,AttemptLanding,1,0.510917154644116,0.187256560774389,0.115528602950148,0.971772709963819,0.291118417964348
97,1.8580578318182,2.67533707618713,-1.08655460938495,-1.49194579083388,1.8580578318182,0.0064307721050906,0.0065436784516033,0.0091746693425752,-0.0651740240716544,-0.119588019765552,0.139206905709083,0.0089813592664974,0.129501466019362,0.130201160282345,15.3915850600716,0.196146361465112,0,7.36176804158481,8.3154275710375,1,0.0906841019933018,0.105212250254981,0.102073265514276,0.913546962680793,1.25498549206134,0.0785552015892618,0.466800007468542,0.130687144650517,0.413524647065187,0.0243999592445215,0.0174269023326939,,,,,1.90035395314852,-126.506742732756,2.40736047412299,HoldLanding,HoldLanding,0,0.521522320541323,0.185569852695815,0.128523393342094,0.943683929918109,0.34191682459977
98,1.86634187090831,2.64173674583435,-1.09297985064141,-1.49820208265095,1.86634187090831,0.0035811373055358,-0.000236995479605,0.0035889707798272,-0.0653005513465501,-0.117266459466851,0.137032434218698,0.008842419647946,0.129259228844196,0.130017070551316,15.4093786295973,0.288281629213785,0,15.619925336814,7.21962464000812,1,0.175458260986749,0.0461606581005628,0.0566863924044337,1.04558654395722,1.18247788632918,0.0699032548297721,0.254519107826417,0.159362257959452,0.441349766237737,0.0243490111153782,0.015218660738379,,,,,1.87571237254526,-126.343170425654,2.16792471435428,HoldLanding,HoldLanding,0,0.523694579685812,0.175121824834661,0.121428936069062,0.947542152061435,0.329172329795799
99,2.62496074266657,3.0,-0.167831641152444,-2.58359650986088,2.62496074266657,0.0053902542780998,0.0035347435606587,0.006445871021219,-0.0064730530340749,-0.346949606014958,0.347298883098448,0.0224087788155926,0.206539849453936,0.209386365932968,15.3767311308019,0.236710888425026,0,5.35992444069548,4.25346951760329,0,0.138664904684991,0.173322393633067,0.1777076962656,1.12011976968068,1.23289036910501,0.0281922657543325,0.0993741468006284,0.154310515070748,0.356288595890255,0.0028658723247599,0.0046935305846576,,,,,3.0,-92.1609099733914,1.73441676211628,AttemptLanding,AttemptLanding,1,0.741866804564346,0.0855655759205786,0.0543198049799948,0.967415930318089,0.331417548857446
100,1.7524509740583,2.6187641620636,-1.08218430636677,-1.34608502409134,1.7524509740583,0.0008583546414812,-0.0027247441205193,0.0028567469633933,-0.0670798967121289,-0.0986786996612093,0.125924542699954,0.0081271857168529,0.192311482995487,0.192953794597465,15.3412310967251,0.134456119280017,0,14.3522538743444,9.62421359635638,1,0.162953777309341,0.068359383334935,0.0643173990035658,1.35242902689639,1.16954052113286,0.0745047261412067,0.250832876160037,0.169804850819335,0.439731289555892,0.0245071576569785,0.0194224061040469,,,,,1.75491467611123,-129.314874842222,2.31034556275467,HoldLanding,HoldLanding,0,0.505911018668372,0.195444204244482,0.135221285745202,0.942932161909167,0.324531177413629
101,1.81718964419522,2.51230001449585,-1.1471496504254,-1.39181761533874,1.81718964419522,-0.0015714558951745,-0.0048690506155576,0.0051163588153432,-0.0706517942570704,-0.0982203082305607,0.124283016683563,0.0080192903048333,0.124851284010818,0.125551395645181,15.3919220279931,0.290675004648508,1,5.32970819651047,7.73863222129325,1,0.153344382013708,0.124912214019346,0.116772061055436,1.1418744611776,0.956258116420941,0.0593089401509241,0.250162762183184,0.171456242349648,0.389942858063044,0.024483434073294,0.0175716716256671,,,,,1.81348529686832,-129.706905071318,1.87009158094064,HoldLanding,HoldLanding,0,0.509694184247762,0.157337832433788,0.11167392448804,0.953860202529121,0.323797225622379
102,2.63479144517395,3.0,-0.209103974228836,-2.59393651852709,2.63479144517395,0.0037684610591761,0.0036078155153334,0.0052170519977481,-0.0078923484189071,-0.349539588379368,0.349887816780079,0.0225788415347177,0.197195583967894,0.200077186841289,15.3948941606707,0.181224026564943,1,10.1169154277922,7.36169775971307,1,0.141599810361599,0.162792064430059,0.172799840927465,1.13602685956571,1.43390289725542,0.0269492748473647,0.0978293623403308,0.206274203741812,0.535076806751631,0.0024259078196002,0.004042680127723,,,,,3.0,-93.3463396367176,1.7252142853862,AttemptLanding,AttemptLanding,1,0.742626489414643,0.0831283843687827,0.0524252773754155,0.966333057344152,0.30832257611475
103,1.74483510578564,2.40907692909241,-1.09026512761783,-1.34558285305278,1.74483510578564,-0.0028802327014604,-0.0082968817948991,0.0087825957400469,-0.0634856492663745,-0.0908866771177227,0.113815738721864,0.0073501693641108,0.122005152123899,0.122606546910798,15.2256213383588,0.250854992078934,1,9.20546038754464,4.67687753998566,0,0.135038555587479,0.120968371974404,0.129511806208693,1.64264847307773,1.00317669852396,0.0669852228837437,0.248773253924337,0.15663481076814,0.592607405496919,0.0244386897796852,0.0153463661671951,,,,,1.72654575195328,-129.444915076368,1.98216431536262,HoldLanding,HoldLanding,0,0.489810670924996,0.151064552796365,0.107080868367973,0.945718762209829,0.330384528547493
104,2.6321160909399,3.0,-0.21980564023017,-2.59211151552123,2.6321160909399,-0.0242479482896353,0.0061229422949927,0.0250090667279816,-0.0074356108078529,-0.355849472151804,0.35617237643211,0.0229983508351876,0.190408118576412,0.192580517669285,15.2546788512308,0.179418203878146,0,13.1773831175202,7.21333977651653,1,0.0981292027173147,0.138674474956648,0.120054733684803,1.95424338725258,1.00522794972862,0.0844115878838924,0.249671947213234,0.186502923228128,0.659290308657461,0.0244031910974698,0.0138015652812274,,,,,3.0,-93.2924416519869,2.29839729219636,HoldLanding,HoldLanding,0,0.740413727784497,0.0873588751053191,0.0682799387845335,0.934541216981773,0.31710981189861
105,1.74016611928108,2.48872995376587,-1.03790942069349,-1.37453053299718,1.74016611928108,0.0002936838709154,-0.000969088007584,0.0010126113679389,-0.0605112344245771,-0.0974982236792547,0.118608593576718,0.0076504476766979,0.146528330498892,0.147196792184609,15.4103213452543,0.257678668421989,1,14.7299377728958,5.89574525132669,0,0.030176728972686,0.0673364533828862,0.270930349541256,0.582548248184338,0.945618404497362,0.0525470094741276,0.251976885215755,0.219342305120844,0.345106167280067,0.0243140371797026,0.0146448555382461,,,,,1.76944401401711,-127.2708966815,1.66977937680199,HoldLanding,HoldLanding,0,0.493483656911876,0.168612508176534,0.117299145666362,0.961719471563294,0.302514531057403
106,1.72693707612047,2.5458083152771,-1.07850016685116,-1.3267938623677,1.72693707612047,0.0022196513463566,-0.000675296917778,0.0023201030206745,-0.0639393969531671,-0.0938576631319582,0.117598472804296,0.007588717291723,0.143076571784677,0.144054655746544,15.3919088944225,0.160445977543887,0,13.2331250476119,5.41716710365612,0,0.0420026484584526,0.062157874214455,0.0920757306537575,0.588525881524635,1.537603608949,0.0383801643044904,0.142823417963349,0.0978513232275588,0.371645075540363,0.0030520412527015,0.0051599690589045,,,,,1.7686972036879,-127.77706983327,2.13257779767864,AttemptLanding,AttemptLanding,1,0.489327484781435,0.184671381030698,0.114035643782454,0.964104614708319,0.356510523009974
107,1.5886780035161,2.52824258804321,-0.923972367271819,-1.27887270197984,1.5886780035161,-0.0028327331470133,-0.0099777669648946,0.0103720880582423,-0.0453148130710427,-0.0816293270481703,0.0953935449526551,0.0061567529018063,0.110388858703217,0.110899601118135,15.356176328264,0.16471340122373,1,8.01979114167516,3.17474703728268,1,0.155912684444232,0.0673200522552843,0.106451365272061,1.34681492004677,1.13031303658652,0.0673339181944062,0.251147160080309,0.168973577919595,0.471770621342239,0.0243864224596268,0.0156775240083736,,,,,1.56362962757819,-126.213274791377,2.08276266236004,HoldLanding,HoldLanding,0,0.445827387827922,0.213303580995944,0.144521476400849,0.946869892672107,0.324900632035736
108,1.67002086344379,2.43705439567566,-0.98338210155444,-1.32938350068981,1.67002086344379,-0.0014041195937384,0.0028409307688405,0.0031689808246288,-0.0536246188396839,-0.0909792583391909,0.108903633081972,0.0070237432251657,0.137010272244466,0.137553986551515,15.4240559033025,0.291637536119721,1,13.1738581217508,6.80684090050195,1,0.0925835906011607,0.0731570132683572,0.27302060115594,0.555569351098885,0.797678784451351,0.0494898177971773,0.275198463172064,0.2231658943609,0.326893208787782,0.0457368563409392,0.0647925214591702,,,,,1.70099448076972,-126.23559516376,1.50406184151888,HoldLanding,HoldLanding,0,0.472849694228648,0.173163524570019,0.147786523343339,0.964622427179231,0.300815158061822
109,2.56877121239602,3.0,-0.446940400631716,-2.49681754261602,2.56877121239602,0.0087465052725457,0.0059202471740028,0.0105617555872099,-0.0195800784122666,-0.332822305067009,0.334093069937565,0.0215585290195679,0.199742119364447,0.202419963474687,15.3876442376125,0.220496172458207,0,8.3789255807028,9.57158369542326,1,0.0386107650137329,0.111464003955386,0.144671270281575,1.27375027092198,1.33585658993626,0.0350691450548902,0.220175229881232,0.134874574365628,0.485615999128718,0.0026085158498799,0.0051140448430239,,,,,3.0,-98.910745007038,2.11088656955085,AttemptLanding,AttemptLanding,1,0.725489649333875,0.0989627990685516,0.0623966724890459,0.961961373565812,0.340055744726388
110,1.76453869096611,2.72822141647339,-1.07054101815712,-1.37122812214468,1.76453869096611,-0.0059818605675107,-0.0118122047081533,0.0132404998363528,-0.0641016529136748,-0.0965494951480315,0.121938971887702,0.0078738616274931,0.182473897079884,0.183090630637052,15.2137223165515,0.144909352763077,0,5.03827803545021,8.23551259313713,1,0.0397814686606967,0.0370878882407275,0.109564364370392,1.46522342879721,1.28951591196619,0.0671228624515381,0.250943013524376,0.179984939234463,0.619734849575667,0.024973156723164,0.0168282556713408,,,,,1.72926744399254,-128.300304784031,2.02660114037262,HoldLanding,HoldLanding,0,0.507161777051706,0.219256038209136,0.148772169390002,0.944794188239661,0.320006693673572
111,1.79891805879531,2.4804208278656,-1.04411263060264,-1.44762064384908,1.79891805879531,0.0051631390542385,-0.0028878184928567,0.0059158685364947,-0.0608898984152922,-0.108356393093295,0.127091546841201,0.0082011053957865,0.124516786501464,0.125163833629169,15.3767662575413,0.293868096531696,0,11.6442052081825,5.20282872125597,0,0.138479628171686,0.162658737597823,0.251907669157312,0.913132355330043,1.41959172348505,0.0692527149335325,0.251944832987205,0.109990305366185,0.430266838366449,0.0246888402424749,0.0172997437010034,,,,,1.81523472928788,-126.340586099222,2.14191995230456,HoldLanding,HoldLanding,0,0.504744249071251,0.154422698939172,0.109917253140321,0.947045096199687,0.351115419837251
112,2.60969026072767,3.0,-0.444454466144875,-2.53890189289302,2.60969026072767,0.0083957395066612,0.0040622731975544,0.0093268700749651,-0.0190508391279918,-0.335714453523676,0.336885918938607,0.0217344170077528,0.196443741428377,0.199041073162054,15.3899875957207,0.159786105538418,0,5.26434377500011,4.86326339508587,0,0.108570246498236,0.0940471276397123,0.216337084650798,1.09520026005945,1.08347395199554,0.0238686262860476,0.0921271542475331,0.160321696934185,0.325494061916288,0.0029723307290062,0.0052030924886475,,,,,2.96729568504797,-98.5728576137469,1.61490656607614,AttemptLanding,AttemptLanding,1,0.735725617493122,0.0895296175166848,0.0569308400218047,0.970947532333687,0.328745912473696
113,1.93536492325206,2.74376130104065,-1.10046960751583,-1.56687889496975,1.93536492325206,0.0044785118977165,-0.0041857199949246,0.0061300343142514,-0.0680944526328071,-0.127004206214224,0.148706934417278,0.0095917200868102,0.155516177847667,0.156298760532619,15.422303418405,0.187086780164083,1,12.0892798254443,7.08281468322108,0,0.137145579765265,0.158484903448591,0.17795913367569,0.774938872781945,1.02952315122595,0.0680966000837704,0.252277419233378,0.0733858668900391,0.353583705348489,0.0243812269743743,0.0156463457686432,,,,,1.93223126337264,-125.804006762773,2.11968986128345,HoldLanding,HoldLanding,0,0.547357064973739,0.183013024626713,0.126333495933034,0.951773784055196,0.367384059159983
114,2.68707164621701,3.0,-0.390143338421614,-2.62240745597006,2.68707164621701,-0.0319536735194016,-0.0120634323200656,0.0341549945209381,-0.0144664390139778,-0.351735448216783,0.352503955551431,0.0227399466967426,0.200322936865246,0.202517090900828,15.4217300476804,0.33331439254452,1,15.4003751905798,9.6494344866931,0,0.0894379466898688,0.102827007002671,0.178047818276465,1.2137691209751,0.751365150734693,0.072783457036677,0.252286444785995,0.0854179057561079,0.366556819983553,0.0242529195583966,0.0168613424043082,,,,,3.0,-96.7638294594719,2.03256496244925,HoldLanding,HoldLanding,0,0.757055857171369,0.0766706285966776,0.0629128497552242,0.94816793077537,0.362036486330619
115,1.79747718255571,2.76846933364868,-1.12038536431215,-1.37369936384342,1.79747718255571,0.0054054743564315,0.0056262962670255,0.0078022024263911,-0.0732332758785721,-0.105403372141929,0.135172000456411,0.0087232151340126,0.192717109370201,0.193389281127308,15.3723896189781,0.283994936975329,0,15.5160126466885,7.74846484934975,1,0.140334760536437,0.155237880513477,0.136520465820064,0.758633713432171,1.60112950612028,0.0745438983769446,0.25041945283729,0.177139563616075,0.560697819049928,0.0247260503088333,0.0178301687553839,,,,,1.81906071923281,-129.474338611017,2.27415516804795,HoldLanding,HoldLanding,0,0.518005104906983,0.219903637774091,0.1494152360865,0.944187054086473,0.321271305059522
116,1.73668541238459,2.54810953140259,-1.08828571969202,-1.33161044869092,1.73668541238459,0.0014514761859921,-0.0023035669754088,0.0027227199504717,-0.064490260920065,-0.094594536943764,0.118492335265875,0.0076486806678823,0.137532999349587,0.138465366929117,15.3408099903118,0.246787028931148,0,12.9637497188685,5.05116140045456,0,0.115717042982251,0.135949271600521,0.148501524732441,1.28344297823394,1.34262312570129,0.037012502519801,0.125452354979505,0.131010808089037,0.481582695470484,8.85319766340748e-05,0.0288517118236948,,,,,1.78140716467364,-128.268739059015,1.99065162237709,AttemptLanding,AttemptLanding,1,0.490809183355049,0.183069592103302,0.120372634379404,0.96086037220918,0.34177297418265
117,1.79871085346145,2.5055935382843,-1.08631117513139,-1.41815577652741,1.79871085346145,-0.0018950065980486,-0.0045410407623967,0.0049205793573924,-0.0637500970573922,-0.10161021414536,0.122684506514625,0.0079168543075892,0.124437160764319,0.125148464797977,15.3794716816407,0.339014953276661,1,13.1509202403276,8.28467832916263,1,0.101435883890147,0.11615725928422,0.194424112665293,0.600346871537921,1.46299787996993,0.0539722358820812,0.252112599248431,0.244604435590081,0.488527685161266,0.0239858045424964,0.0167517419824888,,,,,1.80405508233153,-127.883265151708,1.6864775776994,HoldLanding,HoldLanding,0,0.504685920549316,0.159950710300663,0.112722326293928,0.956801887582826,0.29128691751552
118,1.77354582408482,2.53397631645203,-1.05611758699636,-1.40936588132881,1.77354582408482,0.0032619385387552,0.0024300974036796,0.0040676303202217,-0.0606420889233214,-0.105646290317957,0.124807755080893,0.0080523976749714,0.124286181622007,0.124944488794572,15.3967429441535,0.283279365693378,0,14.3738909951302,4.08726977375386,0,0.0333416855257514,0.15094581089913,0.0951876446903621,0.799254592990489,1.41309067478405,0.0794186522487508,0.251221834977186,0.103084900146017,0.425145816339764,0.0246118395934428,0.0170312730023297,,,,,1.8005551772584,-126.745983901943,2.458989279919,HoldLanding,HoldLanding,0,0.4979344508482,0.171842593007995,0.120237341362326,0.942907961057396,0.354184488823992
119,2.61782317793609,3.0,-0.453672716191033,-2.54712406105132,2.61782317793609,0.0050447728179406,0.0063727285254421,0.0081278165360456,-0.0192323508679344,-0.33758499340145,0.33876839937007,0.0218689328910505,0.194923505863764,0.197632647888,15.3914414770134,0.163970062738818,0,8.57107151576987,6.27987385774682,0,0.0632701879723269,0.170512885058726,0.264984047442349,1.14524237596514,1.87764950236214,0.0465590882986863,0.175614166983242,0.120783807363456,0.368263789706712,5.98252945585741e-05,0.0158857616899243,,,,,3.0,-98.5472955700195,2.34561109194096,AttemptLanding,AttemptLanding,1,0.737612710360558,0.0874798846626541,0.0582911604319142,0.952969162520942,0.346318307838464
120,1.71645061567164,2.32374739646912,-1.01375238407165,-1.3703030657805,1.71645061567164,-0.0035824738598039,-0.0080325333951607,0.0087952095882105,-0.0547260194966828,-0.0943680876270086,0.111608675795271,0.0072030156930889,0.118163485761094,0.118785793162235,15.2749124704015,0.226653019134463,0,11.1592858908394,6.96527249618827,1,0.0574468253927192,0.145724235555349,0.150144120944966,1.11817683701321,0.984810186395586,0.0630927033444999,0.247734100508042,0.164933203918767,0.555703081561008,0.0249128006063627,0.0188959597243609,,,,,1.69953700690408,-126.726927999258,1.93412158775704,HoldLanding,HoldLanding,0,0.481477322811552,0.138254230770603,0.100896152368998,0.951930178858109,0.326696353813881
121,1.59704163902684,2.31151008605957,-0.858854620703616,-1.32670742522759,1.59704163902684,0.0040439870312398,0.0046557753571003,0.0061668529481916,-0.042388561247596,-0.0954878423584759,0.107509192178254,0.0069386302779091,0.137746784014379,0.138290207399559,15.3971463165974,0.132169919241707,0,12.4475777397392,5.32096335271466,1,0.145461218117158,0.160493922203035,0.199199873996408,1.00845970238547,1.53739431651534,0.0772760471074327,0.250276268065143,0.208945904137414,0.574409738712561,0.024336282775275,0.0173558101423921,,,,,1.6281175232469,-123.046018113821,2.37420310098712,HoldLanding,HoldLanding,0,0.45353581188707,0.161885990289532,0.114258923539762,0.941358837726349,0.307135153716705
122,2.63542366586003,3.0,-0.443597858216061,-2.56496224664806,2.63542366586003,0.0066278996903995,0.0046758690260286,0.0081112764380566,-0.0191052324403938,-0.341715153845557,0.34287356211201,0.0221296346621516,0.194823813548736,0.197559433678367,15.3703889602187,0.262639752589198,0,8.89892934212196,3.90054025379558,1,0.0609598635263828,0.139790027107529,0.0895098628229414,1.06144877096569,1.47204949288374,0.0308281986197047,0.109162586289934,0.248909883695302,0.541328645622817,0.0030837207745816,0.005037984502425,,,,,3.0,-98.4223369875654,1.84958594181333,AttemptLanding,AttemptLanding,1,0.742291530965014,0.0835167425284712,0.0533125824480816,0.964679842902759,0.28937338502431
123,1.591011866236,2.34355211257935,-0.918487661177596,-1.28512279593912,1.591011866236,0.0039582569216525,0.0021243500952177,0.0044922890807317,-0.0460048703587048,-0.0882636046923115,0.101780329723832,0.0065644959466831,0.112606799362097,0.113088374173993,15.4019515690477,0.122219230291929,0,4.74901924374018,8.8302662276956,1,0.0909950831330359,0.153964137108022,0.0585157630875429,0.5186835293446,1.05895020316488,0.0857633438651449,0.288118972212173,0.165476246707146,0.549978691116114,0.0441699155079469,0.064586790958337,,,,,1.60994475744194,-125.481401659111,2.42514703425047,HoldLanding,HoldLanding,0,0.446887505831065,0.170145141758721,0.145204264417352,0.944722634454853,0.326455001463491
124,2.65957817270887,3.0,-0.445680677244946,-2.59028640683055,2.65957817270887,-0.0238634082847344,-0.0042114195329333,0.0242321750869851,-0.0183693740983823,-0.348482786411963,0.349589962375554,0.0225889697925743,0.198780151132715,0.200910584190364,15.214749485499,0.172420860034357,0,4.83306511980526,8.1534011554056,1,0.0608576457700855,0.0850317070475942,0.122990723113708,2.55624285516506,0.800608602366436,0.0886079497471654,0.521513516691641,0.219888376623585,0.575903230534762,0.0243754294265723,0.017481907833952,,,,,3.0,-98.4190936738779,2.2010614831377,HoldLanding,HoldLanding,0,0.749402962893772,0.0810374765731176,0.0658130675276226,0.929320763674384,0.30227183261174
125,1.7051312146146,2.50469470024109,-0.94095099026256,-1.40173313546993,1.7051312146146,0.0026165187482483,-0.0032077732427614,0.0041395627229106,-0.0498249346555816,-0.10188108509914,0.116642841584078,0.0075256319450513,0.143673769347345,0.144308559406539,15.3995862708269,0.209204440416745,0,12.7451344007041,6.85386246897285,0,0.154618951731698,0.0764772800383362,0.131209602531806,0.778594995286278,1.25798109847624,0.0698473347178501,0.250945512002687,0.0945651037489792,0.389632717806842,0.0246074522166067,0.0163927074475863,,,,,1.70394137208591,-124.217456820887,2.15716253079672,HoldLanding,HoldLanding,0,0.483563369111867,0.180660704098494,0.125294052415094,0.949074663332941,0.357971065000454
126,1.63726694229056,2.32149314880371,-0.906407090283564,-1.34577075516745,1.63726694229056,0.0048653775079169,0.002674662847721,0.0055520914657022,-0.0455403812667028,-0.0964118853128285,0.109236790179498,0.0070512322718764,0.134819532819401,0.13567083671299,15.3772971185544,0.178967093728543,0,7.89962631754545,7.1634850653263,0,0.135343394976648,0.0504726164491919,0.214421323000234,0.544724077978083,1.89162490874887,0.0236506818959743,0.07870365444356,0.234828353589646,0.379430855451996,0.0031740248990358,0.004997095330178,,,,,1.67689753088332,-123.079868701553,1.51927840561671,AttemptLanding,AttemptLanding,1,0.463738685286747,0.154968779900838,0.0962090712480179,0.969031917013444,0.295631842849046
127,1.70306785360296,2.29362344741821,-0.984586988110944,-1.37510966752774,1.70306785360296,0.0018732065275608,-0.0036440602035129,0.0040973256475075,-0.0527574955088075,-0.0975563059249749,0.113428334833998,0.0073171111735079,0.12286981903032,0.123435548088188,15.382487213446,0.277037718002244,0,10.5722312360468,3.24450150827947,1,0.0857856588109883,0.0647168503287565,0.189539183480505,0.689493215315411,1.1635382837459,0.0713325983110773,0.250943815459301,0.11582542726451,0.353370285718959,0.0244293686667383,0.0170537491683349,,,,,1.70122994362469,-125.926493707361,2.22945761294695,HoldLanding,HoldLanding,0,0.478838537245093,0.133626184977142,0.0972345715054423,0.949774167637551,0.348522032326885
128,1.5869592584504,2.41912794113159,-0.81156939123925,-1.3365680857397,1.5869592584504,-0.000893021464606,-0.0053014257339019,0.0053761140378832,-0.0397313624077281,-0.0924327720203305,0.104202708567733,0.0067227135042379,0.167999882544217,0.168557364859167,15.3879294469764,0.317532561170501,1,6.04008643054753,6.13239396393145,1,0.0688401033176095,0.129864736100444,0.160900349449854,0.548967608497661,1.19429568993624,0.0545586476346192,0.250262258233431,0.196783355508888,0.471938659374085,0.0242770307831558,0.0182097671691439,,,,,1.57271803987998,-121.511109536876,1.71937592719426,HoldLanding,HoldLanding,0,0.456900608558607,0.188223574510213,0.13034566968136,0.959023607409281,0.312540730884939
129,2.62798518879358,3.0,-0.429561566313395,-2.56105153735714,2.62798518879358,0.0016723217407291,0.0061132646594701,0.0063378754169864,-0.0180183131305638,-0.340754911845864,0.341830421108199,0.0220686015022883,0.18849901421087,0.191227491285265,15.3640545165696,0.281707653179575,0,9.04974668670548,8.02766736161547,0,0.0537192262748964,0.111743304437236,0.254748917689536,1.0398355884069,2.04358533504552,0.0404507137256602,0.135359506848376,0.122654116197654,0.442396822110877,0.0029115341111165,0.0049972325825038,,,,,3.0,-98.115524096488,2.19706663688003,AttemptLanding,AttemptLanding,1,0.739041548602007,0.0848652763478925,0.0540303564537786,0.955547764452901,0.945487059467709
130,1.72290969633538,2.43069791793823,-0.918139289723145,-1.44389032555196,1.72290969633538,-0.0006373406821196,-0.0036767075567432,0.0037315387714584,-0.045829409593887,-0.105948574144206,0.117503731740285,0.0075836567233986,0.119364148018328,0.119997367366583,15.3604617402309,0.190111766803804,0,5.87960902351935,6.73169056421066,1,0.160798333823211,0.0904898016035072,0.126013699758085,1.39750624326858,0.843731370670023,0.0662313740951677,0.250896381238402,0.183565492521825,0.588188582344149,0.0245436974240852,0.0156545855667567,,,,,1.70851046235541,-122.854304670078,2.03887231092165,HoldLanding,HoldLanding,0,0.483442059162751,0.159936465302076,0.112562765717236,0.949274588842899,0.318415336656967
131,1.57243401146862,2.2170524597168,-0.856743812361158,-1.30587863678874,1.57243401146862,-0.0012422829684487,-0.0048018097843831,0.0049599036461503,-0.0392792986163673,-0.0865702468068108,0.0968744196060965,0.0062544162039453,0.108325673098053,0.108815070358951,15.3337642689186,0.167736600331872,0,15.574909390258,8.8134986890681,0,0.0786230835641348,0.130036914833569,0.161779014621417,0.95937992906207,1.57874820583619,0.0676798109618827,0.250916636633904,0.137583294037434,0.465251593662269,0.0247628195326512,0.0164160747948445,,,,,1.55679587126254,-123.368694018533,2.08983676452489,HoldLanding,HoldLanding,0,0.441078750463422,0.145948466524301,0.104544259228227,0.946217659173429,0.338851869316696
132,2.62198944434673,3.0,-0.598314676911586,-2.51913568945082,2.62198944434673,0.0051736840016396,0.0037058789461651,0.0063640038429005,-0.027954596045361,-0.329998841738373,0.332316466992776,0.0214399523948908,0.198299742240687,0.200880916204378,15.4113951555275,0.131195757692169,0,6.6837080868332,6.70506724777525,0,0.0941433014643533,0.177577976336351,0.234219788591518,1.14117108924813,1.09612471936223,0.0393210900879607,0.150912426680631,0.0920133219785452,0.388751264406459,0.0027973593665144,0.0047453161925677,,,,,3.0,-102.159208261726,2.14477428612501,AttemptLanding,AttemptLanding,1,0.739373368400004,0.0862191090598506,0.0547003057900425,0.962760702174081,0.359105190231758
133,1.69825450944077,2.59956860542297,-0.798964748976041,-1.47655044291915,1.69825450944077,0.0025555355425159,-0.0091606762499647,0.0095104548401078,-0.0373599190369725,-0.110646789668052,0.11918269727728,0.0076963672341402,0.137939608113432,0.138585011748195,15.2579018991237,0.283056410136403,0,14.1323353670042,7.2717222704004,0,0.0436744873106529,0.15997619400096,0.252911503156065,1.97517869388293,0.734242243136428,0.0699582287941879,0.248656398911513,0.170864163622647,0.502323748605195,0.0244847152150298,0.0175255997002991,,,,,1.68420884954605,-119.152741236505,2.10640062779842,HoldLanding,HoldLanding,0,0.480584871533843,0.20453925498335,0.139978593986698,0.943732578240611,0.324060371723268
134,2.66838737994432,3.0,-0.605107280352873,-2.56432680059219,2.66838737994432,-0.0203205332543095,-0.0089036716101749,0.0221855682794319,-0.0265787236461573,-0.336301670896092,0.338575007897746,0.0218393639016204,0.199967376795857,0.202106671309453,15.373336994301,0.278969923425198,0,7.23633148515097,3.89452215128838,0,0.0888953822481149,0.162595530127925,0.116598406574377,1.0457083538337,0.70517338735994,0.0614291905800288,0.250695281044863,0.252117504007629,0.336397669620251,0.0244089670434966,0.0162457965570889,,,,,3.0,-101.974077911171,1.75468119412072,HoldLanding,HoldLanding,0,0.751991302247044,0.0786801936970895,0.0639641083997593,0.955528476743464,0.287947775996609
135,1.64231033699635,2.52983164787292,-0.764909308676688,-1.42453943450843,1.64231033699635,0.0053534275777342,-0.0010585550696805,0.0054570803242752,-0.0368015613159782,-0.108989946740766,0.118489033950812,0.0076439539807458,0.175361398540965,0.175952040115945,15.395361037199,0.239463784906522,1,15.8289374044159,5.31726836036031,0,0.0306925594263448,0.0741124708927489,0.228810298341833,0.622249066319068,1.15453626398713,0.070796583638419,0.252588357316813,0.077144996891485,0.408944617557295,0.0246980959350403,0.01621752073873,,,,,1.64295583088074,-118.56675799978,2.18459917026558,HoldLanding,HoldLanding,0,0.473139831222215,0.200692759673347,0.137289867599322,0.950641252014099,0.365713334714896
136,1.55724193738854,2.45079636573792,-0.747450724276603,-1.34132085329158,1.55724193738854,0.0049527930122551,0.0038275123578995,0.0062593936984437,-0.0342249998293276,-0.0982455658918,0.106816469945409,0.0068905276125313,0.168738346190084,0.169523979158943,15.397796023291,0.204980400920896,0,9.67422047859896,7.86988785198539,0,0.139467882352395,0.107284514071217,0.193549458519871,0.671443452221349,1.12370112449951,0.0404298032542612,0.142573907668874,0.0764007912315116,0.377564411325494,0.0030333644602516,0.0047968410450619,,,,,1.59091926420837,-117.420269890065,2.17871037010201,AttemptLanding,AttemptLanding,1,0.449169312468734,0.20219730188999,0.124410848950896,0.965680390984348,0.966044092785995
137,1.58796707219659,2.34457874298096,-0.774824593427758,-1.36716514242895,1.58796707219659,0.0078684850439763,0.0121228565527903,0.0144525675188463,-0.036207157473933,-0.104093179096677,0.112630397158193,0.0072660716908119,0.138695109887344,0.139261454828379,15.4134650743645,0.150198201564539,0,4.02224505822312,7.22054088854049,1,0.172343284562021,0.116164722680453,0.118269915567875,0.724712015261861,1.23312276232619,0.0793141622948291,0.250780196383627,0.164331611737797,0.327595693034879,0.024810149848061,0.0174847367857947,,,,,1.64400627564805,-119.681547410493,2.4337938397687,HoldLanding,HoldLanding,0,0.451310176884765,0.172887263304939,0.121117177352694,0.944959931314394,0.326963728116535
138,1.52531328664243,2.39661312103271,-0.794716615902816,-1.28958158658849,1.52531328664243,-0.0027134552586431,0.0005108017614461,0.0027611153326427,-0.0367031359738099,-0.0905431883894142,0.0992605126810468,0.0063999711681457,0.109282816764751,0.109555085778623,15.4976303820082,0.319897757165724,1,5.92670396523577,7.04155082660207,0,0.0974714291477076,0.0719360251869657,0.0581720411588853,0.529386115808818,0.352424465593401,0.0670622837173492,0.27478300843154,,,0.0242119371208698,0.0452760416078228,,,,,1.60523562484629,-121.327745837078,1.54172052797663,HoldLanding,HoldLanding,0,0.428661226927038,0.196548667215466,0.145154076402006,0.959540346430308,0.4
139,2.61255320617586,3.0,-0.495617415765717,-2.53001808708028,2.61255320617586,0.0068168444562139,0.0060749194689776,0.0091309372407643,-0.0223156626676441,-0.333512986595959,0.335064274877924,0.0216091395409863,0.200397558925445,0.202969227560589,15.4313968440102,0.196188085717853,0,15.3410906421239,4.87006196036102,0,0.149939367440568,0.141687740509615,0.128629887738,1.00314107698649,0.469551558104249,0.0202552373323433,0.0833017582002591,0.247908143156149,0.267415190749169,0.0030898669211258,0.0049106958696111,,,,,3.0,-99.6944273233563,1.5,AttemptLanding,AttemptLanding,1,0.737274700492348,0.0888495337712372,0.0564687020388588,0.978301224915258,0.289818603041712
140,1.55352582801943,2.18438696861267,-0.697962911065607,-1.37597915851256,1.55352582801943,-0.0003592895807264,-0.0070633355781021,0.0070724676380809,-0.0269764701126457,-0.0949735919579395,0.0998559955615758,0.0064470817151643,0.104037643229538,0.104548615057753,15.2357902685684,0.183736157970422,0,6.64803381990037,8.8302993178435,0,0.151216697348673,0.0456664818659947,0.0764627927715036,1.63418770441801,0.68609672189975,0.0683916416419112,0.249347310709028,0.152125482761013,0.569735897743869,0.0245892524995084,0.0162158003873597,,,,,1.52174770580897,-117.115006093661,2.00962833872608,HoldLanding,HoldLanding,0,0.435183277150066,0.14324037570046,0.102769436773037,0.947573372972262,0.332388674328439
141,1.60288492076356,2.3142728805542,-0.753821311047648,-1.39993609660533,1.60288492076356,0.0022893432684492,-0.0057488157804382,0.0061878894203282,-0.0322125430394154,-0.0992923547181282,0.105878238982917,0.0068368463157096,0.117804181332328,0.11836208996346,15.3004340982463,0.296981527530406,0,13.0333377137883,7.51776699276315,0,0.105103504151989,0.0953766236399449,0.108687608490186,1.80218157592073,0.863047928453439,0.0701346474912685,0.24934342231995,0.159659205401561,0.476682676240064,0.0243423058096375,0.0171386318930729,,,,,1.59025262603988,-118.88840106146,2.12731371459778,HoldLanding,HoldLanding,0,0.451108396862974,0.161196737346621,0.113769074769333,0.943991587291426,0.329040353154862
142,2.57383368445878,3.0,-0.647648359263151,-2.46037785326771,2.57383368445878,0.0090287065150464,0.0063940917313039,0.0110635414946197,-0.0303068186914401,-0.315903196207866,0.31858017576034,0.0205634431601547,0.197703193043942,0.200171987170502,15.4108045132476,0.231630251508092,1,11.2499639365388,7.79493582747136,0,0.0835890286203128,0.15171036132376,0.208238064537101,1.50552900154763,1.64716664355621,0.0496221780962511,0.180148332575379,0.135893026333507,0.422978434716452,0.0005359129054809,0.0082078168683541,,,,,2.86513009173103,-103.173390896604,2.46193934564278,AttemptLanding,AttemptLanding,1,0.726390046623108,0.0979157369374547,0.0619722863554214,0.950417730883201,0.33960309940733
143,1.80417127264929,2.48260927200317,-0.853716634416585,-1.57490717889915,1.80417127264929,-0.0028603350577876,-0.0082203651645442,0.0087037876859021,-0.0400261957771098,-0.124402518401513,0.132433056867867,0.0085426304391129,0.12593189771489,0.126650625773193,15.4060809432008,0.149238569295328,0,7.95837811456278,7.51647978416189,0,0.0617695761298978,0.0888723353304685,0.215981835873764,0.646179825835132,0.943111504087772,0.0607123580412515,0.252827892018133,0.088492283182409,0.373368556266048,0.0249202127463792,0.015295251409518,,,,,1.79248213278172,-118.827132255119,1.89457624819974,HoldLanding,HoldLanding,0,0.506442464527781,0.154244244263707,0.109184106271187,0.957156531958551,0.360670096363374
144,2.66300691233069,3.0,-0.66824162874633,-2.54420261187125,2.66300691233069,-0.0174880253770345,-0.0058638045647181,0.0184449243848007,-0.0298664543239013,-0.331597337339982,0.334303525543751,0.0215661892235367,0.200680606757758,0.202939113954344,15.4035036870607,0.174246866602793,1,6.24896912295157,8.12951188926314,0,0.0756331446399346,0.160725896203829,0.22527101800725,1.05481493543697,0.909465884809955,0.054802808302559,0.251322739556328,0.242567665630177,0.36525621628181,0.0247377512541109,0.0162613185406252,,,,,2.99065240368585,-103.652251957395,1.59939801457506,HoldLanding,HoldLanding,0,0.750722999412385,0.0792050141961426,0.0644307713726693,0.957164960832495,0.29219214860881
145,1.66032866549387,2.43934202194214,-0.719180446129037,-1.46580119868647,1.66032866549387,0.0014135456881015,-0.0157885499074156,0.0158517008422221,-0.0331776706142608,-0.106730761685249,0.114561611391706,0.0073897341650151,0.170467114339746,0.171061138345524,15.4115212585184,0.136375081003444,0,10.7580396766802,9.99428687502946,0,0.166609953734591,0.136613104170026,0.0730307979061478,0.647779988229481,0.876734847871534,0.0581597750857238,0.250932488684131,0.104843782326579,0.377929481255842,0.0247297060696613,0.0173820244799968,,,,,1.62717802274902,-117.276491250742,1.82951205146741,HoldLanding,HoldLanding,0,0.47696653846747,0.178184150355268,0.12422220686311,0.958941781602059,0.353402763410409
146,1.54383277374765,2.458340883255,-0.689469964077611,-1.35736872907609,1.54383277374765,0.004836022049881,0.0041695374060544,0.0063853074669449,-0.0294551738492841,-0.0999006255195343,0.106386884287653,0.0068663667908693,0.158341979342137,0.159172309044182,15.3946479666887,0.129492406568966,0,5.72145767646664,6.45401888383602,1,0.101996244765521,0.0961271859998963,0.200319627346171,0.606770521868825,1.52801534163607,0.0222705741552365,0.0796973508850468,0.265494393327385,0.397533487933737,0.0032129824686912,0.0050063246794868,,,,,1.57859786558615,-115.506330805141,1.5,AttemptLanding,AttemptLanding,1,0.443523201474877,0.206934964341428,0.127409452514795,0.972091395423415,0.282002491854495
147,1.51934712480854,2.50945496559143,-0.664482581086177,-1.35446677445122,1.51934712480854,0.0003323066714918,0.0010192226407187,0.0010720272922233,-0.0253300774284887,-0.0947359373357452,0.0990545899742918,0.0063902974062385,0.110076720424598,0.110624180618198,15.4025218249124,0.274601000590802,0,10.3709539013563,8.72317596075822,0,0.0465894317436006,0.172013215313383,0.1604149521428,0.561769854410385,1.11443854611733,0.050126225827692,0.251492907056291,0.218642729256457,0.362291905834123,0.0245585075951247,0.0172298779653775,,,,,1.53737363016854,-116.223023798313,1.58336213155835,HoldLanding,HoldLanding,0,0.427284069405918,0.222970802513057,0.150962783941562,0.961766678224865,0.302825453663797
148,1.66029512360692,2.45449495315552,-0.740590740261057,-1.47357847502993,1.66029512360692,0.0036829263215899,0.0046588986564847,0.0059387947414989,-0.0313537798703662,-0.11564097906392,0.121151831752204,0.0078179022515356,0.120817847192262,0.121429351528831,15.4028042770735,0.131157135130224,0,11.7392290172707,7.02032640123049,0,0.120208176979444,0.11201061484817,0.073578915283223,0.585417176295843,1.60242248243401,0.0799661262527505,0.250465910929653,0.101569896421712,0.395836056203702,0.0248532388225378,0.0154696489353533,,,,,1.68916796666871,-116.88139676066,2.49173876452571,HoldLanding,HoldLanding,0,0.467031236600945,0.179783740684376,0.124541455217336,0.942826768126462,0.354857823812572
149,2.62374682968675,3.0,-0.70942952064153,-2.49094038008569,2.62374682968675,0.0053269992849586,0.0024492893701044,0.0058630998456837,-0.0358600603073685,-0.322651049314961,0.326394664103105,0.0210679217464231,0.19689826094414,0.199421969057557,15.3864771207416,0.157372799688048,0,10.6957328063716,9.01346251422785,1,0.0488292782490149,0.101225575147153,0.125438019209252,1.06363517472057,1.72486844512023,0.0336584960453019,0.120651641641356,0.145191532362242,0.469755079163873,0.0029060209048851,0.0039072460033222,,,,,3.0,-104.467447061392,1.9802483367802,AttemptLanding,AttemptLanding,1,0.739550215061313,0.0857318649588555,0.0541515005504097,0.9612610806786,0.935470430061226
150,1.54600080431582,2.32280850410461,-0.71597046418065,-1.35738088446465,1.54600080431582,0.0020396893415822,0.0012390290725795,0.0023865300444079,-0.0295839023502186,-0.0946314256004884,0.100355650827193,0.006472891552768,0.109501981619373,0.11002663693257,15.4065472951732,0.184819218245012,0,11.3856377586706,3.6249839584574,0,0.114479529645321,0.132508869657323,0.0697250608371219,0.55046795581504,0.844675759724753,0.0489716879473318,0.253654976616865,0.234235784050834,0.333981065044947,0.0245043598394706,0.0138644507281466,,,,,1.55740833368322,-117.762259987245,1.57806867499442,HoldLanding,HoldLanding,0,0.434272208537398,0.175219262960621,0.121064002818292,0.964552312547093,0.295895207088518
151,1.68226403466202,2.40423989295959,-0.768256992218785,-1.47869628530817,1.68226403466202,0.0039323171649942,-0.0001745574615815,0.0039361896033476,-0.0345691463142886,-0.114618392644361,0.121743009206036,0.0078612754309174,0.14096352515704,0.141527952333626,15.3575571575513,0.231870748205246,0,6.07021479733466,6.12518873017218,1,0.0744588267570318,0.0780855205377944,0.0988439817536184,1.63972592737619,1.33409481367911,0.0748868566401864,0.250305795642569,0.164953265741534,0.41716623062215,0.0245075566709016,0.0169301329033306,,,,,1.69101625912663,-117.811995946369,2.3007676513488,HoldLanding,HoldLanding,0,0.476909333043265,0.163166202877567,0.114948381100677,0.939190837285901,0.326687437448207
152,2.62535559253948,3.0,-0.546249613145856,-2.53516267919345,2.62535559253948,0.0059364393199857,0.0027798115251411,0.0065550487347677,-0.0245872720244453,-0.334172230838617,0.335981349294794,0.0216709881970003,0.198844908223829,0.201496841467993,15.4120577745448,0.364586323882465,1,8.36241105194767,8.08454033255653,0,0.0334484274011536,0.0679886897341648,0.0722961844045871,1.04705336752589,0.79516778654508,0.0220700561374478,0.0848100673288962,0.160024131987699,0.294672230665088,0.0027932287363715,0.0047134752788899,,,,,3.0,-100.730250894483,1.57746190846341,AttemptLanding,AttemptLanding,1,0.740394192970793,0.0854967506133249,0.0542534763724433,0.97449037714929,0.328878163561023
153,1.64079796367576,2.63686895370483,-0.703341116847642,-1.45513614461415,1.64079796367576,-0.0018645517352619,-0.0087446873925337,0.0089412589027835,-0.0325724305915565,-0.113213855161005,0.120392902270298,0.007763330241257,0.184377629810149,0.184673755448738,15.4862406501139,0.226151375926164,0,7.15693032025519,4.19675722244128,0,0.115071423886175,0.12636921793955,0.137744001939285,0.613638391738396,0.615110412443354,0.0745833081235311,0.322830976640577,0.094985801276614,0.165775304456497,0.0526486399229592,0.0688284081860305,,,,,1.69086530869602,-115.481230513615,2.08433559260505,HoldLanding,HoldLanding,0,0.474480874736617,0.225755203555385,0.183881029722194,0.953053891048235,0.357784088321505
154,2.56705057820159,3.0,-0.826102859246591,-2.39550085240702,2.56705057820159,-0.0171963303918298,0.0092682023475387,0.0195349265086893,-0.0451933950800555,-0.3074748595696,0.31331924713165,0.0202180601970191,0.211594400036452,0.213426084679722,15.3857838689384,0.219695898745092,1,8.674320922657,5.24248838369853,0,0.0592668380321264,0.0689211702111652,0.119811039201554,0.979618936327063,1.28312153646078,0.0800287434080963,0.252423069034694,0.084768168354895,0.414372314451725,0.0249054487070086,0.017561561215578,,,,,2.8660583108225,-107.999041467264,2.23154229562751,HoldLanding,HoldLanding,0,0.7272320377897,0.100995023097903,0.078052124433178,0.942206953152619,0.362325258508936
155,1.55816115940098,2.19878745079041,-0.694488354355479,-1.38273985327674,1.55816115940098,-0.0028398609793395,-0.0025427173933829,0.0038118528466597,-0.0271276875681642,-0.0974392405778361,0.102278077182267,0.0065985358377647,0.111197431880968,0.111768188215643,15.4093076391315,0.211634189780927,0,6.82819718726133,8.01774662103054,0,0.148558890614097,0.0975562376665886,0.256341415023927,0.562312216480705,1.21788944729509,0.0509506447449902,0.252270723768435,0.217848692987146,0.390963000458552,0.0242646871681031,0.0176730111803851,,,,,1.56021062314875,-116.350158175446,1.63051281914023,HoldLanding,HoldLanding,0,0.437863280150057,0.144839755251174,0.10411470807889,0.960537378840695,0.30317835867238
156,1.51854039653887,2.24542093276978,-0.66970457321393,-1.3517311050228,1.51854039653887,0.0033195574370424,0.0008931871377866,0.0034376219746987,-0.0251630923698294,-0.0961655234582117,0.100339437396994,0.006479891848372,0.105938472882048,0.106753796618877,15.3064812653873,0.232445528176971,1,10.8864188527907,6.11166723527609,0,0.118068003944925,0.0720881884067272,0.0528558482650955,1.77065249627603,1.38360186688321,0.0442911702707092,0.170721186690392,0.142867143927071,0.423031680657068,0.0011489895449037,0.0083269911348064,,,,,1.5486906196655,-115.323008512155,2.26522632501705,AttemptLanding,AttemptLanding,1,0.426294865067473,0.164178351347316,0.10204566960464,0.953070987725537,0.336503491587968
157,1.72262810350774,2.47670674324036,-0.760851127354281,-1.53213292845105,1.72262810350774,-0.0028415827732972,-0.0114193770829144,0.0117676151202905,-0.0320089095514087,-0.116627449126022,0.122214504459828,0.0078831313558727,0.112877658751531,0.1135410230638,15.412223900759,0.136088929877013,0,10.6384202774889,4.10687979326251,0,0.0780500108351132,0.136852019449996,0.228273990513707,0.629879040767294,0.871415333610887,0.0588830705090008,0.251833451573345,0.0833324711752444,0.399454526709097,0.0247347708532446,0.0184479118801612,,,,,1.67963675962339,-116.752551926055,1.85845271437137,HoldLanding,HoldLanding,0,0.482075698881492,0.171825090045224,0.120796617110251,0.958762580375385,0.362963346144336
158,1.49818279913494,2.20303964614868,-0.615948345816167,-1.34811999263439,1.49818279913494,0.0044646542508306,0.0071083979614555,0.0083941919895774,-0.0233582354121557,-0.0988964805448306,0.10310220777291,0.0066603689506264,0.124441614758314,0.124985778558726,15.2839190207656,0.18778095398804,1,15.9262931844007,5.27386452335377,0,0.0939643934814408,0.0471327450599409,0.147783769890301,2.0072953559977,1.31060180825283,0.0803443545295607,0.247947923501768,0.19448149966562,0.594030426456224,0.0247306500235154,0.0178412846257711,,,,,1.53324749594495,-115.000864111301,2.4290925766649,HoldLanding,HoldLanding,0,0.424512568814395,0.160131725776182,0.113558175340077,0.933758630730394,0.313563777926391
159,2.52295270093707,3.0,-0.743546486840254,-2.37684476901199,2.52295270093707,0.0084033697306289,0.006355461496267,0.0105360577855374,-0.0379525421989184,-0.296738622391306,0.301003766009985,0.0194582033126096,0.210878194465062,0.213208448702808,15.1734320358608,0.278844405474203,0,9.31326056883704,9.90608786706179,0,0.174342352241047,0.070184618499993,0.130522285306351,2.69904836157009,1.4901582597787,0.0508767679374969,0.16699967076357,0.206363691414061,0.602546212091924,9.49484710413763e-07,0.0105209295071316,,,,,2.78430276691677,-105.933145069938,2.42607620165222,AttemptLanding,AttemptLanding,1,0.715429076657114,0.109267252883174,0.0693865662711567,0.941646421149225,0.308282803815973
160,1.69887083615356,2.40117931365967,-0.730420526172634,-1.51449839517109,1.69887083615356,0.0006842991450831,-0.00897557685931,0.0090016245910026,-0.0312110752613119,-0.116881514264557,0.122909092511486,0.0079294352355058,0.141235936409842,0.141862071345393,15.396634415416,0.264992331736941,0,5.26119735313238,7.4720471394515,1,0.0980690484746382,0.143137546606909,0.279023484684793,0.717388344267396,1.18761985141022,0.0689551588307254,0.251648490768539,0.158785680120807,0.501748204435442,0.0243690681841421,0.0161034915125728,,,,,1.68229936373703,-116.284080981345,2.12172046172777,HoldLanding,HoldLanding,0,0.481404637243362,0.159669705280558,0.112488335234545,0.95055449904717,0.329428586612975
161,1.63993233389442,2.32293629646301,-0.739758561513734,-1.44526536799965,1.63993233389442,0.0007165839209797,-0.0039887562710172,0.0040526126271068,-0.0321094682526359,-0.105881886180711,0.112403161815568,0.0072508401913022,0.135020206512216,0.135637758392199,15.4042638896047,0.242405917255439,0,15.426014330193,7.48438465816909,1,0.0964173866611875,0.117474348485287,0.0773144106203814,0.64301548682364,1.06361271967968,0.0555135227036163,0.251000410004488,0.177704509836426,0.390423353736769,0.0246282605961541,0.0174936451388317,,,,,1.63445116181305,-117.268187683498,1.75754465728379,HoldLanding,HoldLanding,0,0.464442840716952,0.154418870559569,0.109958541439062,0.958834017025666,0.321020217850478
162,2.58329501797922,3.0,-0.672615353105121,-2.46210240726242,2.58329501797922,0.0061216045612741,0.0075272600819796,0.0097022516328106,-0.0325391380722621,-0.316596179792041,0.31969407632692,0.0206346865597564,0.204277957430022,0.20680741175709,15.4019897392754,0.223130655104686,0,14.0725215267412,7.39537681777458,0,0.095788864565735,0.128989779949779,0.223997832236322,1.04033444597587,1.72757519485408,0.0240501466816423,0.0888464810705862,0.231803267607247,0.364060134135945,0.0031108592821953,0.004873924959295,,,,,2.89081657121031,-103.869165643979,1.60029476469229,AttemptLanding,AttemptLanding,1,0.730240153812543,0.0955373670873582,0.0604773607266696,0.966227065195515,0.29697632550789
163,1.60185086651693,2.36844754219055,-0.656662403193358,-1.44891783362695,1.60185086651693,0.0038094145064907,0.0065058625581185,0.007539090562355,-0.0249927863215213,-0.112950961732711,0.116709371421024,0.0075282767312707,0.114444603126688,0.115058795109337,15.4158557891629,0.237441920097562,0,12.4640668682065,6.07016898918115,0,0.0610672109462014,0.0584545802705719,0.100270245429011,0.719895131405274,1.14212864268746,0.0740347850273685,0.25132855766913,0.0831493879068095,0.367594277219061,0.0243689066633964,0.0169014620130431,,,,,1.64906171874729,-114.380640755355,2.32240819733521,HoldLanding,HoldLanding,0,0.45017199009305,0.173866418629662,0.12129646254809,0.948352420689873,0.363044716485862
164,2.61386214543304,3.0,-0.838402233177601,-2.43808637034797,2.61386214543304,-0.0268566975075869,-0.0018909157026585,0.0269231826352046,-0.0449785010896939,-0.310533494521779,0.316490096921229,0.0204185251460726,0.214888376291245,0.216749542921594,15.4199409509934,0.247370638642296,0,6.17933532512533,7.8405947197727,1,0.0750936177775829,0.0852971533454922,0.27871943380584,1.2159998676791,0.937604408175961,0.0776127545157904,0.250747593167856,0.127020182230709,0.436542114098366,0.0245082803413507,0.017163420640625,,,,,2.86974882840161,-107.409446170029,2.18048363495391,HoldLanding,HoldLanding,0,0.740379814033129,0.0918169340940208,0.072223973366331,0.944272446288958,0.343546585675241
165,1.66675591834252,2.37541508674622,-0.780883752969434,-1.46031410972652,1.66675591834252,0.0053120815908389,0.007858960491468,0.0094858563574505,-0.0348668922646036,-0.115086475117068,0.121671109795924,0.0078492126143142,0.118154894043795,0.118762666187714,15.398451372641,0.262854714737371,1,5.86772987035456,4.13731675579779,0,0.0757854998683583,0.110037100729665,0.192694934449457,0.838028171028185,1.1631768932361,0.0746581046950594,0.251310024541123,0.0975461085961875,0.375865402902009,0.0244966435160385,0.0173197695087791,,,,,1.70066438927445,-118.076140138163,2.30459638925578,HoldLanding,HoldLanding,0,0.468220778128881,0.161187386556365,0.113897927055251,0.946947193576108,0.35664617395725
166,1.55753098124246,2.2560133934021,-0.741656123703281,-1.35098507226922,1.55753098124246,0.0032291674801133,0.0042396145408315,0.0053293389899172,-0.0317124354333443,-0.0971388687600725,0.104167568251359,0.0067187883467402,0.134542748056794,0.135342281794547,15.3815156123711,0.289115855129262,1,7.87002546463313,9.21863227275814,0,0.0495826667308611,0.170025707317344,0.250921940994418,0.537836493711705,0.885318045428014,0.0276088010683873,0.094444215094931,0.190508421229133,0.301507466050983,0.0031662456291786,0.0047356735156695,,,,,1.5818755043575,-117.768128957132,1.74647339923146,AttemptLanding,AttemptLanding,1,0.442410051356898,0.158135588217404,0.0980106363066847,0.975013670943994,0.31532959056483
167,1.69486462037801,2.53831434249878,-0.693011232602098,-1.51922455157209,1.69486462037801,-0.0017093331968386,-0.0013647816787183,0.002187338338799,-0.0311706041723822,-0.118807064170639,0.125189499872782,0.0080719391515916,0.176883691670172,0.177555621382638,15.4968540719706,0.273986326129435,0,13.9091959539184,5.53557207451428,0,0.16618970912083,0.142134700435897,0.27706921211206,0.601586413359332,0.307204999369668,0.0576378926642182,0.286389104745,,,0.0432550706406179,0.0594884397593927,,,,,1.69973286844467,-114.60986311528,1.5,HoldLanding,HoldLanding,0,0.487475023043996,0.190177199505954,0.154962955456353,0.964040549710734,0.4
168,1.57236185873097,2.37692975997925,-0.723546716900741,-1.38382296218135,1.57236185873097,0.0100583261294607,0.0005618414506602,0.0100740056751161,-0.0306007025077229,-0.100148960386107,0.105912782149663,0.0068303580779247,0.110345998844447,0.110779482106563,15.4436630170472,0.167289242854533,0,14.7444790418522,4.59345982539079,1,0.154685283154097,0.0370151047977799,0.259258066589713,0.573123663453702,0.606233236048381,0.0614301276753244,0.417776308509288,0.266795455427541,0.303777366939715,0.0247485304574811,0.0160895546379395,,,,,1.60122796585367,-117.236533214506,1.70188994584833,HoldLanding,HoldLanding,0,0.441452392082904,0.182874678821301,0.126574901303841,0.960018560523393,0.281424242032204
169,2.50672572910985,3.0,-0.754122656717797,-2.35506390924907,2.50672572910985,0.010615505321649,0.0026523525300899,0.0109418429516162,-0.0393962674930012,-0.291511476413401,0.296308102719841,0.0191107082667477,0.217984504780562,0.220257848228599,15.4373118879145,0.274331969207557,0,15.4809187700751,8.17367061036756,0,0.128901468109005,0.144887067072604,0.212528342985033,0.952223773209807,0.645901447821016,0.0232592172453172,0.0811950315180762,0.187578234586123,0.248371709445816,0.0031015588119024,0.0049853125611064,,,,,2.73453280736877,-106.252064921566,1.57264414876679,AttemptLanding,AttemptLanding,1,0.712511764075013,0.112992715491413,0.0709869408092272,0.975813693212099,0.316631895739501
170,1.52365377275623,2.05818200111389,-0.654120355616288,-1.36374031429261,1.52365377275623,-0.0012645911511907,-0.0083453029650399,0.008440572987539,-0.0242010809734414,-0.0926507858030344,0.0967423267900169,0.0062414619677693,0.104161944913043,0.10469420083042,15.3863629064762,0.279444804625616,0,5.22479838681594,7.17467091258763,1,0.0454371832292854,0.0572842486139715,0.0637788198135962,0.566436735416291,1.10306984958487,0.0567660819128702,0.251458198351485,0.151130563185329,0.362699122298596,0.0246783500392411,0.0163657662717323,,,,,1.52065859676889,-116.006588270425,1.80168841032667,HoldLanding,HoldLanding,0,0.427246512901078,0.121816289761523,0.0900091171650854,0.95849940730427,0.332830860806521
