scenario_id,mean_wind_speed,max_wind_speed,wind_velocity_x,wind_velocity_y,wind_velocity,wind_acceleration_x,wind_acceleration_y,wind_acceleration,wind_body_force_x,wind_body_force_y,wind_body_force,mean_wind_body_risk,mean_wind_gust_risk,mean_wind_risk_raw,min_thrust_margin_n,mean_abs_roll_deg,mean_abs_pitch_deg,mean_abs_vz,max_abs_vz,mean_tag_error,max_tag_error,stability_std_z,stability_std_vz,mean_imu_ang_vel,max_imu_ang_vel,mean_imu_lin_acc,max_imu_lin_acc,wind_speed_cmd,wind_dir_cmd,hover_height_cmd,gt_safe_to_land,label,success,onto_wind_condition,onto_gust,onto_temporal_pattern,onto_drone_state,onto_tag_observation
1,2.03720945809163,2.71778964996338,-1.25886806655367,-1.58397787912219,2.03720945809163,-0.0585766107892966,0.0191169891262684,0.0616171940680084,-0.0855178898211274,-0.132086111115584,0.16109495798004,0.0103928628466864,0.123105433479603,0.125755991735998,15.4103406992958,0.918597554411538,1.13991066520269,0.176489531601796,0.240278039969913,0.128522325916603,0.403850816974671,0.159477834852836,0.0372378760401502,,,,,2.0716688985117,-127.374480982322,2.31472368639318,AttemptLanding,AttemptLanding,1,0.568407053838301,0.164427028750278,0.18307630079532,0.89558124104499,0.342878966259287
2,2.30725831707319,3.0,-1.39155651672382,-1.80278542216151,2.30725831707319,0.0074994292871574,0.0016926385801729,0.0076880729052321,-0.10957210205101,-0.17591733765684,0.216201776771847,0.0139617394786384,0.22749153596933,0.229157280826336,15.3811985736516,1.97901076766167,1.97509125776474,0.0183410240323213,0.0723363994174271,0.138760543073216,0.43622687015107,0.0002958009521952,0.0062384402320645,,,,,2.42882567996652,-126.095851442396,2.33524515102998,AttemptLanding,AttemptLanding,1,0.661100340718117,0.157276358691159,0.0967658060253107,0.959761543498346,0.338328647523015
3,1.79756598104567,2.82718515396118,-1.11095835912646,-1.37806339928838,1.79756598104567,-0.0840067808370848,0.0169918028950275,0.0857079960810744,-0.0725018904107631,-0.106205699241707,0.135371499134421,0.0087304429415319,0.184959067324796,0.186881971167412,15.4454252445258,0.830551366434038,0.866755854265856,0.175811053679734,0.240265699196186,0.120525788584469,0.419824398140921,0.159786484074849,0.0377327718640525,,,,,1.87319628751653,-127.297520073929,2.13255888853765,AttemptLanding,AttemptLanding,1,0.516727322512327,0.247377446520855,0.233163691007455,0.898758487854634,0.346432982851347
4,2.3669356776656,3.0,-0.686101749524144,-2.2305667082519,2.3669356776656,-0.0207281381524657,0.0041804881989093,0.0211455005343672,-0.0338760812256426,-0.271294852625773,0.275228069048928,0.017764834869883,0.238285186683499,0.239762380708596,15.3824130378307,1.67578449592939,1.39546800169399,0.0626175063019567,0.24039753754192,0.139107920221441,0.43142889758875,0.0019473014480499,0.0097235249398631,,,,,2.46779887999601,-105.553838771394,1.76292687014533,HoldLanding,HoldLanding,0,0.679135323519213,0.146316147623207,0.092190983135028,0.944559977224838,0.338174257679359
5,1.79788664799847,2.79053735733032,-1.04463211392542,-1.43546212285133,1.79788664799847,-0.0674040775529556,0.0059775786299749,0.0676686124953245,-0.0636721455677455,-0.113739422982552,0.135524322559701,0.0087429388678024,0.179692841309015,0.181882378432955,15.4358553782702,0.845527236129924,1.06380038017207,0.177931604009831,0.240278057458128,0.17598824955034,0.451584734671053,0.159512829048453,0.0355796913287202,,,,,1.88084050141636,-125.058018224367,1.79786747611237,AttemptLanding,AttemptLanding,1,0.51581291515285,0.235752321890476,0.225284053396567,0.896032338152711,0.321783000199849
6,1.88257481098175,2.62080979347229,-1.03490732535115,-1.55643441596534,1.88257481098175,0.0058323159003722,0.0028667934895832,0.0064988009412238,-0.0584160020420752,-0.127024286391321,0.142511448440327,0.0092091765117771,0.133908792970951,0.135037551795205,15.2918108212117,2.3685918148373,2.44103021345274,0.0143339129122555,0.0767849030271505,0.157062643796392,0.514631709505345,0.0003107311570177,0.0071508379449372,,,,,1.9161886291726,-122.783489357006,2.47867746097978,AttemptLanding,AttemptLanding,1,0.529027459954174,0.167294317899596,0.10311499818346,0.955043156178736,0.330194380534937
7,1.9005090728098,3.0,-1.06751215428738,-1.54000155535535,1.9005090728098,-0.0683301685800929,0.0137759152576001,0.0697050054111503,-0.0671596966531764,-0.130436378695201,0.152646656373305,0.0098450529277114,0.194284873033337,0.196685138399606,15.4126331329291,0.839935552920402,0.899710187302683,0.177113197731395,0.240323979900184,0.114078306176044,0.468496878058144,0.159401157956821,0.0347734849023795,,,,,1.96867067391655,-123.586570068552,2.01932987801681,AttemptLanding,AttemptLanding,1,0.546139447095869,0.260164709609839,0.239588688458689,0.89777475603255,0.349298530588425
8,1.91586781440138,2.71763586997986,-1.10869439180037,-1.54869964673789,1.91586781440138,-0.0439203505670643,0.0031589099153541,0.0440338041257753,-0.0662954189524004,-0.12677911923885,0.14559930872314,0.0093922300255503,0.116831068530651,0.119177545240116,15.4126459617507,0.953245235241918,1.01330275234951,0.176840331287076,0.240265653498685,0.158420842456117,0.48343586523278,0.159483080337234,0.0341546132160754,,,,,1.96461919299708,-125.030810267647,1.92686696862158,AttemptLanding,AttemptLanding,1,0.534733592888391,0.188470676594883,0.196383634347001,0.896128385882529,0.32959073668617
9,2.62560795307159,3.0,-0.823278527614963,-2.45798903552083,2.62560795307159,0.0084043692921373,0.0037609522620051,0.0092075069978633,-0.0446453666473631,-0.314354125088201,0.319841008572766,0.0206530045488479,0.19650862690254,0.198955333967749,15.3500654259479,1.89027667033623,1.8261826359539,0.0315772972511933,0.0734022257032216,0.117753514248607,0.525294830659578,0.0114095044950878,0.0051732127720744,,,,,2.98365709536118,-106.900241715489,1.78295849386302,AttemptLanding,AttemptLanding,1,0.739953187612642,0.0859262535084996,0.0585078112725598,0.955010599682124,0.947665104778397
10,1.89013283836598,2.61134338378906,-1.14403553841202,-1.48934744708856,1.89013283836598,-0.0440007247379995,0.0091369413375916,0.0449393755461265,-0.0706467619701891,-0.117621532003975,0.140159295220769,0.0090393116514578,0.122383724393137,0.124572088835785,15.4550844249945,0.854816913134951,0.843373198984473,0.176593788242444,0.240226530775733,0.127109618465868,0.426908390878039,0.159489742079195,0.0356680563683098,,,,,1.92399487038037,-126.353098118705,1.86443559308422,AttemptLanding,AttemptLanding,1,0.528949841331419,0.170511258236983,0.186161287070914,0.898360183569268,0.343506836237392
11,1.88219392056368,2.50467681884766,-1.16931543865376,-1.45847492683564,1.88219392056368,-0.0341749141578022,0.0187766927144489,0.0389934474878278,-0.0740078839050606,-0.112270571626049,0.1377109184334,0.0088851282937121,0.129319704432867,0.131709105050627,15.3566718205057,1.04235417404895,1.15499358124194,0.17685340109671,0.240178802092373,0.154766974504043,0.53278236288391,0.159527977861094,0.036234623253204,,,,,1.90759543141243,-127.844704273722,2.13608222278588,AttemptLanding,AttemptLanding,1,0.528260199827106,0.147207450819997,0.172402020623346,0.894308424231502,0.331214677998203
12,2.62303817272186,3.0,-0.784042802813493,-2.46966244720783,2.62303817272186,0.0079511261390247,0.0016257605616928,0.0081156333260342,-0.040968001086021,-0.31750647926224,0.322047215719314,0.0207977103441195,0.198507779661624,0.201060416584021,15.3634423995079,2.01319669725028,1.928908205949,0.0211273896228445,0.0695009502402692,0.133104013700375,0.52526245516799,0.0001386167658358,0.0056694565858995,,,,,3.0,-106.299635778902,2.21268955746811,AttemptLanding,AttemptLanding,1,0.739688929375968,0.0863042772473538,0.0539057943765856,0.958462623806298,0.340842660577611
13,1.95467303237137,3.0,-1.03502669414745,-1.62874539355688,1.95467303237137,-0.0749379662715856,0.0002200955146257,0.0749382894851281,-0.0630754561018849,-0.144596113023026,0.162769234844863,0.0104985669536192,0.185864001963724,0.188340880528777,15.4552796713108,0.92101942842388,0.962530621128532,0.176321170542716,0.240319453585298,0.180480164708088,0.40271709285092,0.159435353736457,0.0352574316601755,,,,,2.02726066309477,-121.319262228342,2.05514597204745,AttemptLanding,AttemptLanding,1,0.558914318071453,0.24893725412205,0.233043393929496,0.89704009291073,0.319786593463072
14,2.66366572839668,3.0,-0.729737373771944,-2.52326588557473,2.66366572839668,-0.0280830179564977,-0.0072092988910648,0.0289936180571808,-0.0362005066402356,-0.32788358088717,0.33182286075929,0.021412038741602,0.212429543706181,0.214379868489328,15.4215601953148,1.53538251039911,1.25134965733027,0.0627634858553748,0.240506338068982,0.106435972626578,0.45708268076344,0.0018387228947502,0.0080411231743675,,,,,2.96211416560549,-104.652706865072,1.96742362945706,HoldLanding,HoldLanding,0,0.753186834603647,0.0809907077545635,0.0523356796188618,0.946722504325867,0.352695123277077
15,1.72409057049524,2.28526639938354,-0.921688881543306,-1.44433888006681,1.72409057049524,-0.0477088993782843,-0.0068892623954226,0.0482037448362702,-0.0460385202499146,-0.110052292843873,0.121100391607116,0.0078099579498362,0.109711591265098,0.111580217220281,15.4585208778558,0.8277808292018,0.799075678163016,0.177386370656975,0.24021390206159,0.159257359880766,0.428646386080191,0.159487486922308,0.0368498750997217,,,,,1.78867162897179,-121.8764556945,1.91059923297343,AttemptLanding,AttemptLanding,1,0.482073528909454,0.135101914719851,0.165344430934653,0.898524370685075,0.329218951164104
16,1.75356202582518,2.68095827102661,-0.997011360851369,-1.41309378901674,1.75356202582518,0.0046329955294508,0.0030473020780172,0.0055453311470641,-0.0577656718153261,-0.109235988049797,0.12855386902655,0.0082971114423559,0.188232042820367,0.189242383193958,15.4118311346822,1.60505070909332,1.5584059338297,0.0241789765112463,0.0578132203733425,0.11443926430772,0.492835995095024,0.0003782132718831,0.0075223421622167,,,,,1.79698325918466,-123.928221238646,2.07065946855831,AttemptLanding,AttemptLanding,1,0.50546501685884,0.20968079921395,0.128711971465771,0.963054780978553,0.349138104752124
17,1.85808207875206,2.70636343955994,-1.01324821329365,-1.5329501340943,1.85808207875206,-0.0506185188011862,0.0158226026529125,0.0530338495711748,-0.0579382576843125,-0.125805625890519,0.142495919865421,0.0091902065432362,0.148036178069393,0.150317011248176,15.4549615178633,0.765684592885067,0.917191620730446,0.17649265212029,0.24025005553583,0.132718046372872,0.40275368383993,0.159447597778616,0.0368832801368836,,,,,1.90606506718967,-122.683382350962,2.15416306532327,AttemptLanding,AttemptLanding,1,0.525551956583519,0.200586178603153,0.204629408042568,0.89853107511859,0.341014201612057
18,1.83385954097826,2.78985071182251,-1.0527786755738,-1.48127523449862,1.83385954097826,-0.0571015056258013,-0.0015851382964979,0.0571235031152016,-0.0622608323945497,-0.117224242738285,0.136286885081709,0.0087909555807945,0.13710620981438,0.139433664459082,15.4595433076612,0.86753571237193,0.974529532500112,0.176658908986414,0.240239087279022,0.163709573781673,0.39595133679216,0.159392950296671,0.0381557346844928,,,,,1.87952489310621,-124.36494621675,1.71629764059485,AttemptLanding,AttemptLanding,1,0.516915943819351,0.225570655677744,0.220058517262154,0.897197175725655,0.327240189430367
19,2.6181667470932,3.0,-0.780775121380682,-2.46643515899936,2.6181667470932,0.0062539522637435,0.0028154909391842,0.0068584916815442,-0.0405060039638733,-0.316849297038722,0.321354148437229,0.0207335673573815,0.196317172385996,0.198833839836137,15.4665063288049,1.35510772670905,1.23726257134879,0.0175956148537303,0.0479257362847412,0.0909203222029404,0.436354891871775,0.0001542217823924,0.0058090270032384,,,,,3.0,-106.031594526481,2.33946713908369,AttemptLanding,AttemptLanding,1,0.737944567192081,0.0871698720456463,0.0544828396975075,0.97083356880268,0.359590967909804
20,1.89084186278233,2.57696318626404,-1.0150700423316,-1.58155260155078,1.89084186278233,-0.0432793652900062,0.0025207355460969,0.0433527111908719,-0.0565272611903409,-0.132310283384887,0.146058295002815,0.009420334192865,0.128484413698796,0.130904279410547,15.4623305868932,0.982328066679433,0.797363252419671,0.175807725092014,0.240250048379271,0.139096292712662,0.409151153885475,0.159555016373409,0.0367157604331115,,,,,1.95533603544456,-121.682915799118,1.79117678513018,AttemptLanding,AttemptLanding,1,0.530405352624064,0.162325294835044,0.181659703123471,0.898112848518214,0.338179425461039
21,1.91875235239665,3.0,-1.05178546304923,-1.56984196689064,1.91875235239665,-0.0594874450986195,0.0205803499349781,0.0629468579661243,-0.0650781894951483,-0.136008470430419,0.157020485920503,0.0101333236671413,0.203660278092184,0.206132652368359,15.3244273619844,1.24706229838892,1.30927592359712,0.177113168871567,0.242289221692427,0.17583068792905,0.522290550992119,0.15672867141949,0.0408385845662311,,,,,2.01006102178809,-122.843348050567,2.12634992419283,AttemptLanding,AttemptLanding,1,0.552893824446111,0.254820978004544,0.237400168487998,0.891357900962897,0.321853027587089
22,2.63357143799464,3.0,-0.742219251150054,-2.49343046204766,2.63357143799464,0.0076283914840207,0.0025995919815721,0.0080591708695209,-0.0376513510357252,-0.323759711615883,0.327712559129563,0.0211576010776989,0.198303479061244,0.200769358346323,15.4146169418327,1.91120070179165,1.71802205527573,0.0244470002514095,0.0499505409495736,0.126105018277891,0.452179639122346,0.0003078828371688,0.006804002912326,,,,,3.0,-105.373889448931,2.08808285273074,AttemptLanding,AttemptLanding,1,0.742439588467835,0.0839239411106184,0.0529653843601,0.959261178211623,0.343953325209826
23,1.6869063985591,2.58796095848083,-0.812190197978083,-1.46406558005726,1.6869063985591,-0.0421353154162167,-0.0032714215983923,0.0422621225744578,-0.0365056335914539,-0.113932260216701,0.121316849378541,0.0078250939195686,0.120092035476868,0.122015442088314,15.4575281980829,0.845106794143057,0.901348154885335,0.176691572808242,0.240193648750184,0.152382223661223,0.405033931655889,0.159488992865587,0.0353899699453583,,,,,1.75191981509009,-118.497538474994,2.01830514951417,AttemptLanding,AttemptLanding,1,0.47424479470009,0.210485331787707,0.210044275881904,0.897932067567799,0.332274567261679
24,2.68411108748666,3.0,-0.639512731696419,-2.5662701016095,2.68411108748666,-0.0309751473258592,-0.0050510746759041,0.0313842812127384,-0.0277674832676795,-0.339323429499332,0.341696135421724,0.0220540269011414,0.202407268934041,0.204520705069979,15.3972672577734,1.53738514014148,1.44186477929632,0.0632287592762917,0.240194496692317,0.108872027553036,0.414519879175429,0.0018530697896896,0.0076699378265202,,,,,3.0,-102.185830974197,1.68288603529105,HoldLanding,HoldLanding,0,0.756667097677105,0.0768287902045032,0.0497099289964501,0.9449772281377,0.351612432198651
25,1.74539019137013,2.42733883857727,-0.942129829018882,-1.45538785953176,1.74539019137013,-0.0358865536044965,0.0107299380394041,0.0374563252327007,-0.0484355292727088,-0.112904275904945,0.124940833477067,0.0080586039886303,0.126495109474396,0.1284624727637,15.4406044781695,0.787429400336918,0.95282043541637,0.176340585844388,0.240219585126247,0.142119554677165,0.418225688693938,0.159459535787086,0.0371636567526772,,,,,1.79680657025774,-122.144595008979,2.10667188938144,AttemptLanding,AttemptLanding,1,0.491129878918107,0.160305438580936,0.180568224943796,0.898156315511173,0.336835753476816
26,1.84928445991465,2.55619335174561,-1.02411029125157,-1.51784162510498,1.84928445991465,0.0032528282918678,-0.0014271926367517,0.0035521501543113,-0.0579428335715432,-0.122312437678248,0.138931930308719,0.0089668720920529,0.146095226095229,0.147167323541787,15.4287430814246,1.68118411338281,1.5225586981602,0.0257091282130303,0.0540385475285565,0.127395447371238,0.431868413043906,0.0109399492709603,0.0116186887048695,,,,,1.89015622586425,-123.159855511628,1.91452399498126,AttemptLanding,AttemptLanding,1,0.522575987352264,0.159705728190255,0.104910614300997,0.961973170945647,0.343379801168339
27,1.72580679471061,2.68803310394287,-0.810405463204935,-1.49377715760859,1.72580679471061,-0.0800076426128827,0.0051353335598151,0.0801722802921392,-0.0402937630860704,-0.123626096546986,0.133564696028203,0.0086144002749272,0.178258763303015,0.18002669157063,15.3986807792544,0.900055547733756,0.846121173422987,0.175795442140709,0.240227994890945,0.146901717281276,0.445080007593174,0.159200527225836,0.0340381068149544,,,,,1.77620387229689,-117.832865156267,1.89467884508312,AttemptLanding,AttemptLanding,1,0.496220483570288,0.231199170964152,0.221852785843896,0.8983823189777,0.334710347874989
28,1.71067887666274,2.56605529785156,-0.962132250235643,-1.39810425863447,1.71067887666274,-0.0424888654387693,0.0051372446075009,0.0427983056724345,-0.0511735647840949,-0.104104275891096,0.118672253235277,0.0076555118843299,0.119455905012009,0.121402368268021,15.4010101934626,0.987135606424475,1.04542926970016,0.177344677892627,0.240211359196827,0.178878238836603,0.515072840201114,0.159638005791639,0.0364364568592571,,,,,1.77693740749085,-123.63065316624,2.12314263079682,AttemptLanding,AttemptLanding,1,0.480461507430335,0.200306050807431,0.204383475956836,0.895357508455564,0.320498560517065
29,2.62327035824458,3.0,-0.516844623258604,-2.53908263364041,2.62327035824458,0.0064132633179472,0.0044651781605092,0.00781458651436,-0.0230383651925168,-0.335278364938844,0.336923954709664,0.0217656934001144,0.198822121228314,0.201515426967858,15.3831179079246,2.32088416304777,2.23574533781047,0.0167914220583549,0.0706350037443774,0.149508923713172,0.498868274387323,0.0001952617369069,0.0058357715800496,,,,,3.0,-100.208461528465,2.38536326281539,AttemptLanding,AttemptLanding,1,0.739841847592126,0.0861968435892692,0.0539269879041241,0.955802200035508,0.333551589460812
30,1.85305773003681,2.59241890907288,-0.943052103045662,-1.58261673321689,1.85305773003681,-0.0435156243967331,0.0062088809253248,0.0439563393492044,-0.0485629807198204,-0.131761518509352,0.142242394124198,0.0091727853265,0.119705616603005,0.121908934580905,15.4746750109062,0.742969127554965,0.710357004999775,0.175685256048502,0.240227330310552,0.127789527465504,0.386747321570784,0.156626086027147,0.0387359792407293,,,,,1.90894849737311,-119.745808657761,2.44557136485552,AttemptLanding,AttemptLanding,1,0.518530514925998,0.174414927497135,0.188346360921116,0.900738380934248,0.343204654459776
31,1.89998242319847,2.84539818763733,-0.948538157647901,-1.63154581737841,1.89998242319847,-0.0369430760597915,0.0064132328418177,0.0374956053990719,-0.049885785462464,-0.140346357768259,0.150999989448249,0.0097408649449486,0.124245509878959,0.126764554162188,15.4291856256447,0.999636614430885,1.03162220157835,0.17657022998861,0.240256834682535,0.175965971852786,0.437190175645889,0.159538671668953,0.0378603281652602,,,,,1.95935225919259,-119.13516242978,2.06276804586348,AttemptLanding,AttemptLanding,1,0.532014890352029,0.219592741321907,0.216429113150551,0.89575499430848,0.321792901398762
32,2.62303217848142,3.0,-0.64419669451134,-2.51003287398707,2.62303217848142,0.0065341311697796,0.0033239174889688,0.0073309820363549,-0.030728199051489,-0.32780278681431,0.330569027148575,0.0213427872478665,0.197280230764276,0.199921987007224,15.3496463479629,1.9441036002253,1.7441233800784,0.0192027792744098,0.07549479603893,0.119306358583468,0.495136203524503,0.0001074502111527,0.0067398813479192,,,,,3.0,-103.01941117063,2.28771510941942,AttemptLanding,AttemptLanding,1,0.73945964499649,0.0861617732150123,0.0541956855231065,0.96141968408898,0.346974951740681
33,1.87796785880108,2.51289439201355,-0.814704745077746,-1.67821737337015,1.87796785880108,-0.0513285734023938,-0.0095966435944622,0.0522179855586565,-0.0373590891730847,-0.148493331683729,0.154537558117802,0.0099684272541107,0.118200321279993,0.120565317180885,15.3988656487407,1.02980069868216,0.954032807164051,0.17725903055711,0.240249454161399,0.168687992336663,0.448506056652806,0.159549956747869,0.0353764172020301,,,,,1.93692079365451,-115.089103932968,1.80027071653037,AttemptLanding,AttemptLanding,1,0.524904492449799,0.152431767325225,0.175234303992906,0.895783221461225,0.325027558961483
34,2.67366733246412,3.0,-0.604585330450446,-2.56827649793794,2.67366733246412,-0.0327190455201389,-0.0073748605790257,0.0335398942799316,-0.0248176906176193,-0.339730567937488,0.341590432730646,0.0220465594700057,0.19837585565161,0.20049432199525,15.4212962465066,1.65417268333901,1.348505359502,0.0631438558423594,0.240276668205957,0.118902945140139,0.440267666771694,0.0018908627250561,0.0080770492391637,,,,,3.0,-101.157933097739,1.78065628830729,HoldLanding,HoldLanding,0,0.753076819722815,0.0795738308135605,0.051521790735736,0.944835601742212,0.347154246604383
35,1.79880186976219,2.71253657341003,-0.804636168184323,-1.58043736959382,1.79880186976219,-0.0629175364081633,0.0037161924218268,0.0630271883696917,-0.0399948265438853,-0.13631036157231,0.145245480855067,0.0093678465853197,0.176179134805703,0.178481368272043,15.4303383976484,0.944864808408427,0.813051826237752,0.177603560240228,0.240274775789708,0.154686762785516,0.504609633503159,0.159504625167276,0.0345986302432879,,,,,1.86137587595629,-115.841095627455,2.06950625904664,AttemptLanding,AttemptLanding,1,0.515376772257659,0.217145292855209,0.213759440320383,0.897386017750523,0.331250327650882
36,1.97238100250562,2.72024178504944,-0.899732106465786,-1.73396238165237,1.97238100250562,0.0067825018549108,0.0034573245350648,0.0076128460087295,-0.0465402959691025,-0.158841059217281,0.16802912624838,0.0108482355164041,0.160645079316931,0.161912384799437,15.3920377980835,1.77565208355152,1.85876632822794,0.025798841543499,0.0729846147513417,0.112997269046854,0.515942277296564,0.0002969005300842,0.0061938938831646,,,,,2.00134863438598,-116.022448666907,2.03480758243718,AttemptLanding,AttemptLanding,1,0.558350744294719,0.169664364507293,0.104182899543948,0.958544434564269,0.349778991534732
37,1.83200022314681,2.52913928031921,-0.828648798013163,-1.61763327703048,1.83200022314681,-0.0404156305165077,0.0084921028619221,0.0412981718852583,-0.0385856242123512,-0.137220690717961,0.14423635610291,0.0093031451608909,0.118288608260539,0.120653286675734,15.4324520540408,0.967766289363015,0.838552862430063,0.177083895211453,0.240241552866755,0.146619911038587,0.443152450321222,0.159501882730122,0.0353339013828057,,,,,1.84847057739295,-116.145839673518,2.42676040453227,AttemptLanding,AttemptLanding,1,0.512664050174297,0.164427619376087,0.182394988695414,0.897265544773042,0.334835595093961
38,1.9435119710001,2.96711802482605,-0.77073907886893,-1.75368692098376,1.9435119710001,-0.0768073411360208,-0.0014383616517426,0.0768208079665027,-0.038168913534161,-0.167170314559897,0.174265916799026,0.011242738567922,0.197031223590343,0.199707867760555,15.3614583970951,1.16889195151834,1.04899552132638,0.176262131847949,0.240288590512879,0.176453509811563,0.510611781135693,0.159473098975495,0.0381132471844624,,,,,1.9993932608471,-112.620106358339,1.92775833130681,AttemptLanding,AttemptLanding,1,0.558211432485471,0.244395176904697,0.231373401633348,0.894442675360817,0.321576217861528
39,2.63214774489403,3.0,-0.633400664858966,-2.51876686376915,2.63214774489403,0.0060554642418124,0.0032277834911503,0.0068620138042423,-0.0309151801654121,-0.329856007897981,0.332659923751523,0.021501448280912,0.199990343249622,0.202595279847934,15.3455789879898,2.55452791261538,2.34697583578964,0.0238314066859819,0.0760211866288189,0.153647686755482,0.49444598805871,0.0002790470481339,0.0049316487772784,,,,,2.9987372183553,-102.731971335258,2.12607600327189,AttemptLanding,AttemptLanding,1,0.742425121274661,0.0840247932629549,0.0523322236961559,0.94957248149097,0.331712139219786
40,1.90746250201245,2.75570607185364,-0.296218916152212,-1.86894147703707,1.90746250201245,-0.0552293225067364,-0.0222840349495166,0.0595554890684677,-0.0080165526795371,-0.185662960989499,0.186006693089938,0.0119973416098866,0.149417202581725,0.15255582973019,15.4627609657452,1.03042565265587,0.655729836583944,0.176521568113761,0.240275691459988,0.155258008566437,0.408966041119519,0.159464841877164,0.0386843039034988,,,,,1.96262077332345,-97.9255988407311,2.20560855670021,AttemptLanding,AttemptLanding,1,0.539167833149357,0.201773309543487,0.206004268383882,0.898490851384807,0.330996440637139
41,1.8677332782421,2.73209667205811,-0.27062388031114,-1.82388974840005,1.8677332782421,-0.0574504770901863,-0.0287702364102695,0.0642517223192719,-0.0087667603474976,-0.180085304073179,0.18060571092295,0.0116499728672525,0.185725651847076,0.188587434053292,15.4316064575753,1.03437548200253,0.821084984689629,0.177279087550993,0.240283934439159,0.15077091215455,0.470977036833299,0.159530088884324,0.0373866788291015,,,,,1.94919332297993,-97.076725643542,2.23680671677943,AttemptLanding,AttemptLanding,1,0.535779694341885,0.206261246033801,0.208254165284502,0.896781838271922,0.332990705709089
42,2.61957099954287,3.0,-0.637852884207809,-2.50864346657706,2.61957099954287,0.0046412177690538,0.0057599843482332,0.0073971833877275,-0.030112293127873,-0.327777617616224,0.33040902990135,0.0213289246673992,0.196670205578579,0.199193427654818,15.4343941852091,1.84070870063054,1.67426704265779,0.0173732235086527,0.0518788458599677,0.120346177621598,0.455461090991311,0.0002439511047532,0.0051445958553408,,,,,2.97766096785849,-102.83550377438,2.33883152522156,AttemptLanding,AttemptLanding,1,0.738390952075729,0.0869526753906038,0.0541507900768009,0.963695721691265,0.346512809945957
43,1.80811766945586,2.58200740814209,-0.236983998783936,-1.77568789490771,1.80811766945586,-0.0501215751851738,-0.0157056952556303,0.0525246719409627,-0.0061483738525755,-0.167570414677917,0.167825973788156,0.0108245934684688,0.148920928531869,0.1515928511632,15.4413145822858,0.959191481060378,0.687603259938929,0.177378394634056,0.240244623726741,0.138936509641907,0.370668625700346,0.159535299480205,0.0344767342959794,,,,,1.87761184680711,-96.9149867627548,1.91695232170653,AttemptLanding,AttemptLanding,1,0.512483282087536,0.183754714393578,0.193694400472352,0.898371701146549,0.338250440159153
44,2.51309066939752,3.0,-0.607669817731243,-2.40478534930534,2.51309066939752,-0.0224124568763057,0.0019270032647242,0.0224951453610445,-0.0280955432106656,-0.308703768278962,0.311226455753771,0.0200843083521143,0.220302331252538,0.222141263171181,15.4024119098326,1.5251383083767,1.37159214423769,0.0630639736822021,0.240291981994395,0.113774331593057,0.458064871250146,0.0019316469194826,0.0094233862717288,,,,,2.70268226585959,-102.84402520654,2.0915528244027,HoldLanding,HoldLanding,0,0.714585764473575,0.113678709368416,0.072492421280034,0.945707988174072,0.349433630403086
45,1.69585433054943,2.38791513442993,-0.231743464853135,-1.66877246350996,1.69585433054943,-0.0368098401645476,-0.017238436413792,0.0406463777344537,-0.0048217927557028,-0.147463230512648,0.147639661507786,0.0095232602860552,0.122379689682513,0.124825665354475,15.3891257879089,0.978217327435518,0.777202676162932,0.177150768677001,0.240206233760323,0.139600004435481,0.459552846127237,0.159453012808354,0.0356812832835108,,,,,1.74484723470437,-96.8322370152764,1.73221626979305,AttemptLanding,AttemptLanding,1,0.477192954550744,0.163165516791095,0.181742327870353,0.89763202991894,0.337955553584231
46,1.67992681980133,2.59081506729126,-0.245965253582769,-1.63787652235443,1.67992681980133,0.0058873876809058,0.0089827829094644,0.0107401919211832,-0.0074747719613881,-0.145820143995128,0.146252988547606,0.0094386715519544,0.184097284413265,0.185206868488372,15.4156934334343,1.58013166570327,1.48325726821723,0.0332271781657783,0.06207887901802,0.10322984763754,0.442992271701017,0.025840219191628,0.0044743333909365,,,,,1.71876069037497,-96.5690723186371,1.5,AttemptLanding,AttemptLanding,1,0.485021858978029,0.206918890870784,0.137262906709393,0.959316926436307,0.354120067716649
47,1.75990890402372,2.80799388885498,-0.143993367636906,-1.73006180808825,1.75990890402372,-0.0652603216730904,-0.0296842507984551,0.0716942419608494,-0.004280711061655,-0.164410249062409,0.164620796099419,0.0106222726385657,0.184821907137524,0.187714391928224,15.3705253417863,1.22461172650242,0.943541133717997,0.176061121281117,0.240289495444187,0.145493197663968,0.445437040645952,0.156657957366424,0.0423796552640016,,,,,1.8330973949862,-93.5355183886098,1.89789859191945,AttemptLanding,AttemptLanding,1,0.506851919458637,0.248963065946522,0.234414382129799,0.894933952600567,0.335336356593792
48,1.72243284611475,2.4228823184967,-0.203308775186024,-1.69938011426405,1.72243284611475,-0.0404646768802006,-0.0144831363265636,0.0429784982621877,-0.0041827168583522,-0.152147718058084,0.152275009699358,0.0098196323954755,0.115066871677289,0.117593467038082,15.4592801493981,0.732694309718256,0.505765928649502,0.176286809473024,0.240184202836772,0.109688424716971,0.41922438676101,0.159433385864903,0.0364904964138806,,,,,1.76093856199151,-95.8152911333806,1.76243483219474,AttemptLanding,AttemptLanding,1,0.482834119038216,0.165480522634008,0.183416867610257,0.902125836247741,0.351249589014679
49,2.62988748788834,3.0,-0.668569637324895,-2.51173087937954,2.62988748788834,0.0043964704892966,0.0024227717439619,0.0050198382131893,-0.0320152944170444,-0.328219980886812,0.331118788946671,0.0213694966508909,0.19473198421851,0.197338640962581,15.4281147697852,1.51790167244357,1.38735470730481,0.0280610472697867,0.0549609434534303,0.104409025906941,0.390968727101563,0.0057776858303801,0.0051128412139363,,,,,3.0,-103.690253195533,1.90880470253447,AttemptLanding,AttemptLanding,1,0.740771058296072,0.0841956188975424,0.0549444466944692,0.963142461952798,0.353595988485804
50,1.66494891757057,2.44951367378235,-0.152828298135588,-1.64748222092839,1.66494891757057,-0.0355178281180618,-0.0088574393588863,0.0366056053934439,-0.0027499089181376,-0.14451423229633,0.14458287693353,0.0093254351035891,0.120487002666048,0.1228440573316,15.4161410911951,0.997242862443935,0.618019934138377,0.177002818269051,0.240209549579171,0.136538720136602,0.408940802950841,0.159445021258356,0.0365926021886708,,,,,1.72627812567413,-94.411640590645,2.44158252512501,AttemptLanding,AttemptLanding,1,0.468555189485138,0.183238097803115,0.194113713370352,0.898807240320899,0.339316124383732
51,1.57751396034851,2.42166686058044,-0.145232152327708,-1.54827116720628,1.57751396034851,-0.0548929265085698,-0.0275562482946219,0.0614213334335075,-0.0040356338708416,-0.131160418195056,0.131375305170447,0.008473611528397,0.16884795938118,0.170962267509716,15.4508212019495,0.913379021116755,0.743489131529929,0.176736187000381,0.240198857514733,0.141893579143455,0.416153639974593,0.159545881918664,0.0387837709560987,,,,,1.64198518080473,-93.7945426045898,2.20685385533973,AttemptLanding,AttemptLanding,1,0.454862842928211,0.201194980348329,0.205729458500318,0.898613656729014,0.336936187047353
52,2.59714798903386,3.0,-0.61761258424557,-2.48894693693227,2.59714798903386,0.0021529214263389,0.0009512275398765,0.0023537001721989,-0.0292499667659708,-0.322943176638784,0.32551167315882,0.0210226890321384,0.199859304057669,0.202457319088969,15.4026834804011,1.97160872778581,2.03501821737549,0.0168239220171674,0.0548451259086676,0.145303140596795,0.443445859022838,0.0003331597530662,0.0063863383248794,,,,,3.0,-102.899260755177,2.38532291605952,AttemptLanding,AttemptLanding,1,0.733064260893489,0.091073214165619,0.0571143043461449,0.960107398708006,0.335420826401424
53,1.70102213053095,2.26538300514221,-0.14739891805595,-1.68159277174579,1.70102213053095,-0.0431103785117094,-0.0039219454812275,0.043288409439255,-0.0030504261013647,-0.150380280102153,0.150478584244761,0.0097060975478894,0.115566371519655,0.11813783135944,15.4049621542883,0.856661128237002,0.632828405010088,0.175791184456475,0.240222259466271,0.123722956517973,0.323666145528807,0.159986103167819,0.0359189248992825,,,,,1.76767167051157,-93.7767495596924,1.80237981105566,AttemptLanding,AttemptLanding,1,0.477233467746809,0.13491740518473,0.165116805088194,0.900401275724821,0.345012019325345
54,2.67753030681143,3.0,-0.595306725356665,-2.56899766691958,2.67753030681143,-0.0340692803626578,-0.0063191593574389,0.0346503627602092,-0.0250339006227613,-0.340847651247634,0.342804424565216,0.0221239373671668,0.205032506383613,0.207165739649367,15.4136484487568,1.66231238241598,1.18729496561402,0.063152807006914,0.24046989205554,0.115255514172482,0.39992608049339,0.0018744011036324,0.0076870894821393,,,,,3.0,-101.106544404973,1.78971025331645,HoldLanding,HoldLanding,0,0.755441229746254,0.0789082474734675,0.050973320907483,0.946033824476307,0.348775327034452
55,1.62114815768741,2.51372480392456,-0.146828021766821,-1.60303557531826,1.62114815768741,-0.0375235002956106,-0.0132625292853385,0.039798338627123,-0.0028068830579938,-0.135787923899694,0.135870412964918,0.0087674220259287,0.118532185927253,0.120903863469441,15.3419553258427,1.20634426844988,0.940685909329893,0.17762821271729,0.240221264723164,0.155544073556468,0.501351655961491,0.159022288102687,0.0354847572691119,,,,,1.6954412846166,-94.4207914550518,1.91907168670344,AttemptLanding,AttemptLanding,1,0.456486948077199,0.208126107484997,0.20845578507894,0.894316370815942,0.33086930064157
56,1.70369698842367,2.39164566993713,-0.0857991815951634,-1.69022824638749,1.70369698842367,0.0019277236854639,0.0039083838826218,0.0043579333612891,-0.0015136918350026,-0.149739870576361,0.149782712182097,0.0096672529898851,0.118459903486817,0.119652193408408,15.4349696759292,1.55538431439677,1.69824719284234,0.0218940018189599,0.056039079951221,0.114702117730878,0.466375770981278,0.0001356266558919,0.0052632675905366,,,,,1.73280982852964,-92.1431804697514,2.1631979011205,AttemptLanding,AttemptLanding,1,0.478249635594659,0.1555874077901,0.0953266386752576,0.963488751533641,0.349021281008498
57,1.61622884808754,2.15175223350525,-0.19145084403976,-1.59385590548353,1.61622884808754,-0.0344333471695125,-0.0192453500056162,0.0394466588462805,-0.0036643472723229,-0.13361506922292,0.13372772060005,0.0086245093287238,0.11245412763427,0.114644175359957,15.4621461117988,0.858230795105644,0.617600822840534,0.177376355455528,0.240177532176302,0.100546236099397,0.362980324579887,0.159466729628967,0.0367038933782162,,,,,1.65239533729994,-95.8334835366937,1.70001970366577,AttemptLanding,AttemptLanding,1,0.453923194562003,0.127724649174135,0.160855761881151,0.899716002416945,0.355312783955824
58,1.65596087043788,2.28878879547119,-0.0980868621954943,-1.64028398952386,1.65596087043788,-0.0418926108391677,-0.0127226554786177,0.0437819232714776,-0.0019865528023177,-0.141409141388795,0.141468679870567,0.0091256116285303,0.113930432103218,0.116331383992421,15.4290214564569,0.978859995464549,0.766657771679954,0.177050825755671,0.240180867108292,0.13670061144723,0.423446128169257,0.159579992078103,0.0364268985576155,,,,,1.68060545220575,-92.4282145747537,2.23854218443601,AttemptLanding,AttemptLanding,1,0.464855842248586,0.150412969065599,0.174418367293003,0.897759804666029,0.33924417269012
59,2.50961621960004,3.0,-0.500477060579216,-2.42795773812659,2.50961621960004,0.0045964152576806,0.0067103855614138,0.0081336527835819,-0.021782467308304,-0.310033387634697,0.311570302682792,0.02012286372484,0.214054360978871,0.216539220934331,15.3004363469811,2.0629892411613,1.98783294183085,0.0199129700666466,0.0765670158567049,0.126064187274782,0.43762696529729,0.00018277177824,0.0053190721831543,,,,,2.78982386220964,-100.41262924442,2.25404758646958,AttemptLanding,AttemptLanding,1,0.712538836080211,0.111827520266981,0.06911195212823,0.958215626386024,0.343971472322319
60,1.68949902706406,2.29641270637512,-0.0871085787317814,-1.67172075940097,1.68949902706406,-0.0467908961558093,-0.012811783179989,0.0485131915185424,-0.0017790746235282,-0.147616731576137,0.147680874542451,0.0095264764158388,0.123072352280356,0.125610915052576,15.394032212182,1.06656436850402,0.791796960927026,0.177178186685387,0.240216029161948,0.15270624785092,0.447821477774986,0.159624547433299,0.0370354763045264,,,,,1.72864210057146,-91.9462754292346,2.01161775287022,AttemptLanding,AttemptLanding,1,0.475655256894264,0.145449662956722,0.17168148700664,0.896809496211777,0.332130556510702
61,1.59964240120875,2.52947187423706,-0.194610002311124,-1.5634776813745,1.59964240120875,-0.0622573025372899,-0.0227053135049628,0.0662684161616851,-0.005749268221783,-0.134037633496892,0.134382965764696,0.0086664585234851,0.167679105597513,0.169794575164857,15.4652390427086,0.866732740013928,0.592937746684569,0.176053547421306,0.240180506342851,0.132077598931211,0.369973036876479,0.156716042603715,0.0394111618056291,,,,,1.6541677253945,-95.777639022521,2.24552654204507,AttemptLanding,AttemptLanding,1,0.460530222021971,0.221360841061012,0.216799410692831,0.900504386751002,0.341298844919462
62,2.6197643939654,3.0,-0.547848575777226,-2.52678501066708,2.6197643939654,0.0064398913493984,0.0010980861008557,0.0065328396334939,-0.0253075756291403,-0.332354753414426,0.33426555685074,0.0215783724743518,0.199707974241448,0.202253580100682,15.4059837167294,1.83343984014468,1.6681855966149,0.0270810690172621,0.058285634931759,0.116405052995287,0.472677045192211,0.0022739418023567,0.0069613510692791,,,,,2.96888331606625,-100.576107342626,1.98007416499341,AttemptLanding,AttemptLanding,1,0.739054554410911,0.0867506986239248,0.0555924603642311,0.958946694202544,0.948264420890983
63,1.56893122800299,2.13686633110046,-0.0899665597558426,-1.5550239870488,1.56893122800299,-0.0365150746410678,-0.0222719891667367,0.0427713943832322,-0.0016423985474721,-0.127352266866243,0.127400983715287,0.0082172036364167,0.104161420881752,0.106249541391179,15.4530060280215,0.883316435516483,0.666520530349934,0.176526785698472,0.240182102146413,0.143909796106653,0.387173733518412,0.156682790742377,0.0420071726494586,,,,,1.60300708299886,-92.1234906695166,1.5680527101927,AttemptLanding,AttemptLanding,1,0.439631569079032,0.135626820500525,0.16628822369471,0.899559316704671,0.336040090619265
64,2.67501819924582,3.0,-0.624342764515348,-2.56617702875239,2.67501819924582,-0.0258786558061351,-0.0085518244295162,0.0272550642524593,-0.0277595233032633,-0.337159178079083,0.339516699048596,0.0219132073520041,0.199260742677275,0.201380797578468,15.4097787228586,1.60000016878271,1.36310416730909,0.0632736473986853,0.240335685261694,0.124905791833747,0.402873681088195,0.0018497330705167,0.0092133113776097,,,,,3.0,-102.201792877698,1.74563411100497,HoldLanding,HoldLanding,0,0.753614345981245,0.0781176669493084,0.0510429988028849,0.945081642231365,0.344486314740557
65,1.49646059428753,2.06110167503357,-0.12558189405386,-1.48175639413805,1.49646059428753,-0.0291265127957693,-0.0141843390917282,0.0323967471069433,-0.0021311092715779,-0.115677010981889,0.115732570493341,0.0074664747795585,0.102111163149811,0.104052029821937,15.3742745791258,1.05891042237361,0.83805287563591,0.176631954497824,0.240163849607495,0.171731628428481,0.428585158522805,0.159421546221742,0.0352057882518197,,,,,1.55228808798252,-94.2268777224065,1.90647779941948,AttemptLanding,AttemptLanding,1,0.419866564441063,0.132983646804131,0.163446313444318,0.89677931112387,0.323674831809564
66,1.55576469997565,2.45882320404053,-0.132924695725435,-1.52886764899526,1.55576469997565,0.0014916662370825,0.0010525733038599,0.0018256447416873,-0.0034192651797685,-0.127044758352715,0.127214293825684,0.0082160171688675,0.170110625245279,0.171131952982936,15.3684632060649,2.07893085133475,1.92836850276868,0.0262014842086487,0.0694155029912858,0.119968341313316,0.4530228651917,0.0006095564620934,0.0050377829823664,,,,,1.60696450398557,-93.5145725727472,1.99953061184473,AttemptLanding,AttemptLanding,1,0.449096977256761,0.203522864950574,0.124216554037994,0.955413334399149,0.346680737194082
67,1.65859955388146,2.51569795608521,-0.127065681373681,-1.63150767499685,1.65859955388146,-0.0622572229858233,-0.0359113614920721,0.071872023055712,-0.0034119813843086,-0.144841880588305,0.145011996252057,0.0093519915093145,0.164016935853812,0.166295514356816,15.4617825728828,0.867199000674285,0.633784967174433,0.17595308253171,0.240232455333189,0.126497609768065,0.368886830085232,0.156626842992316,0.0416171520454563,,,,,1.70472744872138,-93.0615211949791,2.1175715130821,AttemptLanding,AttemptLanding,1,0.475552317239754,0.206023678056055,0.208359646887152,0.900230013272476,0.343778840103082
68,1.60917197036094,2.22052216529846,-0.138165252412255,-1.59256125708214,1.60917197036094,-0.0439591130382657,-0.0203098356605043,0.0484240956928234,-0.0026270776832163,-0.133984124239591,0.13405629407668,0.0086467544574206,0.117402042516337,0.119650466299491,15.4211475465931,0.946037293493157,0.680226278087318,0.176825704622682,0.240159803236417,0.139000779807073,0.383786676573965,0.159577120392308,0.0369126989510643,,,,,1.6346567991892,-94.1375227104005,1.5693100554309,AttemptLanding,AttemptLanding,1,0.453042618689483,0.146431544737959,0.172204891080148,0.898809362483384,0.338221875641301
69,2.62351920088132,3.0,-0.390567168412105,-2.56063646673548,2.62351920088132,0.0073884398287463,0.0038327932209166,0.0083234215907468,-0.0165240040046568,-0.341037747337318,0.341966070089522,0.0220737077671867,0.198529340148082,0.201274887072015,15.3546250889095,1.78660711756401,1.57090167714209,0.0273371871860605,0.0707449353027275,0.109383617367302,0.447227619537995,0.001052357776446,0.0050199203707212,,,,,2.97762147861884,-97.4745863886534,1.9812880932337,AttemptLanding,AttemptLanding,1,0.739860097649422,0.0862341404266728,0.0540336244126662,0.95995098016285,0.351385058947866
70,1.71419590346667,2.34634470939636,-0.0762343883607424,-1.70046532141616,1.71419590346667,-0.0375113148009625,-0.0170210934370582,0.0411924308567724,-0.001492248384059,-0.153131530487187,0.153177960722513,0.0098789718029707,0.116091175595839,0.118721022340657,15.4615245739298,0.851719466804511,0.622338309267923,0.176937195806427,0.240240469691056,0.145192567263231,0.365656575393187,0.15944491014449,0.0356125231426338,,,,,1.74106956136438,-91.9626622500687,2.05313830685681,AttemptLanding,AttemptLanding,1,0.480863112059244,0.149785426991255,0.173685669118919,0.899949519570503,0.335469970105231
71,1.63697933745222,2.24430799484253,-0.188054672346309,-1.61214952092925,1.63697933745222,-0.0462993701931419,-0.0160520284668571,0.049003053967915,-0.0042377938049102,-0.138412620059168,0.138565997554569,0.0089370363445853,0.127921017170932,0.130239139692437,15.4053281718766,0.935441509752552,0.652997480930036,0.176732028763056,0.240190924123901,0.123955770179637,0.445923491067138,0.159497826649608,0.0339567549851879,,,,,1.67774962146967,-95.9395937551425,2.33267197977358,AttemptLanding,AttemptLanding,1,0.46257565125908,0.145632841140271,0.170615538543248,0.899153393548823,0.344908546586828
72,2.62050622820854,3.0,-0.609610940070381,-2.51392629962338,2.62050622820854,0.0080246403922529,0.0027485168322984,0.0084822873213777,-0.0289233238376332,-0.328805065929464,0.331272915018879,0.0213811318270311,0.200893534968398,0.203530763998214,15.4401484564704,1.62604891725428,1.5902016498606,0.0335499739034075,0.049814158778246,0.112612221923191,0.386566564410603,0.0253022717651692,0.0048803789368235,,,,,3.0,-102.28205700878,1.55417317361921,AttemptLanding,AttemptLanding,1,0.739507813655254,0.0869411846619973,0.0651848481648054,0.957954472878108,0.349950123589693
73,1.68015390188516,2.37429404258728,-0.171031180124804,-1.65545311360848,1.68015390188516,-0.0458779934700035,-0.0281878920347159,0.0538455898119287,-0.0040528247065196,-0.145365251201688,0.145519019085397,0.0093851515130791,0.130404588721659,0.132883648981346,15.4527277568678,0.900625853751188,0.624520563485175,0.176239767929279,0.240192542801473,0.150601324110365,0.363285918562105,0.159432689484884,0.0383463905373427,,,,,1.730743683828,-94.7490683234343,2.34623991741701,AttemptLanding,AttemptLanding,1,0.474617770298977,0.166053223123498,0.184435048992071,0.899896822757075,0.333066078173171
74,2.66034542719523,3.0,-0.599085390411401,-2.55473774089396,2.66034542719523,-0.0290327440343341,-0.005144445401514,0.0294850054205917,-0.0250874764345123,-0.336521812973595,0.338495764120567,0.0218451677687506,0.204056715351119,0.206052030516156,15.4166183819926,1.61657009117517,1.20958647984167,0.0635052779718857,0.240388490125615,0.117549260204235,0.423237614218226,0.001852068238327,0.0108588428542847,,,,,3.0,-101.440236798872,1.54139650147356,HoldLanding,HoldLanding,0,0.750635853355293,0.0818278632081815,0.0538685294929961,0.946041845098925,0.347755884353673
75,1.69602873536194,2.28138875961304,-0.17902648391149,-1.67570380610911,1.69602873536194,-0.0394731444475824,-0.0169000967224939,0.0429388216164505,-0.0034418125553317,-0.147717075908645,0.147817324923576,0.009534335168986,0.116895953036229,0.119308526371931,15.4286808826262,1.02919649146694,0.658043431478993,0.176367102061867,0.240210013316639,0.156435083909341,0.427359788192015,0.159492625297158,0.0338914642271924,,,,,1.72844746755899,-95.0560971705178,1.67047816239969,AttemptLanding,AttemptLanding,1,0.476136034704238,0.139578122752846,0.166956653704777,0.898559563860206,0.330473296040293
76,1.74573177218437,2.65498781204224,-0.232831130401876,-1.70596474408523,1.74573177218437,0.0009694493125469,0.0039906167555718,0.004106684071054,-0.0071027369048609,-0.157093851197098,0.157501751501735,0.0101636843398965,0.181317388843321,0.182540081950593,15.4453000765808,1.42351500771583,1.44837265278955,0.0311985117280697,0.0507003591879311,0.101090132390283,0.398395210996168,0.0151723453424042,0.0043490896245647,,,,,1.80133462105751,-96.2777836497926,1.76663776513954,AttemptLanding,AttemptLanding,1,0.502036488972618,0.205335501047713,0.131526052361457,0.961835912517709,0.955071052270985
77,1.71146402528157,2.30387163162231,-0.145315670495708,-1.69532674070454,1.71146402528157,-0.0388164303113375,-0.0221792874383456,0.044706107562476,-0.0026203056275112,-0.151050656534514,0.151113079802871,0.009746700611353,0.113020262815088,0.115535615093622,15.4449388268214,0.916706130593959,0.690263020356808,0.175689204579901,0.240204223213363,0.129968032344469,0.351458230892187,0.156720071721938,0.0398175623382769,,,,,1.75923009576763,-93.8331549635916,2.41393662649583,AttemptLanding,AttemptLanding,1,0.479497529760477,0.141487831146454,0.169025177475178,0.899529211524008,0.342236430069125
78,1.79025621942226,2.45567941665649,-0.225287483590187,-1.75919033755631,1.79025621942226,-0.0617725472074146,-0.0250624775953807,0.0666631485283378,-0.0056215030768338,-0.163843819181611,0.164073674042225,0.0105819662745582,0.134210067816526,0.136990247833072,15.4467284509892,1.00385013559789,0.588044349449417,0.175306415241468,0.240245408839505,0.112126009835651,0.392992812023548,0.156897628163961,0.0409224062569306,,,,,1.84421771642335,-95.6415120879709,1.94405787433581,AttemptLanding,AttemptLanding,1,0.504799708079216,0.161941796607899,0.181778232151242,0.899839049996751,0.350166217850822
79,2.6261859207249,3.0,-0.415487603611148,-2.55955166760082,2.6261859207249,0.0041818581773271,0.0022220566310277,0.0047355541900365,-0.0177976947949381,-0.34161260108759,0.342676207983747,0.0221177563702544,0.195558358753404,0.198162175467287,15.4032064987135,1.77729468550633,1.41607107930713,0.0278562432795538,0.0457042496511992,0.111423327762153,0.400336146582692,0.0154888865761191,0.0059996697406502,,,,,3.0,-97.5958361626102,1.89014921125303,AttemptLanding,AttemptLanding,1,0.739948680620098,0.0849763527717374,0.0600514593399379,0.960981147350974,0.350478520994599
80,1.7822745324803,2.53255200386047,-0.222148157126499,-1.75288835957193,1.7822745324803,-0.040186761824177,-0.0203084851985426,0.0450267742234835,-0.0053695126408205,-0.163172353492637,0.163380848854,0.0105399962959926,0.131271815454282,0.133887305527385,15.4115031467969,1.14747099631826,0.834389448281336,0.176966702480707,0.240216000312942,0.178689770075104,0.400679944427111,0.159538156108971,0.0374270607805064,,,,,1.84269174465958,-96.4089816842801,1.8721676031803,AttemptLanding,AttemptLanding,1,0.502050669766892,0.177067339668177,0.190756091244269,0.895944888123507,0.320582324411065
81,1.86494869034307,2.71414828300476,-0.211366614527242,-1.84133950917612,1.86494869034307,-0.0457489104269831,-0.0115258450446935,0.0471784687039586,-0.0045510882748742,-0.178497480353293,0.17862754065918,0.0115219537723588,0.123749652006597,0.12671375863314,15.4127748957833,1.07799235223272,0.677403554800165,0.176114357015082,0.24025020646419,0.127693927266535,0.466275506762145,0.1595042676407,0.0376177424835807,,,,,1.90149022471625,-95.3637271300002,2.4334135527468,AttemptLanding,AttemptLanding,1,0.522662402484779,0.199719294277941,0.204401541269792,0.898150425080058,0.343247143437095
82,2.58763919393222,3.0,-0.418045954238843,-2.52141106443134,2.58763919393222,0.0105229093445481,0.0052664822960981,0.0117672195887004,-0.0176126445935665,-0.33192282842424,0.332948071445867,0.0215047754324487,0.196535679400563,0.199146882589641,15.4136061619508,2.13904635936278,2.09731992821566,0.0171862862977926,0.0536922173240122,0.138242789968757,0.432439489161639,0.0009243093292726,0.0081019773424678,,,,,2.91783086718893,-97.7855854258006,2.37344400968161,AttemptLanding,AttemptLanding,1,0.729866494899852,0.0949385049565133,0.0603200806993306,0.958121121734416,0.338558760013886
83,1.71330310454985,2.44516706466675,-0.30094950354082,-1.67499855941677,1.71330310454985,-0.0409781115038257,-0.0080792076529718,0.0417669632451273,-0.0070709298524069,-0.148535569272436,0.148861252000196,0.0096030226075459,0.122386601686788,0.124865686463512,15.4304392208502,1.06784473489035,0.7880889659537,0.177032177484474,0.240224164194742,0.16555047863313,0.384688932346148,0.159569916361105,0.0372672784445087,,,,,1.75027764965131,-99.5200046041142,2.48913687272376,AttemptLanding,AttemptLanding,1,0.481853965172662,0.172326667621242,0.187867701016088,0.896901575036845,0.326422009496387
84,2.59316773250185,3.0,-0.40934834661212,-2.52892084031588,2.59316773250185,-0.0112599954652194,0.0134072447834859,0.0175083326036796,-0.0182795446957715,-0.340215517703087,0.341360786137466,0.0220352088113823,0.203792177490439,0.205769363923037,15.4242171474377,1.73060988354196,1.40508213041243,0.062063119135685,0.240449642084587,0.133819469144422,0.43721232257905,0.0019418080354148,0.0101996623454487,,,,,2.95681470906161,-98.270421652992,2.47090617067313,HoldLanding,HoldLanding,0,0.732665268118435,0.0947471211644245,0.0614202666177901,0.944330860322516,0.340524680380257
85,2.0046391187071,2.84195113182068,-0.429277210347584,-1.93782048458767,2.0046391187071,-0.0614765331913032,-0.0284945837630224,0.0677591723462536,-0.0144694078230554,-0.199931163640827,0.200909096555377,0.0129584926600266,0.161297558247847,0.164501278681692,15.4440012668869,1.02337411604412,0.706811495037113,0.17709399876326,0.240270032263761,0.152972161717063,0.410295646824916,0.159626611598429,0.0349618689007316,,,,,2.10680641889481,-101.731697741666,2.15895574840528,AttemptLanding,AttemptLanding,1,0.567470687391565,0.200817717880702,0.204149198311827,0.897858685102732,0.332012372570194
86,1.97115455945333,2.90441942214966,-0.546826261001544,-1.87985522707515,1.97115455945333,0.002720998891366,0.000204928443395,0.0027287049370951,-0.0185460568200039,-0.18527290835399,0.186725220794225,0.0120513126259923,0.139451646470993,0.140924873949154,15.4366284683011,1.61994466482147,1.63280754212387,0.0241910391707008,0.0507077918092097,0.109695110050718,0.429549846528506,0.0001497583314184,0.0051885958193914,,,,,2.01104491577433,-105.279667622794,2.06932913445793,AttemptLanding,AttemptLanding,1,0.553826190644052,0.210484856678475,0.128244235381636,0.962347141645793,0.351246617755236
87,2.00698177019755,2.85463380813599,-1.14801729394735,-1.62076192147063,2.00698177019755,-0.0680265413728836,0.0042482037580559,0.0681590607793755,-0.0739813735268409,-0.140873813525533,0.163967560698677,0.0105750915064214,0.169196127437286,0.171957269406697,15.462005733703,0.877255660167246,0.801086599021512,0.176826806323582,0.240276212339265,0.128012238772525,0.359931814935691,0.159559167113336,0.0372423170892629,,,,,2.06469467336038,-124.238920485483,2.14543744292488,AttemptLanding,AttemptLanding,1,0.569586592600686,0.2032175363457,0.206388367950857,0.898399621944583,0.343105671656656
88,1.90710011469264,2.65737557411194,-1.06257898301017,-1.56759655875908,1.90710011469264,-0.0506749747850251,0.0020181346973991,0.0507151450468179,-0.0618145563922991,-0.13051689780253,0.147209156294543,0.0094959725869844,0.129857607220551,0.132382745260462,15.4413396887319,0.978114749344436,1.02632660215779,0.177241363814876,0.240237483452741,0.164060604238435,0.492200713266712,0.159482619511247,0.0352111834144583,,,,,2.00959748573364,-123.70580417537,2.21278697354449,AttemptLanding,AttemptLanding,1,0.535036579636795,0.17810975496126,0.190551083900143,0.895630136045045,0.327084175894029
89,2.63463878830274,3.0,-0.242100567826336,-2.5917691024242,2.63463878830274,0.0053284074870297,0.0051358652018023,0.0074006106314897,-0.0093570428536681,-0.349017220319511,0.349433012896951,0.0225502077621006,0.191478837428067,0.194393587584402,15.4262248805602,1.5491803303967,1.37722352965357,0.0260861275478623,0.0492343479012494,0.0985459097613274,0.448344240883574,0.0013994667591508,0.0054576052940524,,,,,3.0,-94.0907171926139,1.98545940115524,AttemptLanding,AttemptLanding,1,0.741449061064278,0.0835630512476568,0.0527443997181751,0.96396376303996,0.356201817883854
90,1.93603514651863,2.56443381309509,-1.06179050287509,-1.60553180938522,1.93603514651863,-0.0490048157893581,-0.0005454340486016,0.0490078510939859,-0.0615635265454266,-0.137037773241118,0.152407874383826,0.0098337797075406,0.128348684114053,0.130763579972389,15.3784050940638,1.13537563588479,1.17724620358891,0.176329084406601,0.240231813872972,0.169309470691456,0.442917233174727,0.15960440170751,0.034114718205862,,,,,1.99637079272466,-122.311062912018,2.03240069808021,AttemptLanding,AttemptLanding,1,0.542428755066112,0.150374472680268,0.173565325330802,0.893664857629406,0.324751346359353
91,1.91026351808691,2.74407076835632,-1.15518717467414,-1.50776758740725,1.91026351808691,-0.0435010858924172,0.0052395411095444,0.0438154911516243,-0.0726001673583446,-0.120114657070634,0.142957704919589,0.0092203061928648,0.125625314850334,0.128047110923822,15.4648367948384,0.814229322240933,0.936502507571637,0.175628337617084,0.240242084833012,0.171963293194018,0.462164654012849,0.159548545548936,0.0376354788457293,,,,,1.94546366280019,-126.251978914843,2.01648219127583,AttemptLanding,AttemptLanding,1,0.53501302700794,0.195639471355083,0.20197977617264,0.898430081100073,0.323571869691548
92,2.62924132307371,3.0,-0.477992287301056,-2.55101460976575,2.62924132307371,0.0082548343206208,0.0054084629657103,0.0098688277577612,-0.0211431822448238,-0.338162788207295,0.339552552989158,0.021921831548454,0.195168241325814,0.197861678808164,15.4219772695746,1.741093171419,1.77862992936255,0.0152660211810729,0.0504096712044175,0.12055846082203,0.418076065629993,2.27172150576221e-07,0.0083876742419234,,,,,3.0,-99.2513675644137,2.46443224514258,AttemptLanding,AttemptLanding,1,0.740703355247954,0.0852299873973393,0.0541881567645033,0.964712022189037,0.346418461856876
93,1.68625881744398,2.46355772018433,-1.01412060331826,-1.32664655448961,1.68625881744398,-0.0509768599132665,0.0126648430970929,0.0525265504034938,-0.0570648157560489,-0.0947321405767979,0.11417013259317,0.0073634347600439,0.131359489506912,0.133101730590781,15.4609102328821,0.871256804627761,0.804826922122917,0.175124361009557,0.240212748243286,0.149672621980217,0.384061796097856,0.15663698461518,0.0400514966203474,,,,,1.74681180591764,-126.657123786368,1.94422257630674,AttemptLanding,AttemptLanding,1,0.476289364103216,0.184522120690553,0.194893890610295,0.899268590213609,0.333478834675459
94,2.6274350788356,3.0,-0.266956969969486,-2.5805559653305,2.6274350788356,-0.0227923994337232,0.0088655874054355,0.0244559218184432,-0.0099722497391431,-0.355541821523057,0.35601014938377,0.022989179386242,0.199284839850457,0.201440488036686,15.4015820126696,1.99186375716779,1.62512276435224,0.0632423452091592,0.240302677638033,0.142270482150047,0.498660943244538,0.0019453153875089,0.010428778880127,,,,,3.0,-94.2734617915732,2.15741435277705,HoldLanding,HoldLanding,0,0.740937451963497,0.0883106929287045,0.0576432836030304,0.939959647583477,0.336768674599979
95,1.81728405206382,2.59712529182434,-1.1497117872916,-1.39219551702889,1.81728405206382,-0.0396283472302502,0.007657077230382,0.0403613272318109,-0.0711009618128029,-0.102689216231414,0.127888221418494,0.0082490782300002,0.119458042229298,0.121570803697951,15.4402807848172,0.891210965481798,0.976438319989569,0.176475064136316,0.240258060888972,0.154081480909822,0.411951187038909,0.159529964402681,0.0375647882597366,,,,,1.86493072097439,-128.583435678336,2.19895013283786,AttemptLanding,AttemptLanding,1,0.508923241289942,0.182863855605283,0.194280442767902,0.897088080688853,0.331519341817857
96,1.71377307673295,2.72545385360718,-1.05785467202944,-1.31769503079021,1.71377307673295,0.0056453261240176,0.0032870135633899,0.0065325466100461,-0.0642863566602066,-0.0951083675454149,0.120515888633142,0.0077803957994293,0.181967478976135,0.182934524330116,15.3265736463511,1.82554194044828,1.74438051273091,0.0242541769915253,0.0748098666585511,0.121470437834978,0.504878402126928,0.0002284589199204,0.0043302388297943,,,,,1.76269102467469,-127.19753908103,2.10118252417342,AttemptLanding,AttemptLanding,1,0.493593058661477,0.228825808341876,0.138971654604611,0.959823520800687,0.94601313874001
97,1.75988557792845,2.41848349571228,-1.07333772217488,-1.38026380847448,1.75988557792845,-0.0405763190290537,0.0118443722640228,0.0422696915091215,-0.0618193474258908,-0.100877181423267,0.120923160119961,0.0077993135208149,0.119095342974826,0.12100149625938,15.4409285093012,0.87576625975459,0.934285321017757,0.177497306654219,0.240202275472663,0.155561096703751,0.417590694487066,0.159471236191587,0.0366963400197807,,,,,1.81622668042125,-127.513201967813,1.74784617517511,AttemptLanding,AttemptLanding,1,0.493503120032797,0.1559339749447,0.177780613584415,0.897029512823965,0.330861734798333
98,1.85958398848164,2.58038759231567,-1.18506036989302,-1.40967574161541,1.85958398848164,-0.0521349162064728,0.0172927209712157,0.0549280227793088,-0.0771842175592748,-0.105941044151011,0.135720895640364,0.0087561276422057,0.14062966711864,0.142865584272729,15.4032735550619,1.04105707011707,1.09054817406107,0.177005712642422,0.240231960301129,0.196633119444535,0.434422579523407,0.15949869898324,0.0355710551836899,,,,,1.91962505408224,-128.853168090004,1.85899777956954,AttemptLanding,AttemptLanding,1,0.524462180449649,0.172250948372198,0.187173808840242,0.894748816760246,0.312607502469096
99,2.63155474821726,3.0,-0.1631690710371,-2.59420083147143,2.63155474821726,0.0070923263468453,0.0013262303681842,0.0072152602170434,-0.0060413043917406,-0.349928492419294,0.350214993332972,0.0226018168463285,0.202649241359198,0.205511515276608,15.3928568114269,1.61151541976855,1.41724013187976,0.0327955537166706,0.0724366701457711,0.105009873643059,0.52481394876836,0.0193747157933658,0.0052016386871408,,,,,3.0,-92.2002194325483,1.68652803695697,AttemptLanding,AttemptLanding,1,0.742850235913259,0.0842229793575734,0.0610362773887376,0.959804858092999,0.353328945047529
100,1.62562178430103,2.47090339660645,-1.02371403533965,-1.23601969266303,1.62562178430103,-0.051876547039963,0.0173332696627576,0.0546956887696952,-0.0593585252348914,-0.0846532671747325,0.108222133602717,0.0069835876993555,0.170149796417368,0.171945709009907,15.3315285570792,1.1265783921558,1.20999203344368,0.176808806067953,0.240211787592893,0.158327686716447,0.437284067896669,0.159531500825043,0.0366490899906654,,,,,1.68546986904653,-128.540481584722,2.23840319365926,AttemptLanding,AttemptLanding,1,0.467888284282256,0.200215905709829,0.204359374496259,0.893236829336314,0.329632139237135
