scenario_id,mean_wind_speed,max_wind_speed,wind_velocity_x,wind_velocity_y,wind_velocity,wind_acceleration_x,wind_acceleration_y,wind_acceleration,wind_body_force_x,wind_body_force_y,wind_body_force,mean_wind_body_risk,mean_wind_gust_risk,mean_wind_risk_raw,min_thrust_margin_n,mean_abs_roll_deg,mean_abs_pitch_deg,mean_abs_vz,max_abs_vz,mean_tag_error,max_tag_error,stability_std_z,stability_std_vz,mean_imu_ang_vel,max_imu_ang_vel,mean_imu_lin_acc,max_imu_lin_acc,wind_speed_cmd,wind_dir_cmd,hover_height_cmd,gt_safe_to_land,label,success,onto_wind_condition,onto_gust,onto_temporal_pattern,onto_drone_state,onto_tag_observation
1,2.03785276493511,2.68600249290466,-1.256538078368,-1.58588678968976,2.03785276493511,-0.0605483372651158,0.0134803122564605,0.0620307985125283,-0.0852983736219963,-0.132467760236089,0.161447742604529,0.0104136527097844,0.126629207565864,0.12926823648296,15.4458088731699,0.89520603956981,1.01779806168237,0.176057192666166,0.240307291524394,0.131277616378615,0.398473755492693,0.156412362762739,0.0421415230489066,,,,,2.0716688985117,-127.374480982322,2.31472368639318,AttemptLanding,AttemptLanding,1,0.569281051279287,0.15720600185378,0.179164396984199,0.896940657157078,0.341654392720616
2,2.34671334048449,3.0,-1.41267477246747,-1.83371049520961,2.34671334048449,-0.0044149912020873,-0.0197300016649514,0.0202179403751592,-0.112946953697511,-0.181522954645752,0.223420511782867,0.0144218819093421,0.233504795463284,0.235256930213539,15.4006515900024,1.70678883519039,1.70699283061202,0.0184586699739233,0.08826513174158,0.236256885870456,0.672825260438231,0.0009918646810364,0.0073328825094075,,,,,2.42882567996652,-126.095851442396,2.36330248122722,AttemptLanding,AttemptLanding,1,0.672841610171905,0.150696120793102,0.0935250039536824,0.963948094781734,0.894996939613131
3,1.69078737464031,2.60781741142273,-1.04828303780741,-1.3041187465299,1.69078737464031,-0.0599768613755367,-0.0058495947054126,0.0602614442133438,-0.0642558029384221,-0.0967095304719675,0.120375763188991,0.0077660819979883,0.155945650767613,0.157153655984356,15.3716912469689,0.820449116009299,1.11391602558209,0.177492444058522,0.241655149192387,0.256225363052006,0.48081043873683,0.127636510337843,0.0050243489419374,,,,,1.87319628751653,-127.297520073929,2.47615256510041,AttemptLanding,AttemptLanding,1,0.482307364434287,0.217379689715157,0.188982187735911,0.896055194715378,0.286122060865775
4,2.291534696634,3.0,-0.661379748117249,-2.16251446327393,2.291534696634,-0.0169397492713543,0.0132273062369778,0.0214922482691584,-0.0309827099123861,-0.265024541097394,0.268435967141339,0.0173162180067087,0.218719786010774,0.219696542351995,15.4464838676933,1.10508624900045,0.920189003353925,0.0639030963106838,0.240313623522857,0.20010373705395,0.65971028191328,0.0019130244223994,0.0079857154820459,,,,,2.46779887999601,-105.553838771394,2.09812028932176,HoldLanding,HoldLanding,0,0.655015227572799,0.163344938773363,0.101761092879565,0.952135574861874,0.3110650057538
5,1.82208180096414,2.59694290161133,-1.05187114950687,-1.47255987383296,1.82208180096414,-0.0447669476124588,0.0100484441282151,0.0458808329036701,-0.0599451133141296,-0.115110807228543,0.132492917339346,0.0085444406469094,0.128591339992309,0.130854880944853,15.4638242394494,0.618989344475023,0.82949688181097,0.180259285978351,0.240225994662633,0.143008457198896,0.435556989349541,0.159476117396898,0.0361656396648292,,,,,1.88084050141636,-125.058018224367,2.36376857446804,AttemptLanding,AttemptLanding,1,0.512059456446076,0.182755233677956,0.193682556301697,0.898489393804292,0.336440685689379
6,1.8779115997828,2.81200218200684,-1.04141523713169,-1.53208447604932,1.8779115997828,0.0080770592991975,0.0061681505347363,0.010162921230725,-0.063460123199616,-0.128479006549962,0.14865632030799,0.0095981809856622,0.20452255111657,0.205637822223079,15.3993800400316,1.82080658948718,2.05752804478958,0.0277418385483811,0.0587994241728456,0.132576837520998,0.480981868636606,0.0118148105679021,0.0074081624735611,,,,,1.9161886291726,-122.783489357006,1.88869451983208,AttemptLanding,AttemptLanding,1,0.541903991053362,0.212033583226042,0.135165054117806,0.955656451456492,0.341076961101779
7,1.91335173635869,2.72684836387634,-1.06779768782063,-1.57212107816881,1.91335173635869,-0.0520311678414605,0.0022941559937525,0.0520817201969165,-0.0622352541724999,-0.130805496383947,0.147492508897318,0.009516608031793,0.127619433371832,0.129994346827793,15.3903384485335,1.11959806525724,1.15909273333786,0.176599146975444,0.240228301369513,0.163405565292955,0.459811836186804,0.156803319532151,0.0397944948337319,,,,,1.96867067391655,-123.586570068552,2.08971322237119,AttemptLanding,AttemptLanding,1,0.53622599906121,0.192585056560906,0.19971212356714,0.893796427380459,0.327375304314242
8,1.92411011699084,2.71623873710632,-1.11349521608126,-1.55210375518972,1.92411011699084,-0.0484876948355869,0.0106677468290528,0.0496473299672577,-0.0672384878435048,-0.127893247895886,0.14762136032878,0.0095214392189522,0.132216926944514,0.134605195543045,15.4598212008421,0.815745597047929,0.98828457516961,0.175782618682164,0.240252357691701,0.173765816498802,0.461807423315468,0.155862363466335,0.0416367232456886,,,,,1.96461919299708,-125.030810267647,1.94162704797532,AttemptLanding,AttemptLanding,1,0.540017070306166,0.187330950019982,0.196811358187378,0.897934167877209,0.322770748222754
9,2.60530661858843,3.0,-0.797787043593246,-2.44572714535237,2.60530661858843,0.0044427524654643,0.004967570636213,0.006664443524793,-0.0423446286321235,-0.312209994185413,0.31717820459275,0.0204816761655003,0.199433595508828,0.20186463564107,15.3964423467737,2.07632205179936,1.91653625026576,0.0301793744522577,0.0553267232699674,0.135953890542037,0.442384015440316,0.0228472323430525,0.0062415861970237,,,,,2.98365709536118,-106.900241715489,1.53512664354375,AttemptLanding,AttemptLanding,1,0.735121358751794,0.0900278254638164,0.0664406884720996,0.953537854686217,0.339576048647984
10,1.86797988898045,2.64061069488525,-1.11858561064091,-1.48087118137989,1.86797988898045,-0.0586455777961436,0.0009317277001673,0.058652978709958,-0.0683135561205839,-0.116822993046566,0.13817909665584,0.008913351304266,0.13050353392082,0.132663710579258,15.4251641934432,0.970193075343981,1.03830158626014,0.176562113197079,0.240249137649046,0.181441403746339,0.397249013561348,0.159179162609588,0.0377480952027525,,,,,1.92399487038037,-126.353098118705,1.90412791987952,AttemptLanding,AttemptLanding,1,0.524660712510639,0.184594977425406,0.195229861022122,0.895937913917428,0.319359376112738
11,1.86837964041813,2.53406691551208,-1.1601820434567,-1.44902794820165,1.86837964041813,-0.0568335929799089,-0.003535544246043,0.0569434576059593,-0.0732140954690624,-0.112138632703529,0.137036196188961,0.0088405188393412,0.13385498366827,0.136065714702663,15.3728717459068,0.953264228678316,1.14157190362996,0.176909623183296,0.240233792014304,0.1848406114671,0.51278764807424,0.159169979244681,0.0362266404510055,,,,,1.90759543141243,-127.844704273722,2.16089549081807,AttemptLanding,AttemptLanding,1,0.525447713718701,0.160219270790566,0.180047099272341,0.895085761654501,0.317848617125734
12,2.61971081778357,3.0,-0.782856714832738,-2.46656916780966,2.61971081778357,0.008980874150429,0.0028297279635243,0.0094161276995056,-0.04086619991691,-0.316809491108568,0.321462099198017,0.0207650617160208,0.195280780116414,0.197839520840861,15.373851579486,2.22353838860219,2.16614100552235,0.0179230328908745,0.0765155133329776,0.141819803543555,0.499213672733695,4.37201761888165e-07,0.0118988066914428,,,,,3.0,-106.299635778902,2.35324794595729,AttemptLanding,AttemptLanding,1,0.738157455577125,0.0872913560769389,0.0567018467549458,0.95654814545787,0.336968976202864
13,1.9678586020663,2.71144962310791,-1.04201191539039,-1.64433533207435,1.9678586020663,-0.0664626287476738,0.0191300655233145,0.0691609747399313,-0.0611221309618386,-0.144165171155931,0.160774064987336,0.0103702847637573,0.158100044554241,0.160643822556704,15.4322044578531,0.942255018996835,0.949249103401181,0.176702711427381,0.240271414604976,0.145380113316747,0.382660876610091,0.15729992062165,0.0369069717501537,,,,,2.02726066309477,-121.319262228342,2.20813285462601,AttemptLanding,AttemptLanding,1,0.556891058395687,0.179987491770017,0.19132428789391,0.896786826181754,0.335386616303668
14,2.59415649504305,3.0,-0.689839049319915,-2.46715152737105,2.59415649504305,-0.0117359220077311,0.0163218667651955,0.0201031141884122,-0.0354735312325975,-0.326846011724851,0.330480477558868,0.021335265775289,0.201731047040206,0.203641610262326,15.4024522303597,1.75895570997947,1.55890030138148,0.0631728234802497,0.240510575279235,0.137885640168778,0.515928778399521,0.001940066324919,0.0081373756016365,,,,,2.96211416560549,-104.652706865072,2.33333776401142,HoldLanding,HoldLanding,0,0.732503387397279,0.0950003595498559,0.0608215131031999,0.942344719599182,0.338717493258321
15,1.74140073157646,2.42616176605225,-0.939130624612788,-1.44460720212099,1.74140073157646,-0.0599866266324242,0.0049947547816344,0.0601942102703119,-0.0497888732463143,-0.111820893927131,0.125696194983338,0.0081083251501826,0.139991556948962,0.14189447057587,15.3702142909227,0.978791534378921,1.07139504597928,0.176945293633491,0.240237066370585,0.157345985546443,0.46902490676927,0.159359576048516,0.0355914436575728,,,,,1.78867162897179,-121.8764556945,2.27257463560713,AttemptLanding,AttemptLanding,1,0.492752422535562,0.165106837973277,0.182832924175959,0.895418744337583,0.330068450868248
16,1.77134356411006,2.47936034202576,-1.00461873436963,-1.44510825446282,1.77134356411006,0.0048552483755455,0.0006904555263489,0.0049040968202211,-0.0548584942050381,-0.110139720093884,0.125342908626336,0.0080939946507498,0.127186026881483,0.1282148074534,15.4126201100545,2.14960376145873,2.04469036245361,0.0160784128804179,0.0493294469061722,0.14050854480025,0.425375219162,0.0002604911926428,0.0097022110985309,,,,,1.79698325918466,-123.928221238646,2.44150687570773,AttemptLanding,AttemptLanding,1,0.498001245253362,0.160202859448073,0.0997655662953428,0.959005625443337,0.337551757866555
17,1.8606534768271,2.73769950866699,-1.02595668606235,-1.51781065178676,1.8606534768271,-0.0780223911729427,0.0081203933010968,0.0784438290224807,-0.0622878297158417,-0.126409932679075,0.146968645740516,0.0094788875668652,0.190592457157736,0.192874296827722,15.4330431687061,0.926731778491276,0.914612679686514,0.17621205386383,0.240273012201921,0.144357441856426,0.450885085003845,0.156389585378034,0.0408354619523314,,,,,1.90606506718967,-122.683382350962,2.12167998574629,AttemptLanding,AttemptLanding,1,0.53474911985277,0.211716725818098,0.211385776772853,0.897426266610974,0.3358411369527
18,1.81707997016005,2.83321595191956,-1.0445203293448,-1.4561904245268,1.81707997016005,-0.0678933169815483,0.01650690179166,0.0698711692868847,-0.0632888701256629,-0.11672545975596,0.138314465761638,0.0089251304767961,0.175563398985791,0.177767764849485,15.3590658715301,1.11912914369033,1.24865570241599,0.176830757311001,0.240260479295418,0.162474373526108,0.52110410275882,0.15624104872657,0.0400956099961523,,,,,1.87952489310621,-124.36494621675,2.27726034353958,AttemptLanding,AttemptLanding,1,0.520108211679242,0.241440310265152,0.228884874076572,0.892980597553664,0.32778916732173
19,2.61158348565118,3.0,-0.777360978465941,-2.45825593110941,2.61158348565118,0.0064889020155448,0.0026698333357387,0.0070166843600068,-0.040799956857402,-0.314874682442131,0.319594911496339,0.0206437170520508,0.195467285121469,0.19800426981377,15.3963230282839,2.24932214627805,2.20861929054178,0.0140960218401411,0.0492803404517087,0.148296255983847,0.432388457931843,0.0004370861464185,0.0081255419585724,,,,,3.0,-106.031594526481,2.48764693839539,AttemptLanding,AttemptLanding,1,0.736023116803068,0.0886801078611534,0.0563570677566013,0.957925306362059,0.334090552896068
20,1.89709267503506,2.60050320625305,-1.0161276306621,-1.58794127957171,1.89709267503506,-0.0473846443307887,-0.0064727491443201,0.0478246902743828,-0.0564337401645515,-0.133261797550402,0.146939018139756,0.0094787876012062,0.123731047325163,0.12607704842128,15.4479661175649,0.908012584942694,1.05081027804144,0.176434376429982,0.240259404986771,0.178184660250871,0.395499512302943,0.156008567365019,0.0425816268376462,,,,,1.95533603544456,-121.682915799118,1.95477690248891,AttemptLanding,AttemptLanding,1,0.531106789693607,0.167035229407684,0.185042506636692,0.896392060718705,0.32080681766628
21,1.96427131504626,2.79341769218445,-1.09940358390969,-1.60385790826712,1.96427131504626,-0.0655381081637343,-0.0004526559222561,0.0655396713377882,-0.0676800569107382,-0.136765722665469,0.15697908069322,0.0101245069519261,0.157943208992791,0.16048338058149,15.4622701058558,0.871766334883215,0.819239486483173,0.176514312899863,0.240264927416883,0.158790158332115,0.452498630514326,0.158940410253546,0.0337682474127567,,,,,2.01006102178809,-122.843348050567,2.34132113346084,AttemptLanding,AttemptLanding,1,0.555902360128634,0.19857354126802,0.202063669791269,0.898456369239333,0.329426596296838
22,2.63821443147883,3.0,-0.742315262996405,-2.49746453193436,2.63821443147883,0.0054556527900122,0.0052824030279082,0.0075939402891003,-0.0377566578365411,-0.323430581513362,0.327382513851055,0.0211416217487555,0.190012052828071,0.192583648562164,15.40930755759,2.10258312831185,1.92183533048186,0.0209499499550308,0.0495012225037574,0.138050311308449,0.449913380844598,0.0002918943105601,0.0073175735831559,,,,,3.0,-105.373889448931,2.20209209054665,AttemptLanding,AttemptLanding,1,0.742040578106786,0.0827939753035993,0.0524670518352733,0.95790459427482,0.338644306085134
23,1.69191712141037,2.57020163536072,-0.837936989601017,-1.4392833964452,1.69191712141037,-0.0619566832864759,0.0129725565071218,0.063300219795757,-0.042884050592541,-0.11330698821223,0.125092820025696,0.0080675983295459,0.176164986353375,0.1781179739364,15.4681157438705,0.807241653141157,0.824963693235616,0.17684117422312,0.240261524749912,0.148202206789562,0.400064373449777,0.159480429827208,0.034793834773986,,,,,1.75191981509009,-118.497538474994,2.37311783461606,AttemptLanding,AttemptLanding,1,0.486801493830045,0.209219055934717,0.209063928149322,0.898754942309766,0.334132352537972
24,2.63657724227149,3.0,-0.581933598594097,-2.5377605792228,2.63657724227149,-0.0084032430356945,0.007513204092663,0.0112722104866329,-0.0280320958256982,-0.338703457527364,0.341008109968563,0.0220122541552331,0.1961491635687,0.198018129766696,15.3948905804725,1.62561111887391,1.43354516337373,0.0786752676672651,0.241401919512328,0.135238274545316,0.434209020335857,0.0673890649667555,0.12560535698033,,,,,3.0,-102.185830974197,1.54676185416677,HoldLanding,HoldLanding,0,0.74269089055907,0.083836692411464,0.125927386253233,0.936626138234422,0.339894100202082
25,1.52065419991811,2.45590400695801,-0.819156135240694,-1.27049941676525,1.52065419991811,-0.0553354553184468,0.0067768733816533,0.0557488890304621,-0.0418866905546298,-0.0981611971592261,0.108303340198941,0.0069838856375246,0.142764865989065,0.144429741086005,15.466769609271,0.5611889995656,0.611241001785418,0.170082877835716,0.24019618366363,0.159435911487858,0.388637240782766,0.156527394552113,0.0413088683942699,,,,,1.79680657025774,-122.144595008979,1.96520818963537,AttemptLanding,AttemptLanding,1,0.434393734862031,0.220651836239561,0.216980239344612,0.905746611071527,0.329139594894286
26,1.84475222499076,2.78685188293457,-1.03242416392035,-1.49715973284583,1.84475222499076,0.0069552672996918,0.006961098599351,0.0098403575605792,-0.0621019158700011,-0.122314178008091,0.14261570595701,0.0092064341204124,0.194990573801373,0.196082912272186,15.4114704640341,1.72353711257786,1.91589490758246,0.0262842314766376,0.0546980237494254,0.128601293209437,0.492871153617449,0.0080695861773808,0.0080260399879511,,,,,1.89015622586425,-123.159855511628,2.00116883677504,AttemptLanding,AttemptLanding,1,0.531150509118639,0.213776488590131,0.1347709358952,0.958262346960421,0.342843869684695
27,1.71534560790798,2.7123556137085,-0.839731826034039,-1.46663776430939,1.71534560790798,-0.0811309573079291,0.0039658127705549,0.0812278271569054,-0.0432870887513376,-0.118317868602944,0.129762630712102,0.0083695249398312,0.180134538597529,0.18217209010755,15.4478980944635,0.855383139992444,0.831196537032749,0.175238260867516,0.240224540084615,0.13937574192924,0.412220053475969,0.155651237939542,0.0409000378289379,,,,,1.77620387229689,-117.832865156267,2.09207596321128,AttemptLanding,AttemptLanding,1,0.493859913463638,0.239219019617215,0.227582480772164,0.899129172103901,0.338055225809227
28,1.72338631024232,2.63340091705322,-0.973357918453959,-1.39278281402836,1.72338631024232,-0.070456553319462,0.0051694279968925,0.0706459403750367,-0.0552805558038377,-0.105951614005858,0.12436053851449,0.0080211780303344,0.168969265843367,0.170884226203347,15.4523847590897,0.876971917942554,0.907549121870323,0.176041571348687,0.240216332220941,0.142012147109464,0.456562882325988,0.158474879174602,0.0370780107543378,,,,,1.77693740749085,-123.63065316624,2.20872163499775,AttemptLanding,AttemptLanding,1,0.493746527971954,0.217705042267877,0.21453921799546,0.89795797758427,0.336883490173572
29,2.60889135674888,3.0,-0.518852211907546,-2.5236625279635,2.60889135674888,0.0059381254918847,0.0033864092392831,0.0068358687738482,-0.023202062694584,-0.332945132287944,0.334589910131391,0.0216139621461818,0.203922626603988,0.206551197953501,15.3919423503729,2.16449162238017,2.22256923929679,0.0219322429573582,0.0502662081322711,0.147577487077897,0.478355558235746,0.0002577043373625,0.0067251170727919,,,,,3.0,-100.208461528465,2.16984272820792,AttemptLanding,AttemptLanding,1,0.737014601390402,0.0892526873400406,0.0561116447824533,0.954564114608145,0.334410005743157
30,1.85267360178416,2.57263278961182,-0.942267170290023,-1.57416802564566,1.85267360178416,-0.06407447244722,0.0135949521351165,0.0655008453605422,-0.0502612401738955,-0.131942338834907,0.144217901306246,0.0093016163342676,0.142535346192379,0.144777599906219,15.4378622829784,0.894627689597593,0.891308335772409,0.175414083021417,0.240260564685175,0.137767999401124,0.422236727890395,0.155938837981563,0.0407715310765675,,,,,1.90894849737311,-119.745808657761,2.32879808145137,AttemptLanding,AttemptLanding,1,0.523001813790354,0.173999305577322,0.188531744860991,0.898260604004242,0.338769778043945
31,1.89831033832318,2.72862100601196,-0.955842756121474,-1.61898447856807,1.89831033832318,-0.0666316992750937,-0.0063363089145216,0.0669322953360093,-0.052380521821415,-0.139936257885782,0.152550724100246,0.0098433100305747,0.151478459571659,0.15389194517868,15.3817043557566,1.143509299461,1.15229944629185,0.175751838656124,0.2402543716161,0.181294879462498,0.504238178742678,0.155940656913281,0.0401377188328676,,,,,1.95935225919259,-119.13516242978,2.38067827347054,AttemptLanding,AttemptLanding,1,0.536994479255251,0.199090821041578,0.203356985374114,0.89408558338388,0.319424498016668
32,2.62429396683556,3.0,-0.643126235056647,-2.5118532459383,2.62429396683556,0.0077493482477066,0.0055917172162246,0.0095561341394131,-0.0303579043622547,-0.32800890855013,0.330590672922873,0.0213522352613522,0.193456475138506,0.196133873801895,15.3753769168889,2.22086931870455,2.03990212888599,0.0165169651545938,0.0590277641597043,0.140972914720903,0.525609685009178,0.0001543665174274,0.0061820272039998,,,,,3.0,-103.01941117063,2.39198721895489,AttemptLanding,AttemptLanding,1,0.739038499249861,0.0862858153875586,0.0540881064659776,0.958264027477349,0.337345371235154
33,1.88312663822561,2.65723919868469,-0.831581153539263,-1.66970656509152,1.88312663822561,-0.0652469363560142,-0.0066148769209835,0.0655813944692055,-0.0405767787678947,-0.148640337342126,0.156125365800443,0.0100729356480663,0.151716515146767,0.154199289165695,15.3951217273043,1.21488730136601,0.998111202160784,0.17681135837445,0.240250810156562,0.171550705605586,0.393584277142613,0.158921483477012,0.0353938096557182,,,,,1.93692079365451,-115.089103932968,2.27315139212549,AttemptLanding,AttemptLanding,1,0.533006961359967,0.186198581755982,0.195221395726259,0.894206475427922,0.323755241953073
34,2.64062968208676,3.0,-0.549731951933239,-2.55101273522876,2.64062968208676,-0.0173555096586427,0.0009284745660817,0.0173803273999974,-0.0251918549574598,-0.341571546731236,0.343429832345217,0.0221722400841449,0.200487997842784,0.202546935632665,15.3517677311161,1.75646061259641,1.49852630477152,0.0626078164238195,0.240302257598268,0.137533143773355,0.489204689024444,0.0018890947144211,0.0100610284440321,,,,,3.0,-101.157933097739,2.11625383484941,HoldLanding,HoldLanding,0,0.74467730234967,0.0840447148871446,0.0549249823809704,0.943121194580199,0.338874158322954
35,1.77638015875945,2.59546971321106,-0.7972964005603,-1.56871268408702,1.77638015875945,-0.0610242728410421,-0.0036442759964472,0.0611329912838905,-0.0371089067591205,-0.131856500289942,0.138875235962739,0.0089590407061678,0.140924507833472,0.143069984424379,15.4165062730416,0.996819757200982,1.00511921754426,0.175811441906198,0.240204589699618,0.163238701158689,0.431029948733484,0.159611841385343,0.0375577432620908,,,,,1.86137587595629,-115.841095627455,1.76547383278986,AttemptLanding,AttemptLanding,1,0.502315372554063,0.195502864820325,0.201897676249673,0.896364758531045,0.327449466151694
36,1.97506372506005,3.0,-0.898879050368192,-1.73101492876924,1.97506372506005,0.0069734165060166,0.0051346570791119,0.0086598638029971,-0.0488173604654068,-0.161848997303166,0.172497819626535,0.0111397135321308,0.200059494594615,0.201349066541225,15.388711629931,1.9376634417744,2.1257709721849,0.0177390285729464,0.0469245226690412,0.136543078648366,0.440256158042003,0.0004308839735773,0.0063153576887569,,,,,2.00134863438598,-116.022448666907,2.36061202659008,AttemptLanding,AttemptLanding,1,0.566953473324257,0.232198303558706,0.141806979828483,0.959203501032418,0.339314187267393
37,1.81236701398282,2.49237704277039,-0.811457262000668,-1.60545659171058,1.81236701398282,-0.0437490292517877,0.001994906301116,0.0437944883703876,-0.0369478233732646,-0.136292177392015,0.142871132890116,0.0092177143512572,0.114536886218534,0.116813140770507,15.3663560298505,1.14775612405586,1.07858710833411,0.176164967254837,0.240225330191522,0.129233824026565,0.448385224636283,0.15601519715105,0.0419156346574957,,,,,1.84847057739295,-116.145839673518,2.14527869059016,AttemptLanding,AttemptLanding,1,0.506660498549521,0.161031246011772,0.181200884196114,0.89442481954666,0.342562744877082
38,1.9489295925643,2.67817449569702,-0.773251147748783,-1.77689735679438,1.9489295925643,-0.0503571294873048,-0.0150418558800965,0.0525556649517326,-0.0335381345037547,-0.167013579055342,0.17136681076405,0.0110541095694034,0.137176698571722,0.139832267851556,15.4015906584517,1.02737552751869,0.96220151682881,0.177473662755932,0.240278464880235,0.155349001960012,0.528213582992746,0.158559835011512,0.0348597298258238,,,,,1.9993932608471,-112.620106358339,1.81302435080232,AttemptLanding,AttemptLanding,1,0.547681011587458,0.173715308446013,0.187376488241711,0.895630777559304,0.330955999128884
39,2.6266786968429,3.0,-0.636949956180787,-2.51240844752096,2.6266786968429,0.00814895495211,0.0026643071173832,0.0085734473362386,-0.031008884932109,-0.32836770530464,0.331162413431292,0.0213824313005352,0.205017324451741,0.207602460198533,15.4234836181702,1.91724946016206,1.92504432159204,0.015252557539306,0.0492990970412265,0.129134440131287,0.416023965912381,0.0002261058013148,0.0064597313644412,,,,,2.9987372183553,-102.731971335258,2.44432565817226,AttemptLanding,AttemptLanding,1,0.741968144531145,0.085569091888659,0.0537909398238796,0.962184270087993,0.342606915497206
40,1.90488996457409,2.64030361175537,-0.291805258269687,-1.8625631634749,1.90488996457409,-0.0632409361888122,-0.0186443489096995,0.0659319934197657,-0.0085429929089921,-0.183770872296027,0.184225479816761,0.0118820570905865,0.143215725116632,0.146152940842838,15.4504046796158,1.02670974565407,0.60695382045443,0.176447989425899,0.240270835071732,0.142958311492572,0.384010732322841,0.159140804224361,0.0346800097679574,,,,,1.96262077332345,-97.9255988407311,2.0812166509817,AttemptLanding,AttemptLanding,1,0.537201245388325,0.177555602742745,0.189873520610479,0.898940077267626,0.336462972669968
41,1.8951603568889,2.53339338302612,-0.26704580953623,-1.86524400141864,1.8951603568889,-0.0425793976342352,-0.0144965944584454,0.044979510377359,-0.0061421035229155,-0.182867629472892,0.183090958744122,0.011810728328753,0.12337892504006,0.126334168560345,15.4159630300725,1.05437891545734,0.843311046450606,0.177097462293613,0.240267070001906,0.161742827240383,0.418970689614733,0.158410322471056,0.0357278313567841,,,,,1.94919332297993,-97.076725643542,2.17606496760908,AttemptLanding,AttemptLanding,1,0.530642928882442,0.151848674450058,0.174505731110142,0.896540847723917,0.328114299004274
42,2.60849731502724,3.0,-0.623476401468866,-2.49984301255268,2.60849731502724,0.0028238355247886,0.007553741953149,0.008064308064913,-0.0293237959194634,-0.325491197559332,0.328003969125333,0.0211847397741767,0.195145229990578,0.197698691961342,15.380631998195,2.1853252986695,1.96099403929603,0.0282739205282371,0.0550999965344007,0.141677849425438,0.396597137180763,0.0125543073125367,0.0056803953344518,,,,,2.97766096785849,-102.83550377438,1.86948670268326,AttemptLanding,AttemptLanding,1,0.735139022399533,0.0895665605974377,0.0613852268008048,0.953284816366152,0.337032066922027
43,1.8351017075616,2.62912392616272,-0.243895989315996,-1.80109923902649,1.8351017075616,-0.0514838379685577,-0.0257677016939088,0.0575722157169495,-0.0066317297973723,-0.172136038908978,0.172436748367302,0.011125972520525,0.144020362559765,0.146819007940902,15.3771262197311,1.24967005959434,0.922606850498496,0.176081877672345,0.240259381311999,0.156048335267997,0.438240085132394,0.155727578596713,0.0406367970862275,,,,,1.87761184680711,-96.9149867627548,1.6479296145374,AttemptLanding,AttemptLanding,1,0.518724256937939,0.189209905400027,0.197515217516376,0.894891171155955,0.330645184325335
44,2.5586267939428,3.0,-0.642348247889481,-2.44201814040672,2.5586267939428,-0.0307772301270778,-0.0151955831555901,0.0343240971000485,-0.0278965628934442,-0.307545208105337,0.310060356099877,0.0200119885477673,0.221281368070844,0.223087355927258,15.3634713616781,1.65919341447079,1.33866063718271,0.0639917865370555,0.240242870416181,0.125770988347155,0.465777679455847,0.0018790586882499,0.0107071746728398,,,,,2.70268226585959,-102.84402520654,1.75036726386154,HoldLanding,HoldLanding,0,0.726917949570198,0.105601722497879,0.0680896887563559,0.944449539182766,0.34410178295682
45,1.6362631392959,2.39183211326599,-0.225964180865662,-1.6044305750538,1.6362631392959,-0.0586977582291937,-0.0298832789577183,0.0658668139687786,-0.0055894804560411,-0.137736197929501,0.138009064632362,0.0089015420965731,0.138842816375588,0.141108066495966,15.4360080448006,0.861255675254249,0.710639839067036,0.176171701426732,0.240192760907397,0.156427916786494,0.435598392013979,0.155904133614379,0.0406513826533602,,,,,1.74484723470437,-96.8322370152764,2.0371667179678,AttemptLanding,AttemptLanding,1,0.464558450444766,0.182078601704214,0.193320208038222,0.89956354167411,0.330476481428225
46,1.67288038842255,2.5546863079071,-0.239628965695611,-1.63107130699096,1.67288038842255,0.0051889811611442,0.004435495148215,0.0068263564732988,-0.0074027852669131,-0.14356066056147,0.144030020512899,0.0093000029113263,0.177311108300826,0.178403613404445,15.3545584251221,2.2075677604724,1.79847722121287,0.024202880231074,0.0549720173282713,0.129593547398408,0.419827390854995,0.0017866901891292,0.0092483229822646,,,,,1.71876069037497,-96.5690723186371,2.09335544206422,AttemptLanding,AttemptLanding,1,0.48178215959357,0.199657830570795,0.123951809409984,0.956422492171222,0.34240286782293
47,1.78379015423156,2.54828691482544,-0.135282338249315,-1.76216665737038,1.78379015423156,-0.0578312047203609,-0.018298149134801,0.0606569905383354,-0.0033006775311728,-0.164717333344459,0.164832157998837,0.0106304750494853,0.135770687432476,0.138451313907994,15.4465506121301,0.87545517307587,0.650735333473761,0.17585790352376,0.24022785783985,0.130199661433759,0.375068194505571,0.15868036636503,0.0373366274924927,,,,,1.8330973949862,-93.5355183886098,2.07508143601411,AttemptLanding,AttemptLanding,1,0.503367637243349,0.183132219398984,0.193980894364553,0.900079551400945,0.342133483807218
48,1.74502824330182,2.54455947875977,-0.223361810122247,-1.71928128179914,1.74502824330182,-0.0559205176164405,-0.020377720269852,0.0595176929482904,-0.0047836371632724,-0.157891970570863,0.158053105715408,0.0101971228617588,0.118986265390907,0.121303426911909,15.4081904569973,1.07365935879649,0.876175532235106,0.184415417490286,0.240201341569343,0.186025764828959,0.440983083191074,0.136824310062968,0.0045432713632372,,,,,1.76093856199151,-95.8152911333806,2.32623379262718,AttemptLanding,AttemptLanding,1,0.489601550262867,0.190806105018558,0.176946566161106,0.89247215996818,0.31732188229824
49,2.46052880947654,3.0,-0.678205394024735,-2.3341491748207,2.46052880947654,-0.0030468345909347,0.0085623801517197,0.0090883196954706,-0.0342379898916245,-0.300742919658519,0.304083284398861,0.019626499421201,0.201625762643409,0.203453161707949,15.4226973812145,1.57089601415512,1.27715416860064,0.028530964720699,0.0802492289437202,0.17647066584977,0.684238408042443,0.0238460986964796,0.0059513127152889,,,,,3.0,-103.690253195533,1.68143906199043,AttemptLanding,AttemptLanding,1,0.696831648202001,0.123047209811947,0.0865907056891432,0.963356980489427,0.321568592955658
50,1.67240362352616,2.55059123039246,-0.16863132413404,-1.64876679009867,1.67240362352616,-0.0483977185701942,-0.0213537554473922,0.0528991685615828,-0.0038254255697768,-0.144776041568611,0.144908094810565,0.0093457385418472,0.132913887584589,0.135279485223884,15.4389838815278,0.864359799498724,0.585471676869266,0.176679703348586,0.240200063010204,0.114331932131682,0.385920876439204,0.158849306125822,0.0370624768264656,,,,,1.72627812567413,-94.411640590645,2.33157783769299,AttemptLanding,AttemptLanding,1,0.473030196651753,0.207290392447873,0.208451191380734,0.900268615297101,0.349185807941475
51,1.57805910625973,2.18903827667236,-0.120377186199859,-1.56339770743698,1.57805910625973,-0.0386898912459121,-0.0172764102489409,0.0423719486890822,-0.0021609357205789,-0.129012208110038,0.129067829279938,0.0083270463760943,0.111447066588172,0.113606583857421,15.4002593656226,1.06938519401953,0.841293576529867,0.176703562898613,0.240197769679159,0.145452528088027,0.411981297293461,0.155494711832328,0.0383289532792383,,,,,1.64198518080473,-93.7945426045898,2.3180648409261,AttemptLanding,AttemptLanding,1,0.443537078440746,0.14523850393584,0.170189664368323,0.896635742496377,0.335354431960877
52,2.62920815032601,3.0,-0.639902833672844,-2.51742672068042,2.62920815032601,0.0072386386741233,0.0031204029974994,0.0078825633344311,-0.0302456933353383,-0.329545987612781,0.332164439111556,0.0214446082676478,0.194440037238235,0.197050704763869,15.3983039044838,1.82427361906045,1.65459905253269,0.0192206806387658,0.04548025440332,0.11835051343401,0.409650931901513,0.0007095443322683,0.0079414601542079,,,,,3.0,-102.899260755177,2.27174261530381,AttemptLanding,AttemptLanding,1,0.740532314373042,0.0848733027879611,0.0541271384017797,0.9630556601181,0.347399771807106
53,1.7336440561591,2.39753341674805,-0.146681389314491,-1.71524865596569,1.7336440561591,-0.0423478357078929,-0.0209977850205163,0.04726781320212,-0.0030574917473483,-0.155221625781333,0.155308579566783,0.010019193942105,0.122985145770407,0.125603404442534,15.4326038504384,1.12030014843804,0.786506077974582,0.176033862217207,0.240203370930311,0.140251635593822,0.417899757201399,0.157789095024666,0.038027280539608,,,,,1.76767167051157,-93.7767495596924,1.6752640491038,AttemptLanding,AttemptLanding,1,0.487425762530933,0.158040871886236,0.178781111823774,0.897001019969583,0.337665939736079
54,2.67812123437868,3.0,-0.586344922831814,-2.57889215399726,2.67812123437868,-0.0306915962364739,-0.0105315819271032,0.0324482402824872,-0.0245399285658652,-0.341017764541101,0.342824156146974,0.0221287700037233,0.197512672188217,0.199630776756125,15.4171932129735,1.62885547471459,1.43266384119173,0.0632344634240223,0.240332544178376,0.127874507744093,0.395023757459515,0.0018486723111274,0.0104901726364836,,,,,3.0,-101.106544404973,1.82373904786592,HoldLanding,HoldLanding,0,0.754091817852205,0.0783715663165873,0.0516591801596799,0.944327973663011,0.34316688544707
55,1.66364837578825,2.32538938522339,-0.142520562273489,-1.64558435470742,1.66364837578825,-0.0420837022694694,-0.0267249906715902,0.0498524134130127,-0.0027699333204122,-0.143152406264127,0.143226526553178,0.0092384985650982,0.11616426562884,0.118600206768618,15.4552319028294,0.96594846911054,0.711073819920611,0.176190065833291,0.240197746869892,0.179725065430955,0.43995551689551,0.157727753140785,0.0359182501162434,,,,,1.6954412846166,-94.4207914550518,1.69275201738855,AttemptLanding,AttemptLanding,1,0.46735960823059,0.158031336248625,0.177981207227754,0.898728363383824,0.320122193141798
56,1.69798637293653,2.40617799758911,-0.0924359044386428,-1.68431408356908,1.69798637293653,0.0017355373699877,0.0032093643015501,0.0036485763227166,-0.0016766242747321,-0.149101518891288,0.149144545538327,0.0096302263936561,0.116921537270896,0.118153370184658,15.386964903414,1.6997036735429,2.15156854781002,0.0152020649536681,0.0544240234103036,0.13472274211215,0.420273547635394,0.0001982482563401,0.0061975964455756,,,,,1.73280982852964,-92.1431804697514,2.43922901177691,AttemptLanding,AttemptLanding,1,0.476427040153339,0.160012021205996,0.0983489944945033,0.96213897149825,0.340123225727933
57,1.62855544746322,2.3110191822052,-0.208664883527323,-1.59928406231274,1.62855544746322,-0.0534859185464995,-0.0158353398490613,0.0557808342614024,-0.0048822743931032,-0.135629889946966,0.135834411640854,0.008761568097306,0.126773689822077,0.128940429330972,15.4374936754675,0.870145226470144,0.694781984281303,0.175887533312269,0.240182750566376,0.122154374788314,0.341596892239748,0.154848445708198,0.0399845367421416,,,,,1.65239533729994,-95.8334835366937,1.61523023956298,AttemptLanding,AttemptLanding,1,0.460069538523053,0.163780826598202,0.181629858927384,0.899760376687961,0.345709166760749
58,1.63679046678863,2.31285953521729,-0.1139029854757,-1.61617741039228,1.63679046678863,-0.0524607458838162,-0.0224344397405098,0.0570564102021578,-0.0025935231883938,-0.138970072842191,0.139066837947131,0.0089682709671748,0.125410626795959,0.127795484424388,15.4483355595458,0.828506690829168,0.568244402407552,0.174576981272767,0.240195161305301,0.108196100942024,0.405638962442929,0.155881069552118,0.0387208344487616,,,,,1.68060545220575,-92.4282145747537,2.16592289957774,AttemptLanding,AttemptLanding,1,0.462036554695179,0.162575882266843,0.180906308152516,0.901737036488185,0.351912844025767
59,2.53275421750187,3.0,-0.512992382817691,-2.44792491715722,2.53275421750187,0.0069334760187402,0.0051715775307813,0.0086497574451153,-0.022776974763432,-0.314350304316129,0.31601373843795,0.0204078866487932,0.209599113329631,0.212080938421337,15.3516615903696,2.09789318392159,1.77358026111218,0.0301383033846318,0.0754688378071715,0.120380199481029,0.455283871438959,0.0231730770703193,0.0051554991596784,,,,,2.78982386220964,-100.41262924442,1.54093726610924,AttemptLanding,AttemptLanding,1,0.717817312351432,0.106716089927018,0.0762035262879528,0.954512128382419,0.346497689119543
60,1.68034601372641,2.37477493286133,-0.0943761040692939,-1.66644767189461,1.68034601372641,-0.0399430124428372,-0.0162277288327124,0.0431136106824364,-0.0017683356590851,-0.146310791523914,0.146358527380382,0.0094394461567167,0.119885725233523,0.122251369438569,15.4602003339783,0.952749760213768,0.62058544800239,0.175915273954392,0.240189036375428,0.122444208679499,0.366536719506098,0.159527687125344,0.036818068472563,,,,,1.72864210057146,-91.9462754292346,2.0549804588301,AttemptLanding,AttemptLanding,1,0.472542544214758,0.164150668763802,0.182779984071689,0.899680443529677,0.345580351698
61,1.60161121632602,2.32625699043274,-0.200985511545334,-1.56862114917465,1.60161121632602,-0.0581189800353847,-0.0231197917601684,0.0625487059129683,-0.0054209801679865,-0.133762441474868,0.134033276020808,0.0086450484673985,0.159812222470096,0.162027289717887,15.4235935143942,0.926060005430115,0.709813059059047,0.17647706357454,0.240200984763513,0.119877655474728,0.47513386160631,0.158114569860693,0.0351554997701571,,,,,1.6541677253945,-95.777639022521,1.92853584818239,AttemptLanding,AttemptLanding,1,0.459501782297182,0.174512561924723,0.187764497413381,0.898908179848887,0.346721042011232
62,2.60075500298503,3.0,-0.528469500024997,-2.51488604354771,2.60075500298503,0.0086167139524997,0.0038977713494426,0.0094572924683409,-0.0233784626353551,-0.329631977740319,0.331281609116118,0.0213869427650617,0.197070907471721,0.199669137302149,15.4064825152118,1.83982576539828,1.76043293452447,0.0281407291773644,0.0458871241493928,0.127328430322927,0.370425548882938,0.0161984735497417,0.0064999112783825,,,,,2.96888331606625,-100.576107342626,1.83931453943492,AttemptLanding,AttemptLanding,1,0.733468494923105,0.0915639612808968,0.0645013024474311,0.957641888483353,0.343409586523144
63,1.56059833901041,2.35330080986023,-0.0984962776845939,-1.54239705096948,1.56059833901041,-0.0519642957553544,-0.0344184343229278,0.0623290995811077,-0.0021454392604799,-0.126516936713679,0.126595327978801,0.0081647567614735,0.123453637846962,0.125606795471816,15.468407365227,0.892707919322835,0.589395983075514,0.175656326823871,0.240165622078421,0.139325571604784,0.347417665041087,0.156373793085988,0.0408047498474616,,,,,1.60300708299886,-92.1234906695166,2.06594725166605,AttemptLanding,AttemptLanding,1,0.441280916163805,0.18978505753108,0.198208588966043,0.900526734497792,0.338077523731207
64,2.6262047004813,3.0,-0.604985925277931,-2.52328979772347,2.6262047004813,-0.0225301249292459,0.0024316130323672,0.0226609635996929,-0.0273905121834236,-0.3358836464173,0.338075703587632,0.0218227998717371,0.205163247841543,0.20713994290913,15.4134251013445,1.67586878882436,1.47965904338347,0.0624171985372943,0.240311539030999,0.126012323349656,0.401074128313516,0.0018826854877918,0.0089996309460272,,,,,3.0,-102.201792877698,2.14529249360189,HoldLanding,HoldLanding,0,0.741749242043505,0.0882584523849852,0.0570644136079591,0.943997967764006,0.343994522955708
65,1.5094065078207,2.13395166397095,-0.128978421074802,-1.49489020900655,1.5094065078207,-0.0332741098345741,-0.0137360749921997,0.0359978630126099,-0.0020106167062898,-0.118017823795228,0.118065832066634,0.0076148555297685,0.0988375099963398,0.100767222054251,15.4614981341905,0.842840545129709,0.69382419464137,0.17640492675744,0.240175482526658,0.157379694848767,0.424112180366329,0.158419458609079,0.0364279039360759,,,,,1.55228808798252,-94.2268777224065,2.13220185128818,AttemptLanding,AttemptLanding,1,0.422661846496369,0.147122268352785,0.171928519804582,0.899723742237365,0.330053468956104
66,1.59639049832239,2.25102066993713,-0.126745002859887,-1.57598050745126,1.59639049832239,0.0046035834444875,0.0051306728719284,0.0068932419549223,-0.002794384477798,-0.130690446914074,0.130796028912724,0.0084443173247004,0.127084509658971,0.128103396870007,15.3725090590392,2.04561945904772,1.66781203727223,0.0218599478522959,0.0714917553767816,0.133234382613667,0.431905105299563,0.0005460236927144,0.0047079434213415,,,,,1.60696450398557,-93.5145725727472,2.14929515902347,AttemptLanding,AttemptLanding,1,0.451324812259972,0.148555549638387,0.0910879864057365,0.959893064317052,0.34078471883837
67,1.6509671227352,2.41388034820557,-0.114272986890354,-1.62944365915552,1.6509671227352,-0.0511138851813325,-0.0185554862898579,0.0543777098615191,-0.0025954739331464,-0.141077199533362,0.141184430018618,0.0091064831564248,0.133839629687181,0.136117255964656,15.4310744334979,1.00518135990991,0.703021790283605,0.176051205009633,0.240179915080619,0.116521631855201,0.375333704879838,0.159617864227355,0.0352018786502749,,,,,1.70472744872138,-93.0615211949791,2.25287490961215,AttemptLanding,AttemptLanding,1,0.467481350588986,0.181624722538777,0.192716789658756,0.898552801315092,0.348212608064355
68,1.60777682065964,2.2476794719696,-0.139762062055874,-1.58596101723297,1.60777682065964,-0.0521415037226995,-0.0268921689232331,0.0586679227505115,-0.0031397952616892,-0.133846690558199,0.133961712587361,0.00864160988147,0.12702300806579,0.129193247508749,15.4252526399943,1.04433099802012,0.746641696065992,0.176323904165941,0.240199003786905,0.144194928593865,0.378846827553651,0.157546189205653,0.035858130123237,,,,,1.6346567991892,-94.1375227104005,2.21113350703916,AttemptLanding,AttemptLanding,1,0.454579135010986,0.154733882382336,0.175900178010061,0.897766119606353,0.335913365069393
69,2.6085794115545,3.0,-0.39311057971242,-2.54588016460729,2.6085794115545,0.0044636510878137,0.0060167065191011,0.0074916579186943,-0.016612419890193,-0.33748780542008,0.338425394911853,0.0218475421520833,0.19804434350861,0.200696185367431,15.4045765477769,1.81908978972902,1.77267561052882,0.028291845812992,0.0572274886319375,0.126806555412276,0.455663270068683,0.0166982261656291,0.0089404651259226,,,,,2.97762147861884,-97.4745863886534,1.83832128749975,AttemptLanding,AttemptLanding,1,0.735760413488019,0.0894431030186657,0.0643383738901984,0.957633063234335,0.343641530927877
70,1.71076980474833,2.41093969345093,-0.0980490373724972,-1.69061342734035,1.71076980474833,-0.0507746406889115,-0.0186840084331669,0.054103200535816,-0.0020284903829816,-0.15153650174555,0.151615715222575,0.0097812556595083,0.132930828300125,0.135360531867493,15.3758132309687,1.17848118116964,0.792899529362099,0.176880911291029,0.240213507198511,0.15966840632436,0.417708208757468,0.15829203506524,0.0357888609257864,,,,,1.74106956136438,-91.9626622500687,2.26328065908124,AttemptLanding,AttemptLanding,1,0.48327738763972,0.167457145056318,0.183840433864082,0.896070124486022,0.32903626385584
71,1.62242278295594,2.31199193000793,-0.197252351062973,-1.60033930281947,1.62242278295594,-0.038272368546648,-0.0118045947883289,0.0400515000004631,-0.003885577613554,-0.136797960499844,0.136916232755471,0.0088317000242053,0.122642652188965,0.124871038512912,15.3926603857187,0.979504618617589,0.787455005259961,0.177055958417947,0.240215700629122,0.145092348971847,0.406467290719948,0.158851553472319,0.0350072038002963,,,,,1.67774962146967,-95.9395937551425,2.11268789057683,AttemptLanding,AttemptLanding,1,0.4576202831575,0.162495833086783,0.180828082575228,0.897588766603417,0.335514511568068
72,2.63710501657818,3.0,-0.59296840823452,-2.53683777023439,2.63710501657818,0.0121491972079769,-0.0094962436738601,0.0154201698016475,-0.0273175535262098,-0.335585581811505,0.337792622189252,0.0218108999796324,0.192991341269983,0.195639456038807,15.3457343181147,1.77852724712027,1.85350470920757,0.0178494250285614,0.0734649923338529,0.172168470063205,0.460620439000189,0.0008874641034645,0.0192000370317136,,,,,3.0,-102.28205700878,2.4712737419425,AttemptLanding,AttemptLanding,1,0.742355895628609,0.0844784024002116,0.0580633015784515,0.962537893543143,0.323480679971909
73,1.6728767559335,2.41279435157776,-0.17382019491386,-1.64657521610705,1.6728767559335,-0.0517094901695813,-0.0232561293675558,0.0566984913975541,-0.0041459032951712,-0.144269370200611,0.144438177985183,0.0093157574662711,0.137326999833351,0.139693686178137,15.4511912430492,0.976132396687407,0.611470456380357,0.176434752491441,0.240213411396881,0.155075370406561,0.364098966010545,0.159259237464653,0.0360842510129143,,,,,1.730743683828,-94.7490683234343,1.94832074478656,AttemptLanding,AttemptLanding,1,0.474039205484562,0.176876182442842,0.190029138606207,0.899308601337318,0.331077613152639
74,2.67111747555616,3.0,-0.598598677363422,-2.56593426471908,2.67111747555616,-0.026955783718821,-0.0119475256947099,0.0294848714788043,-0.0272541508590547,-0.337385436177045,0.339639647301822,0.0219262836691919,0.208849174471624,0.210875277475484,15.4091720629878,1.75883037857777,1.56553498590591,0.0634571427100146,0.240256372548795,0.135524841125177,0.376816382292604,0.0019411737115368,0.009541814613566,,,,,3.0,-101.440236798872,1.60345413066847,HoldLanding,HoldLanding,0,0.754473048976741,0.0794041277709771,0.0519749713029499,0.942151415066907,0.339766737277699
75,1.68777509235047,2.26223158836365,-0.174894686333967,-1.66830736251904,1.68777509235047,-0.0358211749262217,-0.0240449268256712,0.0431429609455222,-0.0033251574301039,-0.146444282176413,0.146543280525978,0.0094531921161077,0.109436282253414,0.111805024764809,15.3816448336434,1.06326079143772,0.809649746749075,0.176736917981186,0.240199762285701,0.166954771423221,0.492876987125803,0.158356875175917,0.0360714909029536,,,,,1.72844746755899,-95.0560971705178,2.45148772574331,AttemptLanding,AttemptLanding,1,0.472434362913087,0.137162254442977,0.165795091860197,0.896915815352225,0.325797879367457
76,1.76075328253583,2.59683799743652,-0.2285538194691,-1.72848633105063,1.76075328253583,0.0041946157197575,0.0048764448450947,0.0064323024931736,-0.0059288103442038,-0.158227071590207,0.158486896065099,0.0102333584949516,0.148689866495885,0.149927172092265,15.4001380683161,1.79221210402617,1.76998047547137,0.0294542145903812,0.0514582265449909,0.116951772671894,0.373452323207735,0.0220240903753206,0.0056312269827969,,,,,1.80133462105751,-96.2777836497926,1.63358589502487,AttemptLanding,AttemptLanding,1,0.499519643094675,0.189298316309737,0.125415193299931,0.957284236723043,0.348021434368047
77,1.71387877093779,2.46508622169495,-0.14880425412016,-1.69027168133502,1.71387877093779,-0.0526305067603981,-0.0274858919390837,0.0593754536617894,-0.0035031118393252,-0.151641658663763,0.151768039999044,0.0097908587000516,0.128904985205787,0.131269440812652,15.3650380893835,1.0837905929026,0.879132057440314,0.177036217514846,0.240210580553583,0.151452407171063,0.426818561966798,0.158868968481413,0.0353850022175237,,,,,1.75923009576763,-93.8331549635916,1.61073903036364,AttemptLanding,AttemptLanding,1,0.483288227079274,0.179907176258355,0.191420009724841,0.896058927561311,0.332687819035083
78,1.76692929179282,2.65563321113586,-0.217551085204938,-1.72791821513704,1.76692929179282,-0.0702841230665438,-0.0332221358783638,0.0777403901942455,-0.0066757135208019,-0.16324877451384,0.163608551375573,0.0105506938916177,0.18203109964562,0.184728305486043,15.4748295476182,0.878896973913654,0.476835520902346,0.176433470620019,0.240261808688571,0.13768344449186,0.405354063824576,0.158378686083549,0.0361888088153272,,,,,1.84421771642335,-95.6415120879709,1.5,AttemptLanding,AttemptLanding,1,0.508126805575293,0.21421078672113,0.212076566022859,0.90113108080215,0.338807358003618
79,2.62743994304568,3.0,-0.405215774126805,-2.56130315880767,2.62743994304568,0.0037710335828204,0.0020041797779868,0.0042705305133263,-0.0172891701180124,-0.340676421168243,0.341658292695553,0.0220580131889595,0.193674222451412,0.196451690466822,15.4165939875403,2.02037414120429,1.64123638125663,0.0227124236980392,0.0463353314703386,0.122638620873157,0.402192428648339,0.0010222576436454,0.0078123802154795,,,,,3.0,-97.5958361626102,2.14825703060618,AttemptLanding,AttemptLanding,1,0.739940989572212,0.0846089434088325,0.0540605683087103,0.959873991188787,0.345493946278597
80,1.79893805771261,2.52439737319946,-0.2471612074985,-1.76569612144201,1.79893805771261,-0.0522155746639304,-0.0282704233670626,0.0593774626844012,-0.0063610265487071,-0.165635193741375,0.16589793210801,0.0106985607462704,0.137532678272051,0.14024371505058,15.4732405107594,0.890933717189961,0.515252090798693,0.174781625440574,0.240208394201347,0.135033454766074,0.364018418302291,0.158988197762733,0.0362201699900605,,,,,1.84269174465958,-96.4089816842801,1.85638599841398,AttemptLanding,AttemptLanding,1,0.507765558400144,0.17411421414335,0.188300920619368,0.901560584502659,0.339985131215078
81,1.84675397260769,2.8910117149353,-0.211605557534479,-1.80934150020132,1.84675397260769,-0.0737479809122269,-0.0297664413897382,0.0795286471759636,-0.0068841890153345,-0.178528785133189,0.178864254874103,0.0115406541200519,0.18226011535511,0.185138630834751,15.3467287166676,1.16044019619403,1.02281425397294,0.176643442091011,0.240302861409116,0.160828035705097,0.469923328233692,0.156288303902439,0.0416995307808838,,,,,1.90149022471625,-95.3637271300002,2.08216816998336,AttemptLanding,AttemptLanding,1,0.529495452195667,0.249538244005973,0.234347880543171,0.89452413684604,0.328520873019957
82,2.57732209832373,3.0,-0.401787884762961,-2.51572459864981,2.57732209832373,0.0086997278824445,0.0052911789355849,0.0101824279892843,-0.0164546345332545,-0.331546286945081,0.332442585653052,0.0214747435689309,0.202476383695553,0.205118789835472,15.3549401159742,2.19215858158832,2.14510267160492,0.0292431034850337,0.056613126820161,0.143007986826457,0.393870858464399,0.0216034553050433,0.0057458048919531,,,,,2.91783086718893,-97.7855854258006,1.55848172914619,AttemptLanding,AttemptLanding,1,0.728309650853423,0.0969693063418622,0.0698725030933216,0.951299966982393,0.336440894743797
83,1.70183267786696,2.3530535697937,-0.312585400462126,-1.65991698550612,1.70183267786696,-0.0522971755905596,-0.0210048631558509,0.0563577754258084,-0.0077146600051411,-0.144960970124324,0.145346591947113,0.0093757976421242,0.113222958195974,0.115661592677442,15.4337902387148,1.05267987521388,0.743354914316734,0.176430542333736,0.240200855050089,0.13170642924146,0.364396047556394,0.15793866180517,0.0356204290992469,,,,,1.75027764965131,-99.5200046041142,2.31623719861547,AttemptLanding,AttemptLanding,1,0.476954365966678,0.156856959511581,0.177262019818064,0.897673026915391,0.341463809226018
84,2.65986016988754,3.0,-0.456489494866427,-2.58067408698784,2.65986016988754,-0.0303803897498031,-0.0116401905654524,0.0325340147806874,-0.0189635320592353,-0.340937197480435,0.342204771249722,0.0220936695080127,0.212340231697112,0.214367808160594,15.3974084020573,1.8210841502767,1.56829766567062,0.0630987246883695,0.240316034714742,0.12983624358901,0.451979598700727,0.0018975616237263,0.008495440194686,,,,,2.95681470906161,-98.270421652992,1.66050188083216,HoldLanding,HoldLanding,0,0.752169606935464,0.0824960311517622,0.0534302303925993,0.941819780530515,0.342295002849329
85,2.04900333607519,2.92169880867004,-0.441468545387259,-1.98466228013617,2.04900333607519,-0.0600239717084154,-0.0161156349930529,0.0621497455415705,-0.0140032987919184,-0.207400353761817,0.20825806521907,0.0134337931654612,0.13474146749485,0.138163322762926,15.4332402822692,1.16437666090324,0.739188886746539,0.175350185632602,0.240252674414802,0.135890490894782,0.411016129161752,0.156892975694301,0.0418110998259827,,,,,2.10680641889481,-101.731697741666,2.14645476038895,AttemptLanding,AttemptLanding,1,0.574033554172636,0.207750601349797,0.209584608529925,0.897368320737879,0.339604226268986
86,1.94407537330353,3.0,-0.54368983077107,-1.83809068162096,1.94407537330353,0.0061344951819302,0.0066784784614098,0.0090683022499606,-0.0223913765238693,-0.182591653443442,0.185100156044805,0.0119524342781719,0.206292866877658,0.207740752737804,15.3628067523995,1.87238901400863,1.80408431015056,0.022378295126863,0.0698997354324242,0.124653515885195,0.466074797141237,0.0007491889997913,0.0064515048494316,,,,,2.01104491577433,-105.279667622794,2.14322723655385,AttemptLanding,AttemptLanding,1,0.559968250095169,0.239245563085865,0.146226312503745,0.959924276318175,0.344598437384358
87,2.02745814983909,2.82890033721924,-1.15818163108798,-1.63880637151635,2.02745814983909,-0.0609180040500439,0.0178140954975808,0.0634692462208123,-0.0748734646181533,-0.143962364020163,0.167237641018659,0.010788295282594,0.162934088413693,0.165570488113194,15.4333974462849,1.10184346220111,0.978500838251359,0.176634494261115,0.240272388977939,0.142637682952367,0.400111376959999,0.159806909049092,0.0360491730016693,,,,,2.06469467336038,-124.238920485483,1.66049888445239,AttemptLanding,AttemptLanding,1,0.573769604246397,0.191960520634349,0.199310395473742,0.895337190508744,0.336605474243393
88,1.95493864127108,2.67046856880188,-1.10587128140349,-1.59571277089624,1.95493864127108,-0.0527018978314611,0.0046735013085591,0.0529087105259509,-0.0666108377001905,-0.134352913397022,0.152984454229039,0.0098689328100359,0.130624316895979,0.133086076581751,15.4349236143441,0.990685639854035,1.06879764596522,0.176104620964408,0.240267215810719,0.186941437283549,0.452749688526805,0.155846952810601,0.0422294349314109,,,,,2.00959748573364,-123.70580417537,1.65207173070064,AttemptLanding,AttemptLanding,1,0.54793418632197,0.170694163957522,0.187037968891657,0.895766035129216,0.316914916762867
89,2.61960029362835,3.0,-0.250139967841521,-2.57642585427708,2.61960029362835,0.0070851186496131,0.0053576727378926,0.0088827677806781,-0.0096867246808763,-0.345390649657161,0.345801329468423,0.0223258914932331,0.200163010393641,0.20298416726079,15.4171847608928,1.90220816953184,1.75349986486678,0.0283263989518165,0.0464608116442545,0.129146926617282,0.436277779626572,0.0206908447221245,0.0051210228908782,,,,,3.0,-94.0907171926139,1.60104065217466,AttemptLanding,AttemptLanding,1,0.739156911753051,0.0872184413600794,0.0633891859457961,0.957113380253817,0.342601365947875
90,1.9438799281378,2.88150572776794,-1.06779078387576,-1.59116031305944,1.9438799281378,-0.0771590560837819,0.0084393144994641,0.0776192113137016,-0.0674815776654605,-0.139313015088167,0.160830047132876,0.0103738602060901,0.19856045792127,0.200998952675852,15.4153602030168,0.909946713958299,1.07578015425686,0.176035213091756,0.240282718958372,0.149793977276257,0.436130836589428,0.156216677799167,0.0409177004995286,,,,,1.99637079272466,-122.311062912018,1.58063432064404,AttemptLanding,AttemptLanding,1,0.558567771371918,0.225195993657627,0.219426394589994,0.896380253775289,0.33342489898833
91,1.89087667577976,2.85896515846252,-1.1407098359848,-1.47653262771309,1.89087667577976,-0.0737364898908976,0.0052399298443849,0.0739224377723335,-0.0755584962098619,-0.120438797738218,0.148449704533568,0.0095755478533179,0.205025694756264,0.207452957951169,15.4263383633121,0.898256685200215,0.945490810358308,0.17611548169016,0.240329717093887,0.1543824861761,0.500456641257995,0.160157587660817,0.0370462461291204,,,,,1.94546366280019,-126.251978914843,1.5,AttemptLanding,AttemptLanding,1,0.545724371798169,0.231372355528551,0.223475925617376,0.897455671689817,0.331385561699511
92,2.6320039907028,3.0,-0.47418865838028,-2.55592494641066,2.6320039907028,0.0073823355342571,0.0069300720264582,0.0101254519026192,-0.020687131717528,-0.339168893271058,0.340524032866586,0.0219882726656405,0.191007933074433,0.193746153924594,15.3960815266033,2.03965756809328,1.84854552262254,0.0248188590115317,0.0763149946916579,0.13286880578183,0.50948033273501,0.0071208811417338,0.0072301628487835,,,,,3.0,-99.2513675644137,2.03206278797371,AttemptLanding,AttemptLanding,1,0.740616961639,0.0846554349406825,0.0565872471542327,0.957040403352896,0.340947197430298
93,1.68722250493797,2.52768802642822,-1.02432683955345,-1.31452928889739,1.68722250493797,-0.0650654997781266,0.0111590290941323,0.0660154769103509,-0.0600622402743663,-0.0955279451188443,0.117659128286377,0.0075901383236796,0.168407837264291,0.170254945122746,15.3700967127728,1.00073280064051,1.07810623289663,0.177413089038902,0.240241204574686,0.145631167023628,0.440710006603562,0.158473492032159,0.0351730441019016,,,,,1.74681180591764,-126.657123786368,1.66837998007101,AttemptLanding,AttemptLanding,1,0.483976990341341,0.201207579768871,0.203947408841964,0.894959720217043,0.335275036878388
94,2.66681984625304,3.0,-0.281602875638257,-2.6160796113495,2.66681984625304,-0.0301748433868568,-0.0100968102277964,0.0318192826788643,-0.009459275754148,-0.351299453548101,0.35173394749457,0.0227049409060753,0.200844223314952,0.203002448807867,15.3748839868727,1.73731070840277,1.32764261513537,0.0630170766543148,0.240205546875404,0.124272025219141,0.500623943319286,0.0018545033627324,0.0087558427709286,,,,,3.0,-94.2734617915732,1.56756173366184,HoldLanding,HoldLanding,0,0.751752448762383,0.0807990697508588,0.0524876083930775,0.944409685559329,0.344767988791493
95,1.83174048820672,2.53372311592102,-1.16553943951612,-1.39920952310729,1.83174048820672,-0.0591157800214547,0.0062173238004237,0.0594418250290512,-0.0731981608073039,-0.103592196005644,0.129620261962016,0.0083602081293271,0.125819235608706,0.127530568281024,15.4455870329882,0.892136025133599,0.884704291790184,0.187401652885941,0.240234356679071,0.151999930919632,0.421752188162561,0.138553937438355,0.0049448589260062,,,,,1.86493072097439,-128.583435678336,2.06899588391394,AttemptLanding,AttemptLanding,1,0.513970243844663,0.16884375915771,0.164683913763554,0.892338285352628,0.33244447514683
96,1.62644858472676,2.48537302017212,-1.01808536775397,-1.25518304431026,1.62644858472676,0.001309321476008,0.0029679416598009,0.0032439174501701,-0.0598152482873829,-0.0882615346439522,0.109021573683293,0.0070357572567301,0.125839305051746,0.126470772345513,15.3983559735384,1.36945183224371,1.49909218717399,0.0232920219288454,0.0896301395160305,0.167370343228841,0.6408634091164,0.0107032517422727,0.0056033882320656,,,,,1.76269102467469,-127.19753908103,2.06315625719065,AttemptLanding,AttemptLanding,1,0.459013777062906,0.193852716174403,0.123106226199736,0.96581542888301,0.325613180787182
97,1.78104064029616,2.56036353111267,-1.09162035088917,-1.39142893966754,1.78104064029616,-0.0438181994005358,0.0106913484715179,0.0451036531873477,-0.0645541414307462,-0.103166155588435,0.12469993271277,0.0080446886025627,0.129656194835091,0.131667108910492,15.38276515977,0.931798578933503,1.14529278990236,0.176919863831918,0.240219814514583,0.172557799674628,0.481519928691606,0.158640089463393,0.0351692074021074,,,,,1.81622668042125,-127.513201967813,1.86281626889792,AttemptLanding,AttemptLanding,1,0.501277592527742,0.183616653518061,0.193465501230687,0.895220064471759,0.323307644589054
98,1.86109019372914,2.60957407951355,-1.17603547492824,-1.41877674371807,1.86109019372914,-0.060017791762301,0.0153095342520162,0.0619396251767524,-0.075753392662827,-0.108204606467239,0.136892071828057,0.0088298127418591,0.146068707544603,0.148272741951452,15.4075505434557,0.9253764281221,1.02742358992056,0.176608286070855,0.240254575478936,0.16180468983755,0.476721664577769,0.158712682310291,0.0340747805297161,,,,,1.91962505408224,-128.853168090004,1.5403532176016,AttemptLanding,AttemptLanding,1,0.525945266718062,0.179764472250563,0.190788482549556,0.89635242825138,0.328086804516645
99,2.60993750438244,3.0,-0.149659044328681,-2.57462474056732,2.60993750438244,0.0072577853336474,0.0043375813027375,0.008455179448549,-0.0051854787389633,-0.347099671422932,0.347345825628613,0.0224254304477094,0.193449913422451,0.196193117626654,15.388978316914,1.88415608586556,1.69368924860017,0.0275355494817948,0.0532348691345443,0.131289972042379,0.490211773544265,0.0125915861528178,0.004068871014931,,,,,3.0,-92.2002194325483,1.88626144282817,AttemptLanding,AttemptLanding,1,0.735221958027314,0.0893141777461858,0.0606643566200498,0.958120583345443,0.341648901314498
100,1.63557117694133,2.32028651237488,-1.04797473154984,-1.24245624489099,1.63557117694133,-0.0425813443699308,0.0076256207968893,0.0432587676764906,-0.0594353200134733,-0.0820247104967428,0.103704371747488,0.0066899391527203,0.124217438345315,0.125949626550651,15.4217452154485,0.971995900793838,0.995837387407363,0.176012207871577,0.240176329301972,0.155145872209023,0.358002235914402,0.158025689033999,0.035457652125971,,,,,1.68546986904653,-128.540481584722,2.14771040836651,AttemptLanding,AttemptLanding,1,0.461342239161152,0.161991724546571,0.18032236598078,0.896532348799774,0.331046279018212
101,1.61238780577441,2.73201107978821,-1.03790658714802,-1.20533759013473,1.61238780577441,-0.066277482865505,0.0073677370956868,0.0666857427408473,-0.0615364015737302,-0.0812016725584891,0.107164813666092,0.006913871418183,0.164263445897242,0.165945624907804,15.3950612151019,0.99435989871012,1.11894976490284,0.176019359656537,0.241922943089163,0.187108536628298,0.440428960779286,0.158122415567223,0.0406662641195647,,,,,1.69807149429304,-129.55767099295,1.75771154585664,AttemptLanding,AttemptLanding,1,0.463159206521402,0.264140956155594,0.243548935241459,0.895385744243344,0.316840650387423
102,2.61730377969136,3.0,-0.134616535813312,-2.58054745182408,2.61730377969136,0.0071295196122346,0.005839652467898,0.00921583370331,-0.0046773780569496,-0.347287159194546,0.347550655367966,0.0224476051176322,0.198408686796022,0.201156484129576,15.3639517265101,2.13643017815818,1.99450996840342,0.0225940505924118,0.0549306062300514,0.139911001792288,0.46048610890459,0.0016615046996515,0.0067377757882774,,,,,3.0,-91.8482151525671,2.15230674265237,AttemptLanding,AttemptLanding,1,0.738178971410277,0.087796219081718,0.0558662782688556,0.956245587837953,0.337817332536761
103,1.71072583665719,2.53375196456909,-1.08238691396463,-1.30472500022131,1.71072583665719,-0.0457953197543831,0.0192413645342849,0.0496733471848579,-0.0646668089519095,-0.0917833998913136,0.116007418342812,0.0074848267856917,0.132096015472463,0.133990274429719,15.3959482960338,1.09977725197042,1.09242720949337,0.176782292083987,0.240233839525833,0.184607606812716,0.387249342198779,0.158789932430052,0.0353718902386373,,,,,1.75398132014352,-128.600052606655,2.44566672099711,AttemptLanding,AttemptLanding,1,0.482991611327861,0.194287659097402,0.200008404302009,0.894384390332219,0.317952174749904
104,2.66971392951361,3.0,-0.371923980393715,-2.60557173384244,2.66971392951361,-0.0295755754655293,-0.0116765925813921,0.0317971300344707,-0.0146533379974706,-0.347665219523815,0.348494295343206,0.0224982813733516,0.208085597667915,0.210230800091683,15.3941400006938,1.8452747003286,1.46866884011194,0.0630668923872329,0.240213285735912,0.127025095012477,0.502161765429537,0.0018343015800365,0.0093537446620091,,,,,3.0,-96.2939600424606,1.60212048883809,HoldLanding,HoldLanding,0,0.753969874555298,0.0801438396990917,0.052302910661414,0.942428425988636,0.343544402216677
105,1.73441787694125,2.60131001472473,-1.11533773869745,-1.31345042708601,1.73441787694125,-0.0491688162770753,0.0106053552985175,0.0502995631700373,-0.0671463218434295,-0.0919612664104643,0.116676430883933,0.0075262959572887,0.12058988194781,0.122490387389873,15.4194934366904,0.893879354996589,0.962795969853141,0.176841066507513,0.240214001532546,0.139239946783683,0.422880860171186,0.155892117805346,0.0415964177797254,,,,,1.78074250763471,-129.221424924807,1.64615685528672,AttemptLanding,AttemptLanding,1,0.487009511328973,0.204272317582458,0.206974746342458,0.896991303479567,0.338115579207252
106,1.86162870903079,2.66608452796936,-1.08652188484997,-1.48892561609824,1.86162870903079,0.0034853917595603,0.0009965032173387,0.0036250481899938,-0.0653777419875091,-0.117747477751318,0.138810432200541,0.0089640566767048,0.154912766657849,0.155971286839544,15.395678362053,2.03209723831505,2.03937240423493,0.0171948178668314,0.0647043480098831,0.138475174711104,0.51270306368567,0.0002725206594222,0.0086187921902407,,,,,1.88415857146299,-124.959215831678,2.35824318997769,AttemptLanding,AttemptLanding,1,0.527628579776119,0.181667151429344,0.11225551740168,0.959412472446549,0.338455477906176
107,1.66618117972,2.62312030792236,-1.00593192323999,-1.30023628471868,1.66618117972,-0.0643613140361262,0.0128582854154556,0.0656331794771682,-0.0590121451164932,-0.0942267535776491,0.11614933915847,0.007490676308311,0.178006538996443,0.179796460871063,15.4522106736884,0.754046050850968,0.834108115408615,0.176546954431162,0.240237965074817,0.136109693279224,0.415428954023164,0.158275515344911,0.0372584468895684,,,,,1.72726488943798,-126.550224489005,2.17820895036389,AttemptLanding,AttemptLanding,1,0.48027427343288,0.227344053416345,0.220299631678095,0.899248168620951,0.339506802987012
108,1.64390013668988,2.58126878738403,-1.00296264748291,-1.27530764482846,1.64390013668988,-0.0612615223044233,0.005948740217005,0.0615496679538141,-0.0587035392352357,-0.0903861838789476,0.112539438959131,0.0072596158693927,0.173769886532661,0.175646188097516,15.4506534659966,0.845561741103347,1.00687684775506,0.176556178511644,0.240238487598621,0.188200982172702,0.466563933144937,0.159160384453579,0.036254041922224,,,,,1.72684939224008,-126.925173742408,1.92806328465873,AttemptLanding,AttemptLanding,1,0.473502607403472,0.222192052197717,0.217236467936383,0.897167036117434,0.316355119034355
109,2.62943710969842,3.0,-0.30405646052799,-2.57743976059045,2.62943710969842,0.0033011910650682,0.0071921402420187,0.0079135797025715,-0.0126125389610662,-0.345129629158607,0.345764117237096,0.0223277266564011,0.198469127458124,0.20120739952432,15.3952778042655,1.90994904355914,1.89802048828222,0.0283275291210499,0.0458375486033563,0.128551398767453,0.446093784078513,0.0237148138327497,0.006409420588864,,,,,3.0,-95.4171668207032,1.73327267451881,AttemptLanding,AttemptLanding,1,0.741424709157776,0.084827473263327,0.0637670996129466,0.95591647483215,0.342866044992243
110,1.60547345755874,2.56614708900452,-0.932350745213606,-1.27771551707624,1.60547345755874,-0.0628441150964631,0.0105785380357237,0.0637282376127785,-0.0505204532231799,-0.089484919134193,0.107521528934978,0.0069339607048084,0.168506570943846,0.170320927182579,15.4493083345598,0.719834464859278,0.777511202563807,0.176506577795581,0.240203960929669,0.117698858411433,0.427603727307331,0.159159235947616,0.0362996227322349,,,,,1.65985778043302,-125.136897277648,2.02409147678876,AttemptLanding,AttemptLanding,1,0.462190440785512,0.22783507730431,0.220638347393249,0.899981852286743,0.347689396261585
111,1.53550278818285,2.18897318840027,-0.918762097181298,-1.2176927226853,1.53550278818285,-0.0407436681241135,0.0007787825189518,0.0407511103458511,-0.045588368044295,-0.0786147904347266,0.0928927587635075,0.0059915185678727,0.100823878755735,0.102319000784124,15.4077049349326,0.793781236486351,0.894953032569964,0.176775587450038,0.240159630491932,0.153719591467447,0.500782581872573,0.15948704222484,0.0357879095860356,,,,,1.59306398738573,-126.486183134521,2.2060614686072,AttemptLanding,AttemptLanding,1,0.429931210338918,0.154501876945658,0.176598041349115,0.898343579875253,0.331680181570024
112,2.63067672045335,3.0,-0.244471844071169,-2.58714361936143,2.63067672045335,0.0049816424391033,0.0044677550275536,0.0066916064123128,-0.0096292069306648,-0.348048128941327,0.348489305347012,0.022502335658743,0.196911691939104,0.199709421082968,15.4090206708056,2.07974592445993,1.78569132998023,0.0246794508535192,0.0500838063471136,0.130048739386166,0.428692547727416,0.0069724632946541,0.0054035885697659,,,,,3.0,-94.1056534981467,2.05196118995392,AttemptLanding,AttemptLanding,1,0.741455676337486,0.0843245324069214,0.0556585333176513,0.957288981859782,0.342200560272815
113,1.73059134950509,2.59517431259155,-1.00999303129839,-1.37505753805504,1.73059134950509,-0.0718188360724882,0.0027343047839957,0.0718708677939728,-0.0598499510060107,-0.104508118502502,0.125882601640134,0.0081197452209801,0.170675347744744,0.172663934321826,15.411401031568,0.886799801570051,0.960612533317218,0.177033352445033,0.24023278254972,0.169483782102655,0.467954899656652,0.158247127603511,0.0350820033209057,,,,,1.77528590773906,-124.910768203071,1.7975366659806,AttemptLanding,AttemptLanding,1,0.496023813399056,0.207707492456683,0.207713644303374,0.896967941146226,0.324673874621042
114,2.59552952820882,3.0,-0.38955245870797,-2.53083835203297,2.59552952820882,-0.0176416949826502,0.0175394487382658,0.0248769303553135,-0.017693853563133,-0.343803147729755,0.344891717285641,0.022268927914485,0.205304151951811,0.207341127696281,15.400822929453,1.84563870394742,1.64945412227837,0.0626855605451404,0.24048767041529,0.136945619243002,0.473468090882867,0.0018866123482901,0.0092761967791711,,,,,2.9979851142919,-97.9705526263991,2.32794868028389,HoldLanding,HoldLanding,0,0.733609433061609,0.0955666267181555,0.0615516328730642,0.941195776092799,0.339135280336443
115,1.85328631384953,2.75040531158447,-1.05957820424493,-1.49055778065268,1.85328631384953,-0.0748812035455978,0.0075097443446462,0.0752568329426584,-0.0650856944532739,-0.122096035210482,0.143871494877265,0.0092815661076291,0.186356799558113,0.188610249947518,15.3487891199206,0.992238488938731,1.17788430595458,0.177332070313953,0.240282647577192,0.14986529786168,0.440205505073647,0.157638297868816,0.0347937896396311,,,,,1.89315516909655,-124.179562229341,2.05018942445976,AttemptLanding,AttemptLanding,1,0.531931733682711,0.21564886052985,0.212103069179068,0.894283000026004,0.333393200950364
116,1.64714463777765,2.58632707595825,-1.00484542647611,-1.27660252228995,1.64714463777765,0.0065967087113488,0.0009284610157436,0.0066617269292684,-0.0587409425410897,-0.0897382070640374,0.112347043090951,0.0072548458134695,0.180617447083804,0.181496054195285,15.3744385652271,1.89116389829116,2.10109752218494,0.0257368535084425,0.0754329442154166,0.144896481039739,0.546913322229758,0.0091836325658717,0.005374360524989,,,,,1.69700248239393,-126.66944677606,2.00913087129477,AttemptLanding,AttemptLanding,1,0.475537780913098,0.212537365194334,0.133558346508499,0.955763804942038,0.335601563982338
117,1.61001770802446,2.29497694969177,-0.951364547886693,-1.27881217315817,1.61001770802446,-0.0470233520394458,0.0096640743687703,0.0480061451319597,-0.0502321929832853,-0.0880806164707705,0.104617831719919,0.0067494124128463,0.127464399584458,0.129049708194359,15.361034244929,0.912787607074391,1.19376964915034,0.176381184506638,0.240185497686694,0.15703591530294,0.486618676132225,0.156361788247077,0.0392782018058128,,,,,1.6721231422542,-125.43586516234,2.25905875684821,AttemptLanding,AttemptLanding,1,0.455147997112062,0.162916955982671,0.181527284174255,0.895257886447772,0.33020625986536
118,1.75215567124856,2.47629570960999,-1.07738867799868,-1.36628727351085,1.75215567124856,-0.0503374109028545,0.008556913433072,0.0510595309800619,-0.0634093958143153,-0.0995915789023481,0.120911976112323,0.007798201730209,0.114431836876726,0.116382460377323,15.4548794688096,0.8242584206642,0.87149890281426,0.176805246429279,0.240198636065175,0.127094578549637,0.466987846676296,0.157854261184575,0.0342794725191298,,,,,1.78141492798702,-127.597402747289,1.7191614010837,AttemptLanding,AttemptLanding,1,0.490518004408415,0.172292422644331,0.185998165736194,0.898273569243744,0.343513520644606
119,2.42037223634266,3.0,-0.38087886372692,-2.363529284406,2.42037223634266,-0.0328288345903515,0.0273764944656766,0.0427458165179925,-0.0151020066986746,-0.310755727064828,0.311528645401619,0.020096146999516,0.189681992585122,0.191443898045309,15.4356998711302,1.15733926041675,0.900145188301022,0.0228389504413089,0.095264390187224,0.303752362842735,0.68017803600085,0.0168907211314198,0.0058769557703219,,,,,2.88139783872518,-96.8469577847742,2.04816633613526,AttemptLanding,AttemptLanding,1,0.683721375967104,0.138252979851201,0.092595849905812,0.97241457553942,0.264998949847673
120,1.72444299266145,2.46059966087341,-1.03069153013794,-1.36928507140954,1.72444299266145,-0.03895066300449,0.0053154685155582,0.0393116821572066,-0.0575796127843183,-0.0992226423248919,0.117140287372408,0.007555168252909,0.11310054441661,0.114962708927628,15.4613719398877,0.922352938558887,0.779581583055673,0.177388640891831,0.240200679162876,0.138356222064801,0.340326920345423,0.158379484075785,0.0367760143366789,,,,,1.76744363452008,-125.864521808831,2.11516763749909,AttemptLanding,AttemptLanding,1,0.482844006495246,0.172842392076513,0.187469413179797,0.897933336884256,0.338508345748977
121,1.71489986052384,2.35593557357788,-0.994992016609425,-1.38297864106784,1.71489986052384,-0.0475506586935121,0.0007943522953451,0.0475572932130919,-0.0541362211406066,-0.101745262038767,0.117513882543645,0.0075800709622216,0.123388333366437,0.125205337998784,15.4104777232092,0.863867721619404,1.07803757629472,0.17697704194214,0.240221676500046,0.169065235824688,0.499895551792165,0.158984877756923,0.0352353618208791,,,,,1.76448514358837,-124.664357217421,2.27309934832569,AttemptLanding,AttemptLanding,1,0.482347697072781,0.152951872526225,0.175243928029435,0.896253651688176,0.324859895189028
122,2.62386276570451,3.0,-0.386287452642788,-2.56049072818219,2.62386276570451,0.0097546590202477,0.0064335397552328,0.0116851960353031,-0.0164721396488861,-0.340698031212031,0.341628545644041,0.0220589101981631,0.197298620747063,0.200078909237314,15.3982289424201,2.04736196508025,1.77852524483367,0.026900111688248,0.0500368695572288,0.131037847693734,0.408797758827046,0.0168055051959432,0.010708455786265,,,,,3.0,-97.1526305433791,1.87141123885028,AttemptLanding,AttemptLanding,1,0.739712519368665,0.086773163656291,0.063426995536472,0.956489401792267,0.341760956580563
123,1.64086648016363,2.24371075630188,-0.942897764984073,-1.33024960633351,1.64086648016363,-0.0290346801385578,0.0210641993395327,0.0358707839970627,-0.0480424301369626,-0.0939858172262257,0.10752777545026,0.006935774161831,0.0981715960149063,0.100005819121038,15.425248883709,0.868587836966438,0.962425257469819,0.176587041889081,0.240187174147273,0.141152071354335,0.430897647824704,0.158883062594043,0.0336897726450086,,,,,1.66518818535526,-124.488998271363,2.18309227953448,AttemptLanding,AttemptLanding,1,0.457565558534508,0.142216272530569,0.168195284420949,0.897319947599175,0.33726574606474
124,2.6261252267509,3.0,-0.521084016842378,-2.53851972179032,2.6261252267509,-0.019146921860654,0.0068894173287673,0.0203486777916382,-0.0245321068956846,-0.341981179132622,0.343834554760051,0.0221912435926491,0.207649134343016,0.209727722270881,15.4213365149989,1.57526334529715,1.35983863207585,0.0629098543971188,0.240375912876042,0.124659970542761,0.417717065768562,0.0018930212024511,0.0096591870667864,,,,,3.0,-100.530616564359,2.06283301573193,HoldLanding,HoldLanding,0,0.742245604921082,0.0878524149095148,0.0570652233630035,0.945483557264938,0.344595568647662
125,1.55726839078439,2.29175138473511,-0.815602082231653,-1.29979465504659,1.55726839078439,-0.0705928021084062,-0.0051273147245081,0.0707787614034094,-0.0397862634895372,-0.0925175449369602,0.104295602631932,0.0067268708269914,0.156657132104718,0.158269769990136,15.4457565750566,0.826459492253252,0.913530683365534,0.176773626272608,0.240194351283693,0.141941320232322,0.39697539196718,0.157743728008355,0.0347505088994852,,,,,1.59718321662841,-120.692341177793,1.56197233376066,AttemptLanding,AttemptLanding,1,0.446925524873865,0.178234779896203,0.189685740187712,0.897941835483834,0.336914968785635
126,1.55821140992602,2.16794633865356,-0.860525795734901,-1.28715750976761,1.55821140992602,0.0044035750976588,0.001754962844069,0.0047403974754005,-0.0402904881469323,-0.0874730593630573,0.0979573138847561,0.0063255125618254,0.113928259875649,0.114663079795979,15.3880316634488,1.77014473764937,2.14002873036057,0.0282233037875465,0.06365905325918,0.137227068150143,0.445780731127652,0.0185356839897918,0.0051507455085689,,,,,1.57811714801433,-123.111297136965,1.71983457421958,AttemptLanding,AttemptLanding,1,0.438455658606133,0.138059431834189,0.0929467392405063,0.955165556571863,0.33901019193327
127,1.47758906039616,2.20306301116943,-0.742590798051908,-1.26662444446104,1.47758906039616,-0.0455036018670282,-0.0040791014758269,0.0456860684642825,-0.0304037539432544,-0.085339144932012,0.0917616297036119,0.0059184014759456,0.10815295782776,0.109659762348099,15.4421276946374,0.803405202977406,0.822953752201976,0.176035130957747,0.240167145417595,0.13306425129979,0.40912204914152,0.15485184316365,0.0412311246058551,,,,,1.53181850141805,-119.504479623187,2.15612599619033,AttemptLanding,AttemptLanding,1,0.415955701908595,0.171607418142439,0.186780628511841,0.899203899873289,0.340860332755649
128,1.64379537749935,2.2069571018219,-0.886967644955573,-1.37032254485667,1.64379537749935,-0.0481875429338227,0.0051823589379898,0.0484654117712949,-0.043180132690638,-0.0994689589739726,0.110370891259801,0.0071201660169778,0.117131405782874,0.118913472388916,15.3691496042347,1.02688073236543,1.0706066629009,0.176931322902276,0.240207903244999,0.151679590014762,0.47865977183896,0.157378232049894,0.0354136158691281,,,,,1.67347133841587,-121.814224359451,1.94165576852734,AttemptLanding,AttemptLanding,1,0.462128128477609,0.135596713463978,0.164181587487316,0.895054080443198,0.332586848882328
129,2.61646371701091,3.0,-0.512826068543534,-2.53454304303502,2.61646371701091,0.0066905699734767,0.0074574834985491,0.010018871528327,-0.0222960492840613,-0.334294376611948,0.335781609751093,0.0216815449208886,0.197695928153387,0.200357379484085,15.4141006204559,1.87155005279284,1.86590127579605,0.0280301551365357,0.0528971345368864,0.137343162097998,0.405456637591281,0.0183304843638683,0.0100824520432942,,,,,2.98812679975473,-100.15154225882,1.83127593276952,AttemptLanding,AttemptLanding,1,0.737795133766392,0.0881324567860727,0.0646927022087022,0.956619233421391,0.338958594623112
130,1.61098611999202,2.22955846786499,-0.888535603352246,-1.33097807934643,1.61098611999202,-0.0408319984556449,0.011846830546532,0.0425158734107631,-0.0430820121112775,-0.0937358490520928,0.10500638928803,0.0067735187685293,0.105503669945681,0.107158813326985,15.3998238312007,0.941956567608583,0.984028880382757,0.176616360392953,0.240181582980586,0.156463837677747,0.428977091127814,0.155342735415863,0.0405719926850014,,,,,1.67291748571223,-123.514973806059,1.92141942792873,AttemptLanding,AttemptLanding,1,0.451028061329937,0.146973355063391,0.171978680663873,0.896559076997878,0.330460516587668
131,1.4971655511216,2.4008584022522,-0.746732157218288,-1.28275775633493,1.4971655511216,-0.0490623462787993,0.0035441923645046,0.0491901933508847,-0.0316611648173655,-0.0883898823424503,0.0955818316722836,0.0061639250907948,0.119531366893402,0.120997517589555,15.4547119072378,0.768240203954367,0.673804273134302,0.175925778778945,0.24015989232755,0.13234835541265,0.419094396136879,0.155964420335905,0.040522651664613,,,,,1.54515709711904,-119.107877075441,2.38113177922766,AttemptLanding,AttemptLanding,1,0.423443650483672,0.212349093618713,0.211462486016742,0.900706761147688,0.341178508705489
132,2.62713464127735,3.0,-0.45147916275011,-2.55672435464101,2.62713464127735,0.0051631994616263,0.0052518091095438,0.0073647897189008,-0.0190707644205756,-0.33991935833585,0.341046489017679,0.0220269086177996,0.188253403963231,0.190981388161148,15.3692581358865,2.09392641010267,2.0882962002188,0.023638243504529,0.052995652308551,0.140173345298987,0.464654447393559,0.0072084073626774,0.0053419561289512,,,,,3.0,-98.8062245222683,2.0707256176967,AttemptLanding,AttemptLanding,1,0.73876551530619,0.0852449171610611,0.0562932164037079,0.955320557738067,0.337700735422673
133,1.61457921954609,2.58992981910706,-0.852777057138444,-1.34508605953783,1.61457921954609,-0.0777013622341076,0.0070115320549486,0.0780170704063769,-0.0436849231915562,-0.100190031212537,0.112950304113547,0.0072846539311856,0.167046493050527,0.168753644448116,15.4649967407309,0.839642723047436,0.76913334612329,0.175539613169533,0.24019997190119,0.134177187952974,0.400898666060089,0.155977769056748,0.0424298308225473,,,,,1.68330103474598,-120.509023497779,2.10855318617112,AttemptLanding,AttemptLanding,1,0.464305187435248,0.233757014475719,0.225006690989559,0.899589810014606,0.340365694243123
134,2.64442964394887,3.0,-0.627112881652816,-2.53163390393568,2.64442964394887,-0.0258689813753371,0.0033480393422966,0.0260847381592207,-0.0293621199968834,-0.338110057820688,0.340695851676748,0.0219919683122489,0.203885695386276,0.205912722461962,15.4077351277623,1.73685016351655,1.44051677972927,0.0627533112551506,0.240288009579616,0.131986780849337,0.462205474975284,0.0019075449007759,0.0073102136036935,,,,,3.0,-102.269542710179,1.94369027745938,HoldLanding,HoldLanding,0,0.746363782878759,0.0847855321073607,0.0543773764903468,0.943658318389779,0.341339208511406
135,1.66948764276185,2.2988805770874,-0.865247619978554,-1.41546046180809,1.66948764276185,-0.0478448242616338,0.0034375129366122,0.0479681530165171,-0.0411040107805536,-0.105388278881741,0.114725708965905,0.0073999428542948,0.102204732706956,0.104100778419089,15.4305983777768,0.914492957370343,0.85153612165112,0.175885227622093,0.240177343997051,0.142032012739958,0.398232090678007,0.156253475090648,0.038787600766221,,,,,1.71044333906111,-120.370167332204,1.55922018511152,AttemptLanding,AttemptLanding,1,0.46601686042031,0.150407571609612,0.173795113991752,0.898181443425213,0.336874661004463
136,1.63306252912534,2.35841774940491,-0.754575505915329,-1.4304769693391,1.63306252912534,0.0021891570952646,-0.0002783392256081,0.0022067808029479,-0.0326237914851038,-0.108755590618387,0.115341043028467,0.0074498542209697,0.135244396907813,0.136124098409744,15.3748853775024,2.10007600402853,2.20154966991683,0.0276550647159935,0.0703912966780133,0.138129868822062,0.473556520839303,0.0203108835637594,0.0077475352383874,,,,,1.66149639163359,-116.91481150861,1.54654032205703,AttemptLanding,AttemptLanding,1,0.46270816078204,0.163609501043443,0.110010045528968,0.952373980203861,0.338608947190195
137,1.46740640769869,2.05973172187805,-0.704783965617035,-1.2751391117804,1.46740640769869,-0.0465735190408481,-0.0046423512840184,0.0468043171223817,-0.0280214675635379,-0.0868906326336755,0.0924662338223161,0.0059633108806827,0.0974482118658936,0.0989661626371703,15.4673830211242,0.741398295217471,0.724840880864703,0.17558007609434,0.240158551009459,0.129057429441284,0.377844236393216,0.156185830015265,0.0380497259325626,,,,,1.50463962214456,-118.009747287404,2.13703244011621,AttemptLanding,AttemptLanding,1,0.411101607913751,0.141853987162793,0.168364580724382,0.900689511283613,0.342641142470541
138,1.56325501284084,2.25256824493408,-0.711758145164356,-1.38128965629281,1.56325501284084,-0.0414187733611327,-0.0065472354461742,0.041933054726892,-0.0282686048258998,-0.101947504954155,0.106794371473315,0.0068886073861417,0.121280158472163,0.122944191175817,15.4222138722267,0.88517022389343,0.906891823406577,0.1765637401244,0.240195383308517,0.156678493758781,0.424376018780088,0.15845093911311,0.0363712792109442,,,,,1.62198882751374,-116.427624599585,1.5091383564935,AttemptLanding,AttemptLanding,1,0.441456841659387,0.16278320392091,0.181318481671443,0.8976376424233,0.330365113884986
139,2.63044650977272,3.0,-0.527575946929398,-2.54541122332099,2.63044650977272,0.0050529283698573,0.0045023845353818,0.0067678321208016,-0.023279200647999,-0.337028651219306,0.338634088849755,0.0218642993848878,0.189227800502169,0.192049488115927,15.4182732155353,1.87765457881792,1.87299527445644,0.025214116505466,0.05403257504584,0.130459585046843,0.43496499077216,0.0092628611465698,0.0087449620415889,,,,,3.0,-100.33835635475,1.99343187055646,AttemptLanding,AttemptLanding,1,0.739862300229244,0.0843903045232852,0.0579309960871658,0.957923550042968,0.342017962201403
140,1.56279631885322,2.51131677627563,-0.747803731546997,-1.34570727242641,1.56279631885322,-0.0679025154017976,-0.0042761346312529,0.0680370261348625,-0.0342723184783626,-0.0995652078129757,0.108246234389755,0.0069815320859759,0.157988494918,0.159701503837224,15.4477731460653,0.883479260282257,0.747342941601112,0.176897576583638,0.240179141984657,0.133945612579212,0.387146542188433,0.158674555646468,0.0367136366159424,,,,,1.62484937329115,-117.662804067615,1.78604443441122,AttemptLanding,AttemptLanding,1,0.448685985794971,0.225890557711434,0.219406772673512,0.898737608693383,0.340468616631461
141,1.53797105574768,2.20525813102722,-0.781652498008675,-1.30610769272715,1.53797105574768,-0.0552718440669954,-0.0005066165286193,0.0552741658179779,-0.0349901863865939,-0.0914980459822582,0.100148303121628,0.0064587078283387,0.129489178015817,0.130999345770793,15.4519875992142,0.720140323806275,0.847935754446163,0.175328489611392,0.240174871312922,0.130942904566243,0.393120353983212,0.156190831231936,0.0412135676386553,,,,,1.58700801541868,-119.377240163094,1.93792952787655,AttemptLanding,AttemptLanding,1,0.436325484020206,0.160273189004526,0.180568812485511,0.900015157436606,0.341803153526114
142,2.5157483048635,3.0,-0.544283936731589,-2.42314819114012,2.5157483048635,0.0090917464695586,0.0070979988420255,0.0115343591685073,-0.0250454263922661,-0.318399881188529,0.320603207200223,0.0206925957617268,0.200674651336238,0.202650178144037,15.3282842923703,1.36160366849291,1.40666575906368,0.026180734218376,0.0990347223545891,0.31795349698871,0.698592511996976,0.0102769068282587,0.0089991183725201,,,,,3.0,-102.460692774955,1.9515907850556,AttemptLanding,AttemptLanding,1,0.711396250259074,0.111071263919939,0.0744826791787726,0.965158944531439,0.258687334671684
143,1.47483374863058,2.25994849205017,-0.649947377088086,-1.3077931384958,1.47483374863058,-0.0462819233783478,0.0009252348569523,0.0462911707687306,-0.0246639207434378,-0.0914494617682723,0.0960625883949685,0.0061961483583208,0.119480544487683,0.120927387542148,15.4255337047479,0.949022461758707,0.789628704107035,0.17603238808631,0.240150439464094,0.138091785887607,0.350139385207511,0.155752045505466,0.041003595720432,,,,,1.50542716708844,-115.316950545559,1.80974008821115,AttemptLanding,AttemptLanding,1,0.41747447714325,0.185137531910343,0.195216048925762,0.8983229753679,0.338625872938841
144,2.59542407172387,3.0,-0.544453288078781,-2.50485709939685,2.59542407172387,-0.0157538405111982,0.0187431216569804,0.0244844460893164,-0.0258132837068496,-0.340040628146607,0.342047307688956,0.0220800221687327,0.202571158322372,0.204570594677194,15.3918341788103,1.59559994658558,1.50838081826776,0.0626962495299534,0.240387433606806,0.130717068224533,0.445499603145636,0.0020140077156043,0.0102172400731004,,,,,3.0,-100.955060334027,2.26154010741001,HoldLanding,HoldLanding,0,0.73302720472847,0.0955183989785047,0.0619215139539534,0.944263454939747,0.341903525233541
145,1.61642407490903,2.36819171905518,-0.758085360665811,-1.40517708587249,1.61642407490903,-0.0772229063874646,-0.0193591728721893,0.0796125294487145,-0.0349431600702021,-0.108131674475042,0.116127068353486,0.0074886089674262,0.167726781533819,0.169553303434253,15.4487622221645,0.760856275075852,0.660167255586674,0.175470458680122,0.240224364078991,0.117717754229769,0.434366796984456,0.155939466487614,0.0418698157698404,,,,,1.68254359450145,-116.590495520199,1.97600280996595,AttemptLanding,AttemptLanding,1,0.464957080662592,0.183743350331814,0.194777827301808,0.901099585776162,0.347680998120103
146,1.72875343856206,2.65908336639404,-0.816869393127729,-1.49770025704426,1.72875343856206,0.0069328508664627,0.0060638247457656,0.0092105587063963,-0.0404135277018644,-0.122391307244395,0.13198955549607,0.0085223977727931,0.183606682909066,0.184588558185519,15.4021445850167,1.81978885790716,1.90073960877163,0.0275981997041933,0.0693016703961745,0.124011551326825,0.49723377606843,0.0205479628676866,0.0083161196989804,,,,,1.779143412243,-117.297381887505,1.8054972347089,AttemptLanding,AttemptLanding,1,0.497918628586985,0.211012836191703,0.138764173183118,0.956968176481141,0.344883754965856
147,1.44184805642838,2.17676949501038,-0.71863587928764,-1.23334673865606,1.44184805642838,-0.0546987914186328,-0.0004506763153674,0.0547006480016492,-0.0296684515068095,-0.0816683800016006,0.0886736047964863,0.0057198946249485,0.114592191832505,0.115958373457454,15.4216087674256,0.903653304274397,0.881766415293275,0.176102552677973,0.240162028604907,0.143503137411381,0.385670441757717,0.154922559459658,0.0416140037652047,,,,,1.48754464037965,-118.732441752547,2.4158163199281,AttemptLanding,AttemptLanding,1,0.40768448973906,0.175385775814584,0.189218301365238,0.89792042586441,0.336220827817164
148,1.69503722078091,2.48833060264587,-0.75174374863359,-1.50731975211955,1.69503722078091,-0.0469433438074831,-0.0028656524473403,0.0470307292286278,-0.031721164609922,-0.120137389969829,0.125393719601961,0.0080908701999248,0.111361706910707,0.113305907898508,15.3600208129705,1.058450853359,1.11853122913412,0.176780951847411,0.240214262238041,0.159726113041313,0.46821553921522,0.156757823459999,0.0410269608866164,,,,,1.75445964810256,-115.915142708198,2.09478320377963,AttemptLanding,AttemptLanding,1,0.474671107121279,0.187113311278198,0.196857025394779,0.894504664856706,0.329010616426083
149,2.57900547383222,3.0,-0.602676244612826,-2.47637723427664,2.57900547383222,0.0055198333709669,0.0008934753923185,0.0055916776301856,-0.027622943907179,-0.320192217563129,0.322449283346361,0.0208307312890161,0.205201073103157,0.207754207066005,15.3919529296289,2.35903019895105,2.04432937592959,0.020401807320016,0.055672668684282,0.144796209626908,0.45520984198244,0.0002930639340738,0.0050001573425327,,,,,2.89228411426449,-102.374592577792,2.21901842619301,AttemptLanding,AttemptLanding,1,0.729285634435127,0.0957489092866173,0.0593978352429848,0.955201271108787,0.335646129054707
150,1.51923723308832,2.17365908622742,-0.652820551558173,-1.36116514113477,1.51923723308832,-0.0472257134099075,-0.0151467443964093,0.049595280752153,-0.0242459676223336,-0.0985666635702641,0.102343087567883,0.0066002672632005,0.113598620480953,0.115179673592403,15.4625952611107,0.717952935563347,0.753773534019963,0.175565661780243,0.240178008304357,0.145330226345727,0.404248238218136,0.15606646938716,0.0409142615223474,,,,,1.57055207434036,-114.528428258895,1.80176547292747,AttemptLanding,AttemptLanding,1,0.428165863542033,0.156337385094191,0.178043219620551,0.900653603991724,0.335408788290788
151,1.48472438562636,2.17555046081543,-0.656434035117429,-1.31701073268363,1.48472438562636,-0.0525651615786033,-0.0036688589444476,0.0526930425932961,-0.0249044092004177,-0.0926867508478803,0.097216894900916,0.006270003223375,0.113806403678498,0.115301186529535,15.4488559876884,0.905591084336018,0.610228890882085,0.17569205235696,0.240162052677915,0.140588856561611,0.356876059384258,0.156545425966204,0.0412145726498112,,,,,1.53043490962982,-115.371127707452,2.16925620277926,AttemptLanding,AttemptLanding,1,0.418986740139604,0.165096258059644,0.183620617036859,0.900243959730521,0.337516063750395
152,2.62060160182392,3.0,-0.653007551382529,-2.50732912541119,2.62060160182392,0.0061121785058196,0.0018207863786896,0.0063776162571783,-0.0306863146497738,-0.327257771155155,0.329900938900055,0.0213031648330151,0.195155483311514,0.197756432552876,15.3796920120895,1.95881731257805,1.89863456765991,0.0277348411070586,0.0563347866089951,0.128968961516676,0.454650369929553,0.0211749923215641,0.0046623331083699,,,,,3.0,-103.235441300153,1.69310476335952,AttemptLanding,AttemptLanding,1,0.738378380330286,0.0865338692367684,0.0630268230981231,0.955824028958887,0.942680461548144
153,1.49088291153812,2.34902763366699,-0.709815935015362,-1.29437646794368,1.49088291153812,-0.055917415653514,0.0043070567741536,0.0560830465597549,-0.0293389410269969,-0.0902116644378065,0.0965685957684389,0.0062285909579746,0.132890456464862,0.134325332319201,15.433681987624,0.883834891644613,0.824366856137616,0.175599162253443,0.240176724535227,0.13050215298297,0.408922756078745,0.156209610641111,0.0413381611625136,,,,,1.53053947457772,-117.277382087191,1.86296439174237,AttemptLanding,AttemptLanding,1,0.424433842874005,0.203364454348285,0.206477224831793,0.898778833712132,0.34199904311868
154,2.65324219362587,3.0,-0.644331642549366,-2.54247761398783,2.65324219362587,-0.0209390812514591,-0.0063887870114867,0.021892047029306,-0.0301418652286406,-0.335937125071737,0.338503638449948,0.021848219696188,0.199434784378053,0.201382104064036,15.3723724090412,1.67398513198138,1.37511363059075,0.0630280147221176,0.240343059190147,0.120479025214327,0.477377339090721,0.0018964792707531,0.0083422887184116,,,,,3.0,-102.931426400997,2.06774793262955,HoldLanding,HoldLanding,0,0.747807672446374,0.082034048389551,0.0530968682435887,0.944528788075874,0.34645376657141
155,1.63614630940798,2.37282872200012,-0.769732631169165,-1.43199785891961,1.63614630940798,-0.0374955430850683,-0.0026442089331071,0.0375886630797922,-0.03292002117579,-0.108637395611754,0.114727485843987,0.0074003384564349,0.116577146638553,0.118394187154264,15.4236061046424,0.931826432167128,0.900991835802352,0.176402378986234,0.240187413431763,0.151108025991256,0.473958471411411,0.158228542517694,0.0352178044390098,,,,,1.68981233095603,-117.495671617653,1.63193208285326,AttemptLanding,AttemptLanding,1,0.459984519939648,0.172644797731194,0.186717149654705,0.897398095544266,0.33284087733722
156,1.62868702012958,2.23094534873962,-0.707025960161988,-1.45404239579048,1.62868702012958,0.0027519064440725,0.0002916881886481,0.0027673220044521,-0.0281049031000466,-0.110851720642053,0.115492544395077,0.0074550983465804,0.113691007622309,0.114621831996951,15.4216194185954,1.74498776463684,1.82115392808142,0.0257075327754857,0.0470618539928497,0.124029173088284,0.38945875743501,0.0130276570550645,0.0083400952107617,,,,,1.64682358488304,-115.230680905002,1.93757013757293,AttemptLanding,AttemptLanding,1,0.457240905100612,0.136015466304742,0.0904321114799186,0.959126548883757,0.344875923071874
157,1.68629795592903,2.34691214561462,-0.751844363664668,-1.49750304019933,1.68629795592903,-0.0488491339725657,-0.003953364668584,0.0490088459573624,-0.0319182068080417,-0.118360518226082,0.123833475174665,0.007988025178511,0.108362568879617,0.110359545764941,15.3877876475012,0.958710789303311,0.926133980556023,0.177128986884318,0.240193076748888,0.12424606843128,0.470053375779318,0.155481998437159,0.0408977798905927,,,,,1.69535374865113,-115.407012304463,1.75457737503646,AttemptLanding,AttemptLanding,1,0.471751364067397,0.157623147771441,0.178548919039595,0.896626011937518,0.344779525141653
158,1.61491670801833,2.50670051574707,-0.77017343629423,-1.39409979085776,1.61491670801833,-0.068875433063419,-0.0051734013323949,0.0690694531686732,-0.0360103124988343,-0.106873659055477,0.115694268761463,0.0074636601933697,0.162141181682114,0.163856705578104,15.4082557475501,0.939876221185692,1.06016322802562,0.177529971129534,0.244123036660928,0.162774045081649,0.449270083656419,0.157035728768242,0.0356727735743686,,,,,1.65925020896733,-117.23842078182,2.10251659488656,AttemptLanding,AttemptLanding,1,0.463415796587175,0.21331408981989,0.210754028785671,0.895520418762858,0.327655979963711
159,2.57878847544807,3.0,-0.731499051807189,-2.43561063891448,2.57878847544807,0.0094389089638706,0.0060488149337876,0.0112107611040219,-0.0380137030007644,-0.310248102581605,0.314513894116082,0.0203123090956408,0.215245529896028,0.217671517598218,15.3628534607577,1.93475922240259,2.05409726412697,0.0274788195444401,0.0539971137550553,0.135282705958264,0.474018983978959,0.0208649537529996,0.0083161889887927,,,,,2.88835322200788,-105.56852442763,1.57808241060742,AttemptLanding,AttemptLanding,1,0.731211230305796,0.0968278992265876,0.0703941210382609,0.954919574976476,0.339874352907438
160,1.52181464393397,2.30810880661011,-0.672200185692022,-1.3524039392044,1.52181464393397,-0.0389633335925117,-0.0029337420038214,0.0390736254625333,-0.0256845082817808,-0.0974506000220064,0.10188259960661,0.0065721708254028,0.109656172994895,0.111256429663549,15.4004360495675,1.04453019350234,0.85803086973416,0.177004566863988,0.240199537516549,0.164567045354809,0.463572230788966,0.158731635278581,0.0337534043491683,,,,,1.56544004446909,-115.546181583882,2.12466049259746,AttemptLanding,AttemptLanding,1,0.428068524315101,0.184079684603596,0.193269169437184,0.896549022499719,0.326859090953418
161,1.65260981153322,2.26636385917664,-0.760922775544666,-1.45569476184314,1.65260981153322,-0.047777986091893,-0.0035904875130032,0.0479127076627709,-0.0320674170183032,-0.111991762000162,0.117598322572321,0.0075837056339458,0.107888918382487,0.109759832422469,15.4652817502864,0.719757508371187,0.694213785542794,0.176453063016963,0.240161421393012,0.147980146542937,0.400754605703604,0.158441186803894,0.0363340747969361,,,,,1.70136515468512,-117.053321105748,2.08154624872251,AttemptLanding,AttemptLanding,1,0.462647916226685,0.14687865712461,0.171757890356191,0.900663694039337,0.334231045980917
162,2.57014226116066,3.0,-0.726802874122488,-2.42713377404671,2.57014226116066,0.009109103468934,0.0069898176996205,0.0114818690761424,-0.0376983850354551,-0.307987905847225,0.312209661148325,0.0201608214966504,0.212312569462192,0.21466730911769,15.3848815249659,1.95402792331267,1.9694721614505,0.0203345689940079,0.0517438818704384,0.134745422817685,0.414018986028328,0.0014717069772944,0.0067573705094282,,,,,2.85921158454158,-105.062668776886,2.23089555099641,AttemptLanding,AttemptLanding,1,0.72830473146638,0.0988230005694785,0.0624051179713878,0.959005214837,0.340113145414362
163,1.64949058117093,2.55697202682495,-0.763924437477633,-1.43774879335322,1.64949058117093,-0.0626160479485092,0.0085819208885364,0.0632014147533669,-0.035528864711901,-0.112891195017826,0.120981985153613,0.0078042202074104,0.163452076569841,0.165292352079283,15.4107924293991,1.02722590753233,0.974844096423467,0.176568555456907,0.240217223683071,0.152878455496493,0.43903803643814,0.159020088023101,0.035459382049509,,,,,1.71874998102098,-116.787170824054,1.5,AttemptLanding,AttemptLanding,1,0.472922625394772,0.215770251310271,0.213032066208373,0.895985172240465,0.332054019779337
164,2.46912388129381,3.0,-0.710797513743835,-2.33020303336275,2.46912388129381,-0.003868906401004,0.0081785179107751,0.0090474632884914,-0.0370944889479865,-0.289458891168046,0.293813479654512,0.0189684856383724,0.227554150174512,0.229162115816512,15.3814761966631,1.69200453955873,1.50874685744499,0.0782281352558823,0.24167226241783,0.134196122986195,0.413571004660883,0.0825589351505186,0.119569097161723,,,,,2.64390369362176,-106.697557678757,1.53880757835627,HoldLanding,HoldLanding,0,0.704265458174986,0.121105828311782,0.152836028749138,0.935737171395601,0.340357278672802
165,1.60728009085397,2.34133839607239,-0.689983868738411,-1.43860479939188,1.60728009085397,-0.0409356978952074,-0.0017108943470732,0.0409714354353681,-0.0268227057244803,-0.109108755420699,0.113416169035011,0.0073143441558706,0.101849280240458,0.10368724498067,15.4393318628801,0.825323215982833,0.704125979762156,0.177128774838229,0.24017869645775,0.126243497377928,0.34397768222301,0.159428209467176,0.0354392213917862,,,,,1.65443912380199,-114.70021335318,1.91168742579599,AttemptLanding,AttemptLanding,1,0.449345473223861,0.17267454850396,0.187348700684801,0.899418511757175,0.343891778943143
166,1.67526695281766,2.69446301460266,-0.736430017367037,-1.47982242329446,1.67526695281766,0.0053161785606312,0.0058539808751525,0.0079076448184757,-0.0337677323880307,-0.118896028189346,0.126011942625348,0.0081401916783209,0.179210635037223,0.180171785415145,15.3710628534955,2.16232836770212,2.11320285906768,0.0219865121899058,0.0647566526685531,0.155956758145376,0.47418205850805,0.0036394426022722,0.007207864087701,,,,,1.6985678915868,-115.061450151433,2.14059228901792,AttemptLanding,AttemptLanding,1,0.482772211167737,0.230768848785014,0.142699880802899,0.955413284266142,0.330685885268722
167,1.44197862172449,2.25183415412903,-0.679766632279668,-1.24877545087172,1.44197862172449,-0.0572844291835754,0.0014784772806217,0.0573035053199835,-0.0281964567224175,-0.0865555371354349,0.0933805738555166,0.0060239642518068,0.149781465277632,0.151198413129196,15.3983537530127,0.997894267958209,1.02286650676662,0.176977701916168,0.24017093621939,0.125478202414694,0.473400985496216,0.15888001804282,0.0362943153445807,,,,,1.53242316823457,-117.234742424214,1.5,AttemptLanding,AttemptLanding,1,0.414767315085703,0.192723137433018,0.19944515666475,0.895633742954792,0.344231910037914
168,1.7211384653245,2.35909914970398,-0.854562629954544,-1.48023233433443,1.7211384653245,-0.0476938734092305,1.3187518719316e-05,0.0476938752324274,-0.0404491467950341,-0.115863270087003,0.124392370711354,0.0080241170452705,0.114075116846448,0.116032141632991,15.4052969086763,0.99176992250245,0.948319326449178,0.176037719978719,0.240195443223006,0.136732202082247,0.439015373310147,0.155846042314906,0.0415787731253772,,,,,1.76822611766951,-118.998443980142,2.34584822273275,AttemptLanding,AttemptLanding,1,0.482176685746466,0.152285031111327,0.175755480226083,0.89673758162602,0.33923013240789
169,2.4605296579093,3.0,-0.75934053505337,-2.3092702857058,2.4605296579093,0.006953385544601,0.0053166171445288,0.0087530559459747,-0.0384919197981378,-0.282446760990944,0.286974110840907,0.0185352770570377,0.222427872844729,0.224543020624978,15.3613991423328,1.88221893356239,2.25561589006791,0.0274911581597376,0.055772301583164,0.141283129071748,0.451406129494558,0.018491253693139,0.0078439136812102,,,,,2.66549340284327,-107.193726307889,1.82912030505637,AttemptLanding,AttemptLanding,1,0.701049846234143,0.122985553893835,0.0848619995587424,0.953742861591607,0.337207498190334
170,1.73678538283786,2.76800894737244,-0.778402301109533,-1.52435047427708,1.73678538283786,-0.0692018917054866,-0.0072803430296867,0.069583799912392,-0.0379893481005728,-0.126617998180361,0.135304944786271,0.0087272354109064,0.176650905890535,0.178777049307623,15.4513953598617,0.940948282917212,0.854304918724335,0.176816733985128,0.240222372199256,0.147692404464482,0.3786337807708,0.159026296867468,0.0363807127394037,,,,,1.77840570795084,-115.675983280215,2.10702110399425,AttemptLanding,AttemptLanding,1,0.498898178618288,0.244782332004218,0.230777103452906,0.897486072137395,0.334358931349119
171,1.65022679703348,2.39966893196106,-0.802172011667231,-1.42368434764955,1.65022679703348,-0.0622891575442636,-0.0005032503806399,0.0622911904567549,-0.0369490103780019,-0.108423955693907,0.11667670937151,0.0075257148668721,0.129210274296495,0.130998987539307,15.4198594598536,0.81981089401101,0.942475707157698,0.176017417172513,0.240191029336383,0.168259443377998,0.480310021415778,0.155835827051098,0.0419877792044765,,,,,1.68221562017466,-118.331726157389,2.49230385778407,AttemptLanding,AttemptLanding,1,0.466260276716788,0.180044531942445,0.192555370090815,0.898144753833132,0.325218025165334
172,2.42075759750545,3.0,-0.853009364857165,-2.23046199745129,2.42075759750545,0.0070714635424422,0.0089676713501658,0.0114203645334409,-0.0472178123066376,-0.26408855412086,0.271188046386612,0.0175152839492379,0.219888185421517,0.221930223711563,15.381204915484,2.29545503120417,1.94016658201718,0.0234785594747153,0.0624088870220478,0.142116079565586,0.429579278242299,0.002869201550221,0.0139123297401692,,,,,2.5789773418386,-109.450212225276,2.12997778143965,AttemptLanding,AttemptLanding,1,0.689921404077099,0.132423274059072,0.0857881941208553,0.95498083615876,0.336837297970851
173,1.56576842429654,2.25096416473389,-0.727747810002,-1.37477892957106,1.56576842429654,-0.0511728293552057,-0.0154090165023462,0.0534424574078193,-0.0296214614324651,-0.0996838582176789,0.105043685996563,0.0067745609939932,0.0948873386410547,0.0965827023000037,15.4681964234205,0.770476229978916,0.721805284308272,0.176057515020118,0.240171010263757,0.128429773960771,0.393863661420733,0.156414658069416,0.040277790388399,,,,,1.60572032516396,-117.151648626796,1.68595372466428,AttemptLanding,AttemptLanding,1,0.436854786939078,0.163966825456503,0.182544190314676,0.900246173449113,0.34292010046188
174,2.31242220453098,3.0,-0.750125537963914,-2.15521943540225,2.31242220453098,-0.0192833717025916,0.0010819349627946,0.0193136999946677,-0.0378666918752422,-0.250358935663082,0.255460635325778,0.0164958172816211,0.231973891231758,0.233433062448836,15.37518304249,1.84008760443594,1.61892475637951,0.0627031012726749,0.240302571455684,0.145241801804445,0.469998464993272,0.0018980160463773,0.0098801256511961,,,,,2.36078838964489,-107.709824257803,2.04636523018123,HoldLanding,HoldLanding,0,0.663332533698029,0.158245848979552,0.0993838450390812,0.941470495100113,0.335448088086914
175,1.63651772873514,2.46447968482971,-0.802798585210008,-1.40029533949577,1.63651772873514,-0.0694934132636438,0.0046215969006071,0.0696469212883332,-0.0388676250851552,-0.107091104035106,0.117044686558227,0.007548215180952,0.164181685340726,0.166060405898778,15.4670385087909,0.784066845912034,0.764334141566175,0.176525250931321,0.240206547994093,0.134751176413445,0.405552999363697,0.155831629502919,0.0402617883309554,,,,,1.70036876942666,-118.357386427334,1.76449077301577,AttemptLanding,AttemptLanding,1,0.469616808842459,0.199060042357474,0.203335177717947,0.899571366775582,0.340110588260691
176,1.74782634778166,2.84227442741394,-0.892583310423675,-1.47598623501763,1.74782634778166,0.0070406673691267,0.0019596573658036,0.0073083003491943,-0.0471956507811684,-0.118655330051749,0.131489882119393,0.0084941523840333,0.185186586971008,0.186218619220019,15.3741313342141,2.09507833560167,2.19939226471861,0.027948523750885,0.0572049668162415,0.141355016181716,0.463417964948447,0.0206818592982676,0.0056780977773671,,,,,1.79740384781532,-119.424856454763,1.65562461004319,AttemptLanding,AttemptLanding,1,0.503330749919114,0.247590672981281,0.159811104082799,0.952283469122041,0.337175548363682
177,1.95586989790001,2.66468167304993,-0.99525279495198,-1.66665813021042,1.95586989790001,-0.057680243473747,0.0006063369935985,0.0576834303049024,-0.0549244384811861,-0.147356099568023,0.159812864208744,0.0103082877442925,0.130631465143153,0.133073243669898,15.3895019319559,0.981071678060559,0.934641939904915,0.176964685889292,0.240265495486928,0.111575333970048,0.453409440077797,0.154992374276364,0.0421465281990201,,,,,2.00389774569212,-119.82849383685,2.36342598307941,AttemptLanding,AttemptLanding,1,0.54817995484065,0.17005794496463,0.186246276911351,0.896465621485625,0.350410962679979
178,1.84273814510655,2.58525681495667,-0.992663777992813,-1.53844653815197,1.84273814510655,-0.0501523049241883,0.0001546309855983,0.0501525433049059,-0.0541898949096014,-0.125977859033428,0.139353769445523,0.0089892074241867,0.125138383646979,0.127306930627331,15.4465967572151,0.99294888217072,0.978540273631742,0.176608312167695,0.24022161554378,0.176806752542059,0.42816601987036,0.159275746839421,0.0362441977218863,,,,,1.88108853169074,-121.75609313085,1.98128843482034,AttemptLanding,AttemptLanding,1,0.516858224820546,0.176261333655509,0.18972572927333,0.896205571977705,0.321419221092418
179,2.49833189205182,3.0,-0.657427307090587,-2.37799124146334,2.49833189205182,0.0052372097199551,0.0077259172361061,0.0093337110941979,-0.0316713628552018,-0.298012558211828,0.301132341126621,0.019444974873422,0.214040568328225,0.216385302641059,15.3927054958866,2.11364929133664,1.75027786155008,0.0283333513886437,0.0488235256509944,0.136249515540326,0.424462669366902,0.0211769746733223,0.0061678428151937,,,,,2.73243854491602,-104.018907315581,1.58890677822194,AttemptLanding,AttemptLanding,1,0.709498898408698,0.114586504655609,0.0804067434698621,0.955473896675854,0.339444659759855
180,1.75891888262452,2.62451481819153,-0.894686496941066,-1.4883778819407,1.75891888262452,-0.0644803505354267,0.0038416988383288,0.0645946921591544,-0.0474491703587058,-0.121978576135111,0.134613269110661,0.0086816285847183,0.173487997935122,0.175493466090612,15.4759860226009,0.822878933487504,0.81255406869268,0.17622785015619,0.240260676168594,0.168131213916428,0.392842538370636,0.158510716889419,0.03551302088045,,,,,1.85620598441334,-119.444845846151,1.93686899543015,AttemptLanding,AttemptLanding,1,0.504143728584662,0.206601445731755,0.20732390072017,0.899036244190489,0.325275016037143
181,1.85680343653705,2.64138126373291,-0.9093822240218,-1.59880504912387,1.85680343653705,-0.057840517081814,-0.0013722670952922,0.0578567933199935,-0.0471691843042295,-0.136404845139351,0.146960134924608,0.0094790409434477,0.150985756919555,0.153265862947999,15.4453442874201,0.897813519869469,0.9354278557028,0.175673286929953,0.240246824161575,0.172913217248966,0.448517304186457,0.158360143822243,0.0356671092298058,,,,,1.8944468966032,-118.434379956689,2.47743369557387,AttemptLanding,AttemptLanding,1,0.525800755666146,0.187137089894401,0.195634397981608,0.897759317155527,0.323149681222682
182,2.43338820886452,3.0,-0.455889788949845,-2.3590142217612,2.43338820886452,0.0090187211863681,0.0060070960440234,0.0108361678982733,-0.0193965788595362,-0.294060915727714,0.295403526117822,0.019076564360371,0.220490272005654,0.222795119632702,15.4242736402113,1.97315161926173,1.96964557256445,0.0277152068812084,0.0466909218486461,0.132266162371699,0.460061422053546,0.0199021943421532,0.0060448092681428,,,,,2.61222307005049,-99.3162222201901,1.74695545304795,AttemptLanding,AttemptLanding,1,0.693462546290414,0.129474283786832,0.0887281024408657,0.955163275766476,0.341215038945912
183,1.83192924885142,2.87422251701355,-0.974021028219908,-1.52196050206917,1.83192924885142,-0.084031288344763,0.0121628143779945,0.0849069577506711,-0.0557815161290868,-0.126891343210889,0.143314124376636,0.009242804464339,0.176700788689548,0.178852632815753,15.409908058431,0.840173556899521,0.814674247640367,0.177318284544614,0.240272872857676,0.118677207331295,0.442269701229665,0.15908067044264,0.0352736897739477,,,,,1.87171872539055,-121.350351106356,1.5,AttemptLanding,AttemptLanding,1,0.524284992923529,0.250082260924103,0.233578673032626,0.898338482120594,0.347254574519425
184,2.46584793730317,3.0,-0.257944021800756,-2.42193097334384,2.46584793730317,-0.0110374175868046,0.0190060262091936,0.02197848082216,-0.0110017317939193,-0.322755105802923,0.32329047729907,0.0208734732853761,0.217536316307921,0.219429520157428,15.3773209295898,1.84453194700407,1.50254318432571,0.0625475517460751,0.240494859122197,0.144521582454131,0.431183136017043,0.001983993430209,0.0089240002708344,,,,,2.70378156394852,-95.0700514349474,2.31459214861904,HoldLanding,HoldLanding,0,0.701445353978997,0.124213602257516,0.0786550272199567,0.942427776666514,0.335768185575942
185,2.07436954250207,2.9133620262146,-1.19839906521208,-1.67012674990213,2.07436954250207,-0.0742062652346156,0.0037433009692079,0.0743006197969854,-0.0802705872382829,-0.148627763986061,0.173590325777659,0.01119920190867,0.158395473967469,0.161184838411697,15.4255960965953,1.12744241369424,1.06981573517858,0.177070545519378,0.240283872940269,0.169681688878451,0.427991089008978,0.157567963290125,0.034910739506675,,,,,2.15708888634091,-124.745911655981,1.77200080533538,AttemptLanding,AttemptLanding,1,0.585402179016224,0.202395089131434,0.204162073751646,0.894200556070596,0.324585916054022
186,2.0665914043535,2.85396385192871,-1.12538647048319,-1.71605782922211,2.0665914043535,0.0076577828845246,0.0015400713871221,0.0078111112259364,-0.0689840705646411,-0.154426262823466,0.172173926662866,0.0111175690008265,0.142221424928899,0.143639214407058,15.427403367652,1.81045530800595,2.05076373531257,0.0186963627006255,0.0487820094673011,0.133557869623828,0.446965430122432,0.0006093270336843,0.0065277594844964,,,,,2.10837557196529,-122.363616262261,2.27736657147667,AttemptLanding,AttemptLanding,1,0.579818884042344,0.178590837762512,0.109799045394113,0.960313669023613,0.340640946833854
187,1.91765430569649,3.0,-1.06362062457863,-1.55772799916709,1.91765430569649,-0.0800233922453042,-0.0109791432822423,0.0807730455885985,-0.0739610046914876,-0.145855241308808,0.170646270453805,0.0110050339848787,0.217590680360095,0.218870803469359,15.4826080946711,0.660838585771031,0.849454110151768,0.166176997872704,0.246774741930515,0.25382043526192,0.477737867391301,0.141334614390939,0.0052249340411324,,,,,2.09849345512064,-122.244984043751,2.08799295716948,AttemptLanding,AttemptLanding,1,0.555148642212935,0.258336172909533,0.219717063934428,0.905044915595683,0.287190917661369
188,2.01169116915883,3.0,-1.1338344724142,-1.62731653950217,2.01169116915883,-0.0781849861844242,0.0147287072215861,0.0795602091568254,-0.0746877787395564,-0.14557575223709,0.170378385549809,0.0109918669300311,0.199120679682863,0.201675257043084,15.385443412559,1.12328808985434,1.14937275090671,0.176566749929091,0.240337565778076,0.180746425713379,0.437555626538366,0.156057746625868,0.0401422152519983,,,,,2.08252249604559,-123.526280590972,1.63970703759949,AttemptLanding,AttemptLanding,1,0.576786029850972,0.236955525284681,0.226129482853739,0.893860004143761,0.319668255238498
189,2.50451328403575,3.0,-0.780474932543972,-2.34571953556235,2.50451328403575,0.005359910065357,0.0042709939352384,0.0068534681077217,-0.0412052046110032,-0.290057494139001,0.295160419902066,0.0190587623043914,0.213358273527031,0.215584085459339,15.4080154099319,2.14715774562922,1.69470097257814,0.0278056302386556,0.0674057921880026,0.131939967575909,0.50469430969052,0.0195669357835597,0.0067209462322194,,,,,2.71977714743149,-106.924123588306,1.79499791069771,AttemptLanding,AttemptLanding,1,0.710987026168068,0.112740980245039,0.0787849844989073,0.955911152094757,0.341360014410707
190,1.96165251409685,2.90641665458679,-1.06609833083183,-1.61503475864476,1.96165251409685,-0.0841664943217141,-0.0039127526318248,0.0842573937382648,-0.0674964507849199,-0.142803457484007,0.16360991755966,0.0105528993929541,0.190514298410519,0.193142823467921,15.4594785700328,0.965237447314449,0.954710950344444,0.17650639250472,0.240289855038347,0.195825880357488,0.396380495938188,0.159326412100315,0.0358694161660896,,,,,2.06580628279313,-122.281189709167,2.35423882656051,AttemptLanding,AttemptLanding,1,0.561735901786078,0.228019120462252,0.220666635048998,0.896661494908891,0.312966275396672
191,2.03364574589185,2.78066420555115,-1.00471737928553,-1.75227424749281,2.03364574589185,-0.0495212216773462,0.0082442456884688,0.0502027786421101,-0.055789440769648,-0.161995360692298,0.17359695059366,0.0111964860919509,0.138465021858158,0.141250883834299,15.4567953944299,0.888350783234769,0.913855844606428,0.175471742736385,0.240279835389269,0.163353524688667,0.437570905099883,0.155166911356419,0.0419167600964589,,,,,2.07634549688122,-118.754548572983,2.48324893627962,AttemptLanding,AttemptLanding,1,0.570555709004687,0.177282996174395,0.190575327635495,0.898103933698769,0.327398433471704
192,2.48092501498385,3.0,-0.954129261096621,-2.25802598879529,2.48092501498385,0.0074590241538774,0.0069220833000477,0.0101760640004339,-0.0558256110917772,-0.269424485291158,0.278455424812363,0.0179856359999692,0.208669739774706,0.210830561033889,15.4122309261476,2.03835351393485,2.17396587718583,0.0151020240132003,0.0611690771291106,0.146032902679782,0.496599166752277,0.0001166899261833,0.006482872368864,,,,,2.68099720733185,-111.612146549017,2.46547844360018,AttemptLanding,AttemptLanding,1,0.703746116202471,0.118657483362047,0.0736037603407751,0.959352192777452,0.335096487697875
193,2.07270838750289,2.92429327964783,-1.08544554640577,-1.74278076986463,2.07270838750289,-0.0780201113510783,0.0085785154447969,0.0784903096087108,-0.0665422735603631,-0.161727416336132,0.178840754888925,0.0115358516272639,0.158637693783441,0.161515030259823,15.4442700351048,0.984819512209834,0.987816805945509,0.17635885996618,0.24027434696267,0.179701514808125,0.426303899244851,0.15637240067454,0.0408211449417647,,,,,2.11900443077325,-120.570247299149,1.63102974453586,AttemptLanding,AttemptLanding,1,0.585025242719401,0.205996490827542,0.207940791946861,0.896321284659975,0.320132660085278
194,2.47772211844219,3.0,-0.985332513855416,-2.23952725349306,2.47772211844219,-0.0255993090482865,-0.0030683540709413,0.0257825410007305,-0.0578679648984232,-0.268125488466063,0.278112625846281,0.0179526642191308,0.228620764415513,0.230143233797937,15.4052371321876,1.58245051484851,1.61084618330932,0.0626774877725329,0.240254923156924,0.138734185225131,0.504833697506599,0.0019191530624757,0.0089901505489775,,,,,2.61715863552686,-112.220792726245,1.92189605124945,HoldLanding,HoldLanding,0,0.706754545010837,0.122239322533976,0.0774656960912148,0.943571067771065,0.338340362122164
195,2.00649091141336,2.89426779747009,-1.01569842645348,-1.70716748403194,2.00649091141336,-0.0769077741937278,0.0019413923998481,0.0769322736950079,-0.0585821854971671,-0.155303869414954,0.169588493293243,0.0109385614164452,0.158388902345474,0.160952224534666,15.3951513880906,0.982707041687648,0.938454792405641,0.175449897144961,0.240266344416096,0.14462174380752,0.497347387606983,0.155530542045479,0.0401523046702117,,,,,2.08957514186263,-119.371133784789,1.88739090923265,AttemptLanding,AttemptLanding,1,0.567254687950496,0.213854049540183,0.212037953139551,0.897180208445358,0.33572366941888
196,1.93194985150494,2.76561236381531,-0.90147408302613,-1.69494726152671,1.93194985150494,0.0004768913448114,-0.0014061964807462,0.0014848615751036,-0.0449041747967082,-0.151400950607233,0.159552557152233,0.0103039620388104,0.133368441035844,0.134594552989397,15.3787173718444,2.00892358328392,1.96407466827991,0.0279646799487306,0.0706967681173319,0.128400818275427,0.514289714069229,0.0219904119805934,0.0062176085002866,,,,,1.98818975952798,-117.123132335998,1.76663362607137,AttemptLanding,AttemptLanding,1,0.542105537665862,0.187846289891936,0.12474223891654,0.954801245191919,0.342932969655366
197,1.90002017373207,2.61637306213379,-0.84917761669902,-1.68643293859149,1.90002017373207,-0.0460444493877811,0.0128053227073691,0.047791919913975,-0.0402930433790325,-0.149780223112989,0.156522760133313,0.0100964500913808,0.121534371636867,0.124083148936339,15.4421403016065,0.970826756106221,0.90337366300916,0.175990287314646,0.240303696565571,0.186883118671684,0.421946652410534,0.156659949428181,0.0411089492266475,,,,,1.96491164649544,-115.571452830696,1.65017968729106,AttemptLanding,AttemptLanding,1,0.531488676115819,0.169941251874616,0.186540104124763,0.897278995906771,0.316940836145918
198,1.82899920199368,2.51973056793213,-0.802989917133499,-1.6271286979201,1.82899920199368,-0.0498304443224545,0.0056449375694277,0.0501491625207837,-0.0372356755908287,-0.141499642618434,0.147962882773937,0.0095449336818705,0.13252351655639,0.134959245979247,15.4024202982319,1.00889069970807,0.946806535556418,0.175631744644746,0.240228675688509,0.144960641147709,0.430308530354841,0.156111093982848,0.0390540286604202,,,,,1.88489007794024,-115.359098105949,2.40927305484307,AttemptLanding,AttemptLanding,1,0.514724969727499,0.16460857046496,0.182349315683223,0.896817935114835,0.335573048378796
199,2.46830577355962,3.0,-1.11942096480011,-2.16442707116982,2.46830577355962,0.0097780310710481,0.0068979942910574,0.0119662950350492,-0.0739265912225742,-0.247810107719042,0.263808120634837,0.0170378964992968,0.213872672107203,0.215864258478276,15.390604971087,2.19718462269018,2.00293781683527,0.028137523529185,0.0717030698468577,0.137184578033651,0.485702000725042,0.0223348841242833,0.0060339080208048,,,,,2.68563096804021,-116.007396076949,1.53877136609399,AttemptLanding,AttemptLanding,1,0.701387724644888,0.121825021705511,0.0852157765608564,0.952930276210565,0.339029076429489
200,1.90999486622394,2.7333619594574,-0.828588816033815,-1.69924522608608,1.90999486622394,-0.0723589754485627,-0.0030137363726837,0.0724217090028241,-0.0403134798884347,-0.1531244213055,0.160574541347283,0.0103556506246333,0.1475342289049,0.150014321794279,15.4597629571934,0.845401738871618,0.764142310598459,0.174906823769392,0.240274559183426,0.159074135734148,0.431260093446662,0.156194670613388,0.0405626400114003,,,,,1.97177383483815,-114.893051128023,1.63186407808012,AttemptLanding,AttemptLanding,1,0.539334828685241,0.198534909294712,0.203290850096014,0.899900170583753,0.329300384118156
201,1.81698069056949,2.59137439727783,-0.753008720739524,-1.64113523305165,1.81698069056949,-0.051874283215901,-0.0064372312540429,0.0522721647282905,-0.0320564216693963,-0.142778121632487,0.147467898879662,0.0095135244686552,0.124236445705536,0.126653053122797,15.4131568094217,1.0393378488724,0.949147641536846,0.176947581432033,0.24023485906031,0.143841001720522,0.465338769876952,0.157936229580475,0.0363825093371956,,,,,1.87135485490829,-114.338554000358,2.12160629145425,AttemptLanding,AttemptLanding,1,0.509858794776423,0.183821814209563,0.193716971734626,0.895902394716482,0.33607066590199
