scenario_id,mean_wind_speed,max_wind_speed,wind_velocity_x,wind_velocity_y,wind_velocity,wind_acceleration_x,wind_acceleration_y,wind_acceleration,wind_body_force_x,wind_body_force_y,wind_body_force,mean_wind_body_risk,mean_wind_gust_risk,mean_wind_risk_raw,min_thrust_margin_n,mean_abs_roll_deg,mean_abs_pitch_deg,mean_abs_vz,max_abs_vz,mean_tag_error,max_tag_error,stability_std_z,stability_std_vz,mean_imu_ang_vel,max_imu_ang_vel,mean_imu_lin_acc,max_imu_lin_acc,wind_speed_cmd,wind_dir_cmd,hover_height_cmd,gt_safe_to_land,label,success,onto_wind_condition,onto_gust,onto_temporal_pattern,onto_drone_state,onto_tag_observation
1,2.03674903327021,2.69712424278259,-1.25537963010409,-1.58598744926385,2.03674903327021,-0.0602732910732878,0.0101641849700949,0.0611243018194203,-0.0849844104071676,-0.132480816680466,0.161146638496114,0.0103942623222114,0.124602935879866,0.127333280524592,15.4652170117325,0.908766159112215,0.995312748322375,0.178480933883707,0.240300033056872,0.137808527652959,0.353014582176541,0.15719404404758,0.0406188509069958,,,,,2.0716688985117,-127.374480982322,2.31472368639318,AttemptLanding,AttemptLanding,1,0.568599731643641,0.159790544140513,0.180508837299917,0.89579891307116,0.338751765487574
2,2.29599611496048,3.0,-1.38637279022767,-1.79211998436938,2.29599611496048,0.0101457619177164,0.006486743420934,0.0120421893815043,-0.109100054830259,-0.1742267794031,0.214695551511142,0.0138656402411859,0.229480448076136,0.231127662324857,15.3930910184379,2.04363280350041,2.08435152984938,0.0246772697274068,0.0905793721186927,0.136076266644762,0.442373372748923,0.0001804924802537,0.0078908974421548,,,,,2.42882567996652,-126.095851442396,2.0749319606354,AttemptLanding,AttemptLanding,1,0.6584911631211,0.160608608853834,0.0993148014441058,0.95522720251712,0.339521659268995
3,1.8005977611284,2.56988263130188,-1.11296536465332,-1.3932557748155,1.8005977611284,-0.0621500864300123,0.0175825587894147,0.064589315036167,-0.068776449635379,-0.104543124691772,0.129433396752153,0.0083481653097884,0.151121661616024,0.153351390657598,15.4531396899958,0.713526502164446,0.997652991133547,0.176192249721503,0.24026171852979,0.160936099320306,0.452703372394303,0.159610755596708,0.036984479296139,,,,,1.87319628751653,-127.297520073929,1.8908262203987,AttemptLanding,AttemptLanding,1,0.510829681099093,0.18493047021233,0.195345297288167,0.898458893406193,0.328472844746531
4,2.42909365369052,3.0,-0.711059283500698,-2.28722199758818,2.42909365369052,-0.0338429214898451,-0.0140924548078468,0.0366597956551727,-0.0318810672901703,-0.273279977256354,0.276846771694603,0.01787115526626,0.234615745754346,0.236216659382851,15.4232108972689,1.68596820289471,1.49458737584791,0.0633903503966593,0.240154096723958,0.126354597273314,0.435021876594376,0.0018596169530349,0.0094568367962128,,,,,2.46779887999601,-105.553838771394,1.61543132394041,HoldLanding,HoldLanding,0,0.695001639527377,0.135174890456414,0.0853702804414967,0.943314745254407,0.34384240121186
5,1.80785545706749,2.77502155303955,-1.04949699755913,-1.44021293321653,1.80785545706749,-0.0661832283265296,0.0291970881436041,0.0723373324624771,-0.0641278808190725,-0.115522275756435,0.138008238664012,0.0089021538203145,0.197772204524462,0.200323677133963,15.4485164678613,0.826535262914808,0.935756185833654,0.182714275520711,0.240285795921146,0.194504653872297,0.470730079303327,0.158988275958722,0.0364618315976662,,,,,1.88084050141636,-125.058018224367,2.20869022397994,AttemptLanding,AttemptLanding,1,0.522159523978123,0.230874215878501,0.222444833362452,0.894796286570906,0.313553487167868
6,1.88804043375927,2.64107155799866,-1.04457978856527,-1.55119322629157,1.88804043375927,0.0082422788778849,0.0043095179172991,0.0093009196201424,-0.0608057518394765,-0.12689842657782,0.144393701829767,0.0093230251685207,0.154741797425154,0.155879081476627,15.413314717014,1.83653527566427,1.79448563834151,0.0308336106841877,0.0487894853178818,0.126705409029968,0.453575326104993,0.0211898132549771,0.0058887850340198,,,,,1.9161886291726,-122.783489357006,1.55182119853071,AttemptLanding,AttemptLanding,1,0.534653265297799,0.171137171550887,0.114241374086529,0.956053744619289,0.34368648487557
7,1.92928274902138,2.66875576972961,-1.08026757350082,-1.58162035176159,1.92928274902138,-0.0581194558510337,0.0065271204785455,0.0584848223914693,-0.0639108392646998,-0.132755543496042,0.150323216815039,0.0096968270047669,0.133769922903119,0.136149985995582,15.4236739205307,0.946777717750988,0.99197539157948,0.176190759685276,0.240307742447583,0.173026833802732,0.417488249802483,0.159040753577385,0.0347209693967382,,,,,1.96867067391655,-123.586570068552,2.02569241012728,AttemptLanding,AttemptLanding,1,0.54170539693815,0.17710364709779,0.18957277467976,0.896671560012622,0.323099184976564
8,1.91068959236145,2.65322184562683,-1.10270419128445,-1.54473953366214,1.91068959236145,-0.0400503058224685,0.0138681709866683,0.0423834066939966,-0.0659016669199041,-0.126893106830509,0.145857579608176,0.00940716478327,0.130009947209494,0.132340666993246,15.459893007664,0.872643912868991,0.898467363154288,0.176554010277843,0.240252152388421,0.15764005511159,0.423515074593719,0.161079568918111,0.0352791972748887,,,,,1.96461919299708,-125.030810267647,2.1569775761154,AttemptLanding,AttemptLanding,1,0.535985358028369,0.174840048211943,0.189323747455377,0.897807120549467,0.329937753283738
9,2.61764253900203,3.0,-0.821295224242927,-2.45340714124772,2.61764253900203,0.0082873338652659,0.0063981512916716,0.0104697775786071,-0.0435961583923842,-0.314378528948681,0.31953888934712,0.0206334690399973,0.192098519334769,0.194559358492856,15.399404014737,1.8985786244774,1.95897556399649,0.0295844118972263,0.0722653619462005,0.137243097500716,0.494565080854735,0.0150675402721185,0.0077134676463338,,,,,2.98365709536118,-106.900241715489,1.81909095396822,AttemptLanding,AttemptLanding,1,0.736949882099111,0.0879498879472888,0.0622715146596989,0.954898439713378,0.339003067777459
10,1.88156726473087,2.94424176216125,-1.1398006804145,-1.46728518396132,1.88156726473087,-0.0781794645516708,0.0037111821002126,0.078267499961139,-0.074918706688055,-0.118632066930689,0.146440268283137,0.0094471344278724,0.186663186226936,0.18893430427087,15.4068149601099,1.04768019976625,1.1159376175474,0.176923699794042,0.240286875014794,0.179757661575451,0.431394787711968,0.15877618787845,0.037869264128529,,,,,1.92399487038037,-126.353098118705,2.11097426973184,AttemptLanding,AttemptLanding,1,0.539538131449072,0.25345080358138,0.236408318262756,0.894538295824086,0.320107705966466
11,1.87969186016031,2.5576274394989,-1.16739323066338,-1.45701794591922,1.87969186016031,-0.0465231705977377,0.0113345801399217,0.0478840068228894,-0.0736083549191157,-0.112756401933265,0.137902122426892,0.0088960786631214,0.129560442357027,0.131795248431517,15.4412880094413,0.955667865180312,1.08752694506338,0.176684802737929,0.240239996772586,0.20385329190974,0.476291935512003,0.158248867275807,0.0362193715203408,,,,,1.90759543141243,-127.844704273722,1.51780344425691,AttemptLanding,AttemptLanding,1,0.52761021239572,0.161314239935379,0.180292054414437,0.895603925121978,0.309398536929004
12,2.62676586434993,3.0,-0.789359427267531,-2.47065940197331,2.62676586434993,0.0069910241325402,0.0024577196444274,0.0074104523662435,-0.0417004756729049,-0.31779901299598,0.322672783953674,0.0208363886367856,0.199419204151717,0.202015395629929,15.4108728144788,1.88303035511777,1.96170997805663,0.0237559754585999,0.0538443452816295,0.135965581588642,0.506070433915811,0.0002601234025865,0.0053729704457301,,,,,3.0,-106.299635778902,2.1127847954218,AttemptLanding,AttemptLanding,1,0.740873976285966,0.0853362634550778,0.0532711759090072,0.95791333822433,0.33957085262727
13,1.96329180775462,2.67766690254211,-1.03469898904095,-1.65413901605734,1.96329180775462,-0.0484216277946707,0.0098384633244475,0.0494110250740878,-0.0584319359367141,-0.145027483837851,0.158652730423287,0.0102325371125957,0.134462832537935,0.136973833714327,15.4515790639478,0.830985084444091,0.947114837478947,0.176517682822046,0.240294385584201,0.164326938538668,0.428391198671256,0.15929938951881,0.034593192773108,,,,,2.02726066309477,-121.319262228342,1.84503002609149,AttemptLanding,AttemptLanding,1,0.550939248810764,0.169793084257436,0.185254922056073,0.897770373488153,0.326965805093925
14,2.66522344594978,3.0,-0.741258483931515,-2.52246628074287,2.66522344594978,-0.0306727399839482,-0.006535345374777,0.0313612454677826,-0.0362825465172785,-0.328338515738187,0.332160246488758,0.0214441159874195,0.204574479309637,0.206595950083363,15.3863361406305,1.7855369150334,1.56490534243084,0.0627704210101601,0.24029182941169,0.129445723602668,0.514351916149136,0.0018856049101138,0.0098782886750536,,,,,2.96211416560549,-104.652706865072,2.00358275211662,HoldLanding,HoldLanding,0,0.752045442269948,0.081074286330392,0.0530747233976992,0.942289886043415,0.342468567287703
15,1.75197388110934,2.50018906593323,-0.93789282795933,-1.46558372296345,1.75197388110934,-0.0473661582919098,0.0002113075991168,0.047366629627151,-0.0482046910610066,-0.114396669305591,0.126231077773853,0.0081430897526403,0.130594037267548,0.132572550296703,15.3947930016858,0.975171703639439,1.0566217235723,0.176474944394127,0.240194315000539,0.179379605463308,0.492603025615581,0.158664270663743,0.0374997707987434,,,,,1.78867162897179,-121.8764556945,2.08620455374648,AttemptLanding,AttemptLanding,1,0.493707545021832,0.177032298683686,0.190373113128994,0.89579843658913,0.320275730905197
16,1.76223635514046,2.47571229934692,-1.00117834960238,-1.43654473724844,1.76223635514046,0.0051149910618732,0.0019960826002441,0.0054906720271785,-0.0546736696995078,-0.109095583628394,0.124292509313183,0.0080278561401303,0.125929543374832,0.126953843504746,15.4017130094097,2.04855298093766,2.1046486558027,0.024871821925343,0.054545186037007,0.141610128287319,0.473935113577389,0.0021756186165899,0.0088146027992305,,,,,1.79698325918466,-123.928221238646,2.06935780472361,AttemptLanding,AttemptLanding,1,0.495320463405071,0.161538710651438,0.101095478107047,0.95493179046294,0.337062165205636
17,1.86501323693507,2.56142973899841,-1.01690767382215,-1.53902732091364,1.86501323693507,-0.0520440250555557,0.0086446483515795,0.0527570894677272,-0.0580640495072883,-0.126796931663883,0.143503771491388,0.0092570855629222,0.15483423469447,0.157132172767318,15.4397086691406,0.942185282963264,0.961410617597889,0.17661360573587,0.240248215188755,0.164420130718861,0.451032767268231,0.15908145440761,0.0353562791255715,,,,,1.90606506718967,-122.683382350962,1.61301889995469,AttemptLanding,AttemptLanding,1,0.52876329773615,0.166365846033335,0.18337920501854,0.896736372199085,0.326924386347173
18,1.81361726146416,2.5823450088501,-1.04547741598144,-1.4608420977757,1.81361726146416,-0.0628419349312922,0.0154149739278041,0.0647049473155155,-0.061273583248441,-0.115201994470096,0.134235899023165,0.0086608971567114,0.151546735925743,0.153699902695651,15.3815781202936,1.08369827959617,1.12060486730255,0.177181644909621,0.24024430842966,0.181833645238918,0.46478506792081,0.15576555509279,0.0418298087257784,,,,,1.87952489310621,-124.36494621675,1.84870043299852,AttemptLanding,AttemptLanding,1,0.514371250262907,0.184826316836346,0.19533576523525,0.894089652819557,0.319185046560481
19,2.62767993686191,3.0,-0.78542602739757,-2.47150869121425,2.62767993686191,0.0076292519024285,0.0008653342549771,0.0076781695711638,-0.0416329632455765,-0.317915837451477,0.322780108219405,0.0208428290792838,0.199177162957993,0.201671767040582,15.3853008881838,1.88902311775073,2.02477638049141,0.0169202050406137,0.0676738184926083,0.138692730016167,0.49269798265111,0.000174001355268,0.0056537355192743,,,,,3.0,-106.031594526481,2.3836784968157,AttemptLanding,AttemptLanding,1,0.74104900323796,0.0851796786274498,0.0532410449373352,0.960788615707791,0.338358786659482
20,1.8951659450595,2.74926543235779,-1.02711416142121,-1.57047081794251,1.8951659450595,-0.0769110523266822,-0.0057657308781531,0.077126867060428,-0.0601262609037812,-0.132970163295127,0.149689183225342,0.0096547398776553,0.158102083615873,0.160376801519743,15.4215317689491,0.96530494252491,0.849610080931272,0.175601868264442,0.240282107332997,0.150462046799664,0.39164852655428,0.156082497578853,0.0402075278688548,,,,,1.95533603544456,-121.682915799118,2.24847117466954,AttemptLanding,AttemptLanding,1,0.537452945653149,0.20631231026986,0.207778304310889,0.897939019254909,0.333127979200149
21,1.95696547305262,2.66433525085449,-1.09615964133228,-1.59868195790854,1.95696547305262,-0.0695788587893767,-0.0081252348687007,0.0700516740135707,-0.0670001326095294,-0.136317079212479,0.155937907349912,0.0100605329911282,0.148434036128775,0.150877901997536,15.3067851328441,1.08707120698533,1.138957197326,0.177878537290075,0.24025173255054,0.161319412508199,0.508255942259112,0.158432165606355,0.0365456688957441,,,,,2.01006102178809,-122.843348050567,2.14943296705577,AttemptLanding,AttemptLanding,1,0.552033039880205,0.17200100690791,0.186904234113699,0.893570508178231,0.328302483329689
22,2.62772909135723,3.0,-0.735488376856684,-2.48950181044395,2.62772909135723,0.0078628478464773,0.0014284469917038,0.0079915478516343,-0.0371541150655382,-0.322602481036901,0.326498017652071,0.0210924147749825,0.200744308542935,0.203319831588975,15.4028698877858,2.27260214604625,2.18472719583549,0.0155307529184565,0.0481362419167749,0.146613391915331,0.487891052035225,0.000542076550247,0.0058976742955218,,,,,3.0,-105.373889448931,2.44427106224109,AttemptLanding,AttemptLanding,1,0.741391724013056,0.0852260715507567,0.0535211746764101,0.957212750140272,0.334838492482075
23,1.69063814774456,2.52050590515137,-0.82639101602388,-1.45773675516216,1.69063814774456,-0.0591629563053829,0.0094255329605272,0.0599090650100853,-0.0389088991805404,-0.113837733667249,0.12235778476411,0.0078917729841399,0.141057772795373,0.142935611904139,15.4416556862608,0.883445753487503,0.834094009762559,0.176005614379714,0.240220132100479,0.130848630679452,0.412396617165579,0.155565017304148,0.042113408515613,,,,,1.75191981509009,-118.497538474994,1.59840539264091,AttemptLanding,AttemptLanding,1,0.479423961779376,0.197703574001715,0.203076118824711,0.898502237527464,0.341845053031355
24,2.65165907388384,3.0,-0.579240478478282,-2.55278041518475,2.65165907388384,-0.0096078518168155,0.0041821715859026,0.0104786151617386,-0.0285436549089072,-0.340073420265236,0.342433638670435,0.0221050135876362,0.192772471043964,0.19483428281936,15.3953096338136,1.63084373445961,1.56006203452698,0.077330104759927,0.240965200089119,0.147368040029316,0.432388173896604,0.0929552672745304,0.120228779195519,,,,,3.0,-102.185830974197,2.16378957245457,HoldLanding,HoldLanding,0,0.746075942932895,0.0802977878224555,0.133211680886585,0.936263545149428,0.334503093320304
25,1.62344479658565,2.63529419898987,-0.910638460508851,-1.31864090548203,1.62344479658565,-0.0647765601850893,0.0038245196901332,0.0648893650783602,-0.0523491179332657,-0.101979342687801,0.118631901768705,0.0076503966948793,0.184684975146497,0.185834802988747,15.4795657369877,0.613673987221373,0.726217754920458,0.171869143924909,0.24244211703073,0.235876194985738,0.50719853071785,0.176527769580095,0.005011503457911,,,,,1.79680657025774,-122.144595008979,2.06268304053181,AttemptLanding,AttemptLanding,1,0.470085573020588,0.239562499138649,0.224016650857018,0.903537707206431,0.295166135561894
26,1.84718947546139,2.62833714485168,-1.0305452118821,-1.51129500772975,1.84718947546139,0.0057768971181481,0.0057194686044931,0.0081292595869151,-0.0591805194209169,-0.122090363830547,0.139395343249321,0.0090001774847308,0.160317071320749,0.161425215228273,15.3935151213275,1.81335097100496,1.92416754986828,0.016437153228755,0.0705910611489798,0.126806656842955,0.473250406118728,0.0001810908189347,0.0049274134506966,,,,,1.89015622586425,-123.159855511628,2.39989861995489,AttemptLanding,AttemptLanding,1,0.524868903168693,0.177248589870417,0.10822142544001,0.962415206435904,0.343641485847576
27,1.72766509491044,2.44185280799866,-0.841937908912533,-1.49104728122138,1.72766509491044,-0.0599220111384409,-0.0088822206024339,0.0605767386189265,-0.0407743486718067,-0.119226587831713,0.128084130888011,0.0082608738995283,0.145306241027385,0.147291420088723,15.4409497674168,0.810263258978778,0.855627345025515,0.176536864823985,0.240223446851628,0.140204284083957,0.44814262331052,0.158516852558013,0.0368035577296888,,,,,1.77620387229689,-117.832865156267,1.82076753386262,AttemptLanding,AttemptLanding,1,0.490168975993862,0.171797970858318,0.186913828886924,0.898642427127974,0.337686984851575
28,1.72514755258689,2.37420320510864,-0.967465411700571,-1.40747696350071,1.72514755258689,-0.0624190368531564,0.0029540765880255,0.0624889008557809,-0.0525854095931015,-0.106632082118018,0.122283360647202,0.0078892728917228,0.14376588522299,0.145714161306751,15.384488872608,1.03136044510636,1.10653239774829,0.176661602196023,0.240223398264792,0.137629534325655,0.497056135069038,0.156102102411763,0.0412553720679712,,,,,1.77693740749085,-123.63065316624,1.67106537774786,AttemptLanding,AttemptLanding,1,0.489182179617854,0.157493820307621,0.17887695784684,0.894871469422416,0.338831318077487
29,2.62330597260325,3.0,-0.523589695044893,-2.53802174096625,2.62330597260325,0.0045230698792454,0.0043078632023033,0.0062462666051247,-0.023239924841144,-0.335919044567199,0.337506549791295,0.0217997167743887,0.19413311530568,0.196794840205729,15.3957193326128,2.05339735174077,2.13862102914554,0.0145849662627162,0.0519374843005517,0.140148417648165,0.395098749390437,0.0004118254333525,0.0060033075372697,,,,,3.0,-100.208461528465,2.47032621375285,AttemptLanding,AttemptLanding,1,0.738907227402013,0.0859013050418744,0.0539068374737027,0.959770229590249,0.337711814378593
30,1.85319106482171,2.71076726913452,-0.946840882537283,-1.57357219056132,1.85319106482171,-0.0584032412302731,0.0031953597458531,0.0584905882181645,-0.0509496767712113,-0.132395991775331,0.144700945727255,0.0093340798674095,0.147109502837308,0.149397404124783,15.3838066529408,1.0023554264432,0.973344397459337,0.175888520487074,0.240242518856217,0.130177724344104,0.478441416828001,0.155402612147192,0.0410773995583923,,,,,1.90894849737311,-119.745808657761,2.38423435813788,AttemptLanding,AttemptLanding,1,0.524063764777412,0.203677920477047,0.206211816110254,0.896532383997229,0.342143233624843
31,1.90051340170809,2.66581439971924,-0.95491120580031,-1.62153535165035,1.90051340170809,-0.065165356465102,-0.009004502103386,0.0657845326908514,-0.0524188140667462,-0.141187891322199,0.153800796386921,0.009921050799014,0.157614611218429,0.160028931085969,15.3910111791808,0.895659702488887,1.07436211852788,0.177282527898342,0.240264735960405,0.160681782284849,0.499911992363764,0.158197351941637,0.0372234637949148,,,,,1.95935225919259,-119.13516242978,2.17362978505038,AttemptLanding,AttemptLanding,1,0.538809360006017,0.184253222212498,0.194397672540115,0.895879993171412,0.328585874540067
32,2.61539117468639,3.0,-0.645352563857017,-2.49922788167091,2.61539117468639,0.0062666326767443,0.0025900136909118,0.0067807710493977,-0.0314636097388038,-0.325341522919784,0.328315416782218,0.0212035886478923,0.202030077456863,0.204641947168723,15.3802728312237,2.13924963188829,1.85107532956412,0.0285593756479429,0.0575101249351389,0.140069255821574,0.482916469600893,0.011479027826165,0.0059180068237813,,,,,3.0,-103.01941117063,1.88614201020635,AttemptLanding,AttemptLanding,1,0.738366036016783,0.0877801270546177,0.0599218688591079,0.954367758907474,0.337746997412634
33,1.88770970541078,2.66899991035461,-0.830998124365568,-1.68218829465783,1.88770970541078,-0.0534647278202883,-0.0062399104533256,0.053827628624741,-0.0388242484386316,-0.149427114521566,0.155637014914047,0.0100399797254151,0.131277346246732,0.133806639087676,15.4278666084477,1.04730903516784,0.956212865373591,0.176490207043501,0.240256404206971,0.146306518466806,0.420371626616354,0.159481333990503,0.0357961792870195,,,,,1.93692079365451,-115.089103932968,1.71691577965491,AttemptLanding,AttemptLanding,1,0.530150582593742,0.185658694693566,0.195292602168814,0.896012938688281,0.334974880681419
34,2.67474509652068,3.0,-0.567642326565254,-2.57860429272349,2.67474509652068,-0.0239652214708212,-0.0102430691306151,0.0260624692874652,-0.0255944213281044,-0.33967750580355,0.341727525740988,0.022061910737925,0.204158484332987,0.206160975987112,15.3802064902493,1.84648739803309,1.47769761659775,0.0635460673358205,0.240242020244178,0.130551219491333,0.458188520423739,0.0019218719867866,0.0108565844405706,,,,,3.0,-101.157933097739,1.73746580713027,HoldLanding,HoldLanding,0,0.754497554269604,0.0779604726522157,0.0515782978062704,0.942108369788562,0.34197723578163
35,1.79796252218453,2.53245091438293,-0.80207807855074,-1.5957274255301,1.79796252218453,-0.0519948932579692,0.0015436692648081,0.0520178031034253,-0.0360792361739335,-0.134383468527441,0.140536625359514,0.0090644304106681,0.125507861729491,0.127736569970205,15.4124403466902,0.888445272659598,0.834903796062886,0.177296405819019,0.240211662400576,0.13886736260091,0.477249223423885,0.159220076493642,0.0340782817680795,,,,,1.86137587595629,-115.841095627455,1.641933217398,AttemptLanding,AttemptLanding,1,0.505003986576581,0.17479648548027,0.1880344721909,0.897811197264814,0.338281172177373
36,1.9735090876104,2.76882076263428,-0.880352700664134,-1.75173372887214,1.9735090876104,0.0048159100324806,0.0034843896989977,0.0059442376311374,-0.0432527032248912,-0.160470204023255,0.167814219171738,0.0108363388223332,0.134370045901626,0.135694657024799,15.3888050704642,1.82673877081802,2.13430863571154,0.0269673690848538,0.0515874702688317,0.136988239308855,0.429712118206624,0.0100239739410533,0.0066352408070875,,,,,2.00134863438598,-116.022448666907,1.9445474427606,AttemptLanding,AttemptLanding,1,0.553408021434401,0.180034903779413,0.114888856635946,0.955393800120555,0.339116338084953
37,1.81362760791907,2.51924061775208,-0.809390593281028,-1.60881460316518,1.81362760791907,-0.0495066084645503,-0.0020386290811872,0.0495485649660306,-0.0366135805486743,-0.137048497636848,0.143321230817146,0.0092432962075454,0.124442570076407,0.126708379068591,15.455808205753,0.779359183457367,0.794921103192318,0.176784283606896,0.240234254368858,0.146873739052436,0.414427249461752,0.158849516330287,0.0373212530422661,,,,,1.84847057739295,-116.145839673518,2.39708181089348,AttemptLanding,AttemptLanding,1,0.508975704592138,0.167846830789531,0.184879248252044,0.899238513087162,0.334722782643362
38,1.94604496939762,2.72864389419556,-0.774143175863022,-1.76669106557022,1.94604496939762,-0.061041364485326,-0.0112603968615662,0.0620712873695269,-0.0352257256904767,-0.166024505385437,0.171388941496357,0.0110555689757137,0.149890117271989,0.152507760226779,15.4279920608829,1.08203854222101,0.915437618870054,0.177371682885904,0.240288339134936,0.169115822029063,0.41207203988318,0.158315541352514,0.0351018172792233,,,,,1.9993932608471,-112.620106358339,1.86159363148323,AttemptLanding,AttemptLanding,1,0.549446877218055,0.187464494097282,0.195605456474153,0.895619703005618,0.324837412431528
39,2.60943917566319,3.0,-0.621508707118319,-2.50089803432421,2.60943917566319,0.0064329950695891,0.0033487631710009,0.007252423066866,-0.0293551248493987,-0.326905905793381,0.329394621282784,0.0212729987108125,0.200495636910777,0.20305324013082,15.3849744358843,2.14929305594358,1.94201986750708,0.0219668227307871,0.0513972586562915,0.13308898861993,0.430313497824176,0.0001947469887892,0.0084302632600081,,,,,2.9987372183553,-102.731971335258,2.18898918901674,AttemptLanding,AttemptLanding,1,0.73646109486968,0.0892057963713753,0.0566755823164315,0.95687055852178,0.340849338391142
40,1.8978808481951,2.90522623062134,-0.298383929355687,-1.84822576317501,1.8978808481951,-0.0671781248483529,-0.020377274734674,0.0702006679722727,-0.0099844830819361,-0.184722080893806,0.1853262618314,0.0119544713367459,0.18564222061625,0.18848780501006,15.3576558628123,1.16700930608219,0.771102525626729,0.176892488862641,0.240313559597839,0.152181877906281,0.474358541906628,0.158422436708898,0.0350527862690091,,,,,1.96262077332345,-97.9255988407311,2.18485863492133,AttemptLanding,AttemptLanding,1,0.543799120520706,0.239522833507486,0.226870139709298,0.896325734033824,0.332363609819431
41,1.88928051252623,2.64635348320007,-0.260518392771242,-1.85878584900796,1.88928051252623,-0.0521296774859595,-0.0192402718763848,0.0555669986292886,-0.0062141458130212,-0.181178002962483,0.181405688175114,0.011702926835999,0.121433040328427,0.124544613075005,15.4338888518133,1.17153570658816,0.769679621573799,0.176820873017992,0.24021294485391,0.144717145871932,0.445752024647417,0.158544649347363,0.0358699429614986,,,,,1.94919332297993,-97.076725643542,2.45927299322254,AttemptLanding,AttemptLanding,1,0.528717059288662,0.180528701483651,0.191825125111382,0.89633715734116,0.335681268501364
42,2.61367923878507,3.0,-0.624165965497557,-2.5025431464659,2.61367923878507,0.0084035982816282,0.0070729991345958,0.0109839783701981,-0.0299169712260391,-0.326265148644696,0.328864051557027,0.0212375244010087,0.198885809560953,0.201397526791584,15.3894618151513,2.02306891509657,1.99386626995348,0.0275999913476928,0.0551837791473384,0.12760725322384,0.44451204661462,0.010024552755289,0.00815516820377,,,,,2.97766096785849,-102.83550377438,1.92107951223799,AttemptLanding,AttemptLanding,1,0.737260635701002,0.0889359006412287,0.0607824128753275,0.954638370729332,0.343285665233849
43,1.83184212687853,2.5604887008667,-0.235411821953669,-1.80468129673403,1.83184212687853,-0.0405131109243235,-0.0268390634546466,0.0485967847073146,-0.0052731436279401,-0.17123397959753,0.171406385810799,0.0110592227267886,0.121112590049657,0.123985304467,15.4139521010842,1.17578740953806,0.913004340164872,0.176823120616832,0.24022190671121,0.142304973325155,0.453950697124537,0.155765736039512,0.0398630358237407,,,,,1.87761184680711,-96.9149867627548,1.76871481543753,AttemptLanding,AttemptLanding,1,0.513288294727675,0.172854889677012,0.187437799214219,0.895176504515347,0.33675334518882
44,2.54883252466803,3.0,-0.643711540736893,-2.42620171000107,2.54883252466803,-0.0356031484224185,-0.0131162559931061,0.0379423292493418,-0.0278846242882591,-0.304314781226565,0.306952978762912,0.0198151409585645,0.223102004236436,0.224911552292037,15.4023503167294,1.80072206280165,1.43483538898268,0.0633197584260406,0.24040822880748,0.128107760533338,0.419728057706402,0.0018269144765855,0.0088094981714241,,,,,2.70268226585959,-102.84402520654,1.59771313375512,HoldLanding,HoldLanding,0,0.724670983703216,0.108468775645405,0.0690966812573545,0.942917883665817,0.343063217540739
45,1.70883691310883,2.40457844734192,-0.256258163324539,-1.67897123376197,1.70883691310883,-0.0401492545217273,-0.0196573632710733,0.0447031829898205,-0.0054911539922711,-0.149014038729151,0.14920316236571,0.0096272640249268,0.130042041655549,0.132548168843467,15.3288807768647,1.15629757447808,0.968226590348038,0.177480404711566,0.240207587316067,0.168176135155274,0.5139408822797,0.157567636508677,0.0349460179726981,,,,,1.74484723470437,-96.8322370152764,2.3871475472547,AttemptLanding,AttemptLanding,1,0.48219947726438,0.16473742875058,0.181580160820034,0.894567107777726,0.325255051042101
46,1.66301828443406,2.58818864822388,-0.233479641773435,-1.62316726115992,1.66301828443406,0.0049894296419677,0.0053913570895895,0.0073458246248882,-0.0069877830531215,-0.142241673764801,0.142650298450269,0.0092076300881526,0.175457203128487,0.176610203035602,15.4047063878844,1.8308109654682,1.62670920555224,0.0296937367183444,0.0521368422026157,0.119129795583771,0.376007776300454,0.020897377878035,0.0046440976776517,,,,,1.71876069037497,-96.5690723186371,1.52227182751565,AttemptLanding,AttemptLanding,1,0.47879358312287,0.209510066367272,0.136682526113585,0.957986901725667,0.347053424184991
47,1.77944168770635,2.55923223495483,-0.141264990331273,-1.75503190077993,1.77944168770635,-0.0545158084633351,-0.0029729440101141,0.0545968109737035,-0.0034534430098444,-0.163045941459815,0.163187025580035,0.0105250373896415,0.130990125394809,0.133719717652021,15.4499645435146,0.881342039409003,0.69536833259885,0.176082977206534,0.240238976720135,0.126377992079397,0.398147248860212,0.158038617039859,0.0350453318729819,,,,,1.8330973949862,-93.5355183886098,2.31677814914561,AttemptLanding,AttemptLanding,1,0.501261726918765,0.185462288476087,0.194260515481421,0.899570072759528,0.343832003520268
48,1.60702004095521,2.30136895179749,-0.201728090643085,-1.58344013258618,1.60702004095521,-0.0300962108283284,-0.0319382711760112,0.0438843374330253,-0.0043395569008238,-0.14189911806911,0.142040437874623,0.0091612464326667,0.132276076989329,0.133538185361213,15.4581020404003,0.766116559243204,0.870148945141406,0.170149004242735,0.24564196273619,0.238676228523807,0.518505096613903,0.126185276504504,0.0050922718475491,,,,,1.76093856199151,-95.8152911333806,2.41165111386122,AttemptLanding,AttemptLanding,1,0.455246314660298,0.164273966802234,0.156498460411744,0.902069126058468,0.293921676211641
49,2.41614451744412,3.0,-0.607775974634283,-2.30947817932916,2.41614451744412,0.0097577667310733,0.0051543073985959,0.0110354382032279,-0.0284507011311077,-0.29875962497609,0.301336159707606,0.0194473623007326,0.194923055936497,0.196455660128989,15.4367282457739,1.47841713329857,1.32716869486195,0.0284702655163386,0.0626937483060761,0.123828296110492,0.376716774476919,0.0255582475452822,0.0067274168547158,,,,,3.0,-103.690253195533,1.7282092735785,AttemptLanding,AttemptLanding,1,0.683596336677564,0.133390647245664,0.0938399428803497,0.963720978591998,0.34496520172867
50,1.66641374778103,2.3368878364563,-0.141909433796095,-1.65043835431091,1.66641374778103,-0.0324521866406245,-0.0140772162377602,0.0353738948203699,-0.0026526910440075,-0.143183169835703,0.143250847203021,0.0092422049186867,0.111419648005001,0.113879010050253,15.3890285694507,1.13180788232198,0.835366228520051,0.176567783006584,0.24019211717295,0.174692817295533,0.462680159414496,0.158340073216971,0.0345861688330819,,,,,1.72627812567413,-94.411640590645,2.29065068241169,AttemptLanding,AttemptLanding,1,0.467152801418326,0.157341884002336,0.177355284942186,0.896259740482949,0.322358747868652
51,1.60629939549678,2.32508873939514,-0.140150531888322,-1.58881575500392,1.60629939549678,-0.0422837134411118,-0.0239672036417605,0.0486039018266608,-0.0027109126719318,-0.134104157918488,0.134180670964053,0.0086548826106852,0.118556517368089,0.120854156869348,15.4551285236775,0.939455811168144,0.688846828257374,0.176787380410371,0.240162614869964,0.167953001005239,0.398056036341397,0.159175211466777,0.0361694253477868,,,,,1.64198518080473,-93.7945426045898,1.76589848005765,AttemptLanding,AttemptLanding,1,0.452517336839678,0.170638317712019,0.186280047365176,0.898812503342186,0.325354221775449
52,2.63390653109471,3.0,-0.639232969813814,-2.5191456048329,2.63390653109471,0.0062818857409753,0.0017260612674214,0.0065147045951111,-0.0311771182068502,-0.329681066747186,0.33250060115164,0.0214684931077149,0.195211964280525,0.19784915875008,15.3710566180401,2.06757120936306,1.54176455121887,0.0287432602072087,0.0562740059636815,0.136583665052513,0.365724625517758,0.0228980836276982,0.0127336578432982,,,,,3.0,-102.899260755177,1.62815781025866,AttemptLanding,AttemptLanding,1,0.741944906708605,0.0835653930127945,0.0649465828983581,0.957269303206109,0.33929614886555
53,1.70370200840203,2.45015263557434,-0.129229379274054,-1.6877579054934,1.70370200840203,-0.0391696597851536,-0.0241651503910739,0.0460240887048065,-0.0024336156199539,-0.15038516473314,0.150447066434338,0.0097049919988531,0.107997058070644,0.11043024106679,15.4285318042814,1.12536953196677,0.732771849649278,0.176511192917732,0.240197186489374,0.146214949708327,0.396480530937607,0.157717582216645,0.0375840676248633,,,,,1.76767167051157,-93.7767495596924,2.1711629266161,AttemptLanding,AttemptLanding,1,0.476406583787231,0.176389140709652,0.189597121314957,0.897144721257008,0.33501557790741
54,2.60095783496839,3.0,-0.522208997118524,-2.51403286337177,2.60095783496839,-0.0037032059364525,0.0144514698637966,0.0149184019061024,-0.0254245891945497,-0.337569624457661,0.339483418440674,0.0219162816230269,0.197591179010515,0.199540862449849,15.3971602725955,1.8475875484743,1.44311282654949,0.062943250027913,0.240452460612554,0.13325956384411,0.400632560480521,0.0019057532762474,0.0076622768196607,,,,,3.0,-101.106544404973,2.41806220339823,HoldLanding,HoldLanding,0,0.733496928481541,0.0925195274815642,0.0591450004249251,0.942672872039428,0.340773527180396
55,1.62299228640827,2.36531829833984,-0.147503852262604,-1.60053005658066,1.62299228640827,-0.0485533362457244,-0.0082665859881601,0.0492520345213274,-0.0033406403002401,-0.136377515553694,0.13650220520166,0.0088032311761549,0.129650539538828,0.131881048693293,15.4686135980893,0.767908492091501,0.637599031287727,0.176431703090937,0.240184315782064,0.12837937642602,0.360802488391128,0.158744849023259,0.0367090578961181,,,,,1.6954412846166,-94.4207914550518,1.60269275619023,AttemptLanding,AttemptLanding,1,0.459174152780864,0.176052892346848,0.189533749966529,0.900740875056552,0.342942499366213
56,1.68893473881942,2.67755007743835,-0.103647636854066,-1.66235084520769,1.68893473881942,0.0037584421399209,0.0108872872550386,0.0115177650216029,-0.0028048083312209,-0.149372829480348,0.149536082485781,0.0096551819802767,0.180142433062481,0.181377917331324,15.3933829574764,2.00343917489106,1.94281939770345,0.0179600242376015,0.0591369230742394,0.128982893126766,0.462082175754269,1.27082438299527e-06,0.0091091315287935,,,,,1.73280982852964,-92.1431804697514,2.32938714234478,AttemptLanding,AttemptLanding,1,0.486658180484776,0.224550041443222,0.138043001141786,0.9600136705251,0.342674269721437
57,1.56848511663643,2.22991108894348,-0.186454992186125,-1.54267926691133,1.56848511663643,-0.0481853700812934,-0.0209515753611519,0.0525433002388053,-0.0041402787641256,-0.127941412373646,0.128100091391044,0.0082618636073146,0.13133239098832,0.133454837395606,15.4587899016283,0.878337470534408,0.611950077346517,0.175674337417815,0.240193149342543,0.12640577298126,0.360570304814187,0.159953565135067,0.0346697725117496,,,,,1.65239533729994,-95.8334835366937,1.89156884391153,AttemptLanding,AttemptLanding,1,0.444953665248836,0.158453782146201,0.178769932685356,0.900453429129171,0.343819656452773
58,1.63170586296376,2.3507924079895,-0.106950984210884,-1.61656767260699,1.63170586296376,-0.0407132505522029,-0.0222495242145265,0.0463962293543263,-0.0019715118840738,-0.138151818037754,0.13820419677737,0.0089141290326808,0.118818374934351,0.121079473199027,15.4586751505703,0.976440877426066,0.62490828761887,0.175105458703857,0.240189443092959,0.146188546848258,0.370194914801308,0.156200969485524,0.0419343309513009,,,,,1.68060545220575,-92.4282145747537,2.33542505083498,AttemptLanding,AttemptLanding,1,0.459337458096808,0.170300448012418,0.186851769530783,0.899865241494147,0.335027312511885
59,2.51699829541597,3.0,-0.51072161497974,-2.43479616477789,2.51699829541597,0.0054653515322519,0.0062042623881939,0.0082681883839597,-0.021994695476889,-0.312227341743329,0.313740364874307,0.0202622535286851,0.206876057022754,0.209297598400575,15.3859596223681,2.15010109055642,1.91768565644702,0.0215883594784193,0.0510288205755668,0.134662664470233,0.358924998665189,0.000193625977803,0.0057230025048672,,,,,2.78982386220964,-100.41262924442,2.19368903802794,AttemptLanding,AttemptLanding,1,0.713059065124373,0.110191218068467,0.0682818786511663,0.957244638677192,0.340149926902119
60,1.65045654053656,2.32362079620361,-0.0788094870295933,-1.63851326897127,1.65045654053656,-0.0394925883111971,-0.0280303081861703,0.0484289449454496,-0.0013655340676046,-0.142472309944314,0.14250708981,0.0091903607256679,0.119171949965318,0.121648003828386,15.4738066628747,0.853871131368799,0.533086413830337,0.175614981714285,0.24018482835323,0.135679901393557,0.372304811897077,0.15507833609336,0.040004916027712,,,,,1.72864210057146,-91.9462754292346,2.00231533138829,AttemptLanding,AttemptLanding,1,0.46445134490876,0.160340597431753,0.179675305581329,0.901294985573436,0.339697821602864
61,1.59229642756887,2.23896598815918,-0.192458557127909,-1.56490334032397,1.59229642756887,-0.0490105494254294,-0.022319935950117,0.0538536302936003,-0.0043683466796305,-0.13079140037913,0.13097461169711,0.0084488028183298,0.127508767697367,0.129613892140428,15.4083934454805,0.968626692483641,0.811296404203033,0.177015910775418,0.240186539727372,0.166551428220878,0.454891235936482,0.158555471337069,0.0359324793674529,,,,,1.6541677253945,-95.777639022521,1.92871893308803,AttemptLanding,AttemptLanding,1,0.450535159113119,0.155373816686646,0.176759744517637,0.897506934566896,0.325977143012943
62,2.60430640161636,3.0,-0.530781479818939,-2.51810435265812,2.60430640161636,0.0100136143813656,0.0052253439975814,0.0112949852975447,-0.0234649901771369,-0.331094144857397,0.332720285472612,0.0214869942845266,0.195327714646058,0.197973537956138,15.4072813469905,2.11457628480758,1.85683239300694,0.0240348772395858,0.0632116578673869,0.131055729179652,0.455800258310201,0.0017762202124177,0.0059962147484105,,,,,2.96888331606625,-100.576107342626,2.07972579826547,AttemptLanding,AttemptLanding,1,0.734076414688922,0.09110180694087,0.0576309570967357,0.956778636054522,0.341753009253488
63,1.54391152633203,2.24492454528809,-0.0895538289178842,-1.52656946952974,1.54391152633203,-0.0411458633550227,-0.0394624967859195,0.0570111456103884,-0.0018812758221889,-0.124147351751248,0.124218014029111,0.0080122014272996,0.124355520290169,0.126456233348112,15.4101568228435,1.02593977903643,0.664520664722035,0.176543075353154,0.240161142972948,0.13540129626798,0.403674394405363,0.159335906278612,0.0350471352778185,,,,,1.60300708299886,-92.1234906695166,1.69281341851651,AttemptLanding,AttemptLanding,1,0.437000987024831,0.168179972627017,0.184468354750557,0.898446273122464,0.33982164610312
64,2.66510246120966,3.0,-0.633125971580809,-2.55367137883877,2.66510246120966,-0.0230368790393408,-0.0025417845410196,0.023176679324834,-0.0297716475416229,-0.339593549734326,0.342158263447402,0.0220934670184955,0.204866296257993,0.206914946264726,15.3750577068884,1.85299563768562,1.6124609650467,0.0630568126457936,0.240297750469349,0.142403963063906,0.388835232339186,0.0019041910825808,0.0074656298868499,,,,,3.0,-102.201792877698,2.03472558064467,HoldLanding,HoldLanding,0,0.752076978908856,0.0796010041040452,0.0513216841145499,0.941243006084206,0.336709349749375
65,1.52573418297224,2.06948661804199,-0.140457772894105,-1.50822917123551,1.52573418297224,-0.0399053295447002,-0.0164732125567424,0.0431717738575882,-0.0025322753494501,-0.119692559111815,0.119767187354804,0.0077242866677292,0.104860995605991,0.106841613810334,15.4553281773219,0.834959240435642,0.637590663421795,0.175186044544987,0.24016450503646,0.144593878654237,0.388947121438095,0.155827727123211,0.0424931524395646,,,,,1.55228808798252,-94.2268777224065,2.38780536618694,AttemptLanding,AttemptLanding,1,0.428230771554663,0.13025912309792,0.162864296901637,0.900836942768627,0.33573605393145
66,1.59820532918375,2.18477845191956,-0.119880808731585,-1.58336416385301,1.59820532918375,0.0034750757403727,0.004302350498647,0.0055304946627345,-0.0021529283359798,-0.130828242403618,0.130884915767687,0.0084482659135625,0.105679720521819,0.106706121456373,15.4041042206743,1.80622930786551,1.56000068204596,0.0252061622325167,0.0464119007802411,0.118293431133183,0.420652418344779,0.0092182291984582,0.0052218146496692,,,,,1.60696450398557,-93.5145725727472,1.98272161823013,AttemptLanding,AttemptLanding,1,0.447529312073608,0.132992876637057,0.0857915584278936,0.960947968963009,0.347425141718586
67,1.63224314403214,2.54258894920349,-0.116097117182797,-1.60242555999152,1.63224314403214,-0.067338126688507,-0.0247962001460016,0.0717584479179838,-0.0031313407094963,-0.139507243498523,0.139698529885436,0.0090113176551499,0.169572721599466,0.171730895523326,15.392785203566,1.05652922477113,0.804184799598262,0.175556936110821,0.240213889872554,0.151175428885315,0.40379349933876,0.156021977190438,0.0415169699109823,,,,,1.70472744872138,-93.0615211949791,2.09006983828185,AttemptLanding,AttemptLanding,1,0.469611017513236,0.217983521615185,0.215230293910268,0.89760163603883,0.332810920495416
68,1.60947998552709,2.32724261283875,-0.135519325417332,-1.5933930230406,1.60947998552709,-0.0393834943737774,-0.0185490067526074,0.0435330366572059,-0.0024548869394722,-0.135088174142716,0.135156522295172,0.008716611494428,0.115746521382258,0.11787756843333,15.4244121844564,0.852084001302679,0.569595940846641,0.175859251611702,0.240180366680131,0.115257718968256,0.446342356335044,0.156506552814441,0.0426638412691978,,,,,1.6346567991892,-94.1375227104005,1.52254501546704,AttemptLanding,AttemptLanding,1,0.45277017649389,0.16947764786561,0.186759180734786,0.900900031791547,0.348774347125219
69,2.61159852476024,3.0,-0.401327971103206,-2.54968423911392,2.61159852476024,0.0061137528930037,0.0080423348298263,0.010102332599541,-0.0165155095716388,-0.339547355041933,0.340436129963843,0.021978165662218,0.195934648901016,0.19862020405489,15.4045783988142,1.91560476954393,1.67647439215125,0.0250023924942712,0.0490028388108591,0.124731280456822,0.376360053847357,0.0073359387761179,0.0059134166062353,,,,,2.97762147861884,-97.4745863886534,2.02641562257694,AttemptLanding,AttemptLanding,1,0.736150314080376,0.0892424262388612,0.0589562062885052,0.959275324625259,0.344563875352524
70,1.70687548986217,2.33532524108887,-0.0863994240030241,-1.69296458723492,1.70687548986217,-0.0452818700332314,-0.0203456857525358,0.0496426699770207,-0.0014261528360236,-0.150827265787085,0.150866346364252,0.0097316197344459,0.110391456633067,0.112795033775792,15.4358944865835,1.0542570812067,0.68716361764166,0.176043783396363,0.240233674471268,0.188874135996866,0.408164662387853,0.156547270437829,0.0405147788295078,,,,,1.74106956136438,-91.9626622500687,2.11564482725313,AttemptLanding,AttemptLanding,1,0.477725804051738,0.15050235018846,0.174610621599205,0.898295517096581,0.316055939556948
71,1.67404364780946,2.56349754333496,-0.222765888485468,-1.63730037520206,1.67404364780946,-0.0852032184650242,-0.0182340031094156,0.0871324698731352,-0.0063319917250884,-0.145633091653609,0.145963359490897,0.0094144904504277,0.170907750596056,0.173008641600952,15.4271875364178,0.924515628749137,0.69096965479218,0.185112800695377,0.240210889641356,0.124487500272228,0.43331308660615,0.123493449328557,0.0049871348414916,,,,,1.67774962146967,-95.9395937551425,1.84147003411992,AttemptLanding,AttemptLanding,1,0.481013367736047,0.216101412636645,0.18636032864007,0.894750500995915,0.344672222101232
72,2.45387846642527,3.0,-0.522931255973937,-2.36536822719293,2.45387846642527,0.00073013234702,0.0132616004392431,0.0132816843605884,-0.0237672062260474,-0.310288821179971,0.312217229465002,0.0201424899593531,0.20352888647281,0.205242999468154,15.4446093864503,1.23475818329003,1.04303935136621,0.0242320065133513,0.088163588755427,0.35013159559515,0.675414449411928,0.0146305041919268,0.0108211075422911,,,,,3.0,-102.28205700878,1.91605118823421,AttemptLanding,AttemptLanding,1,0.69541619094037,0.125312320520422,0.0856247868169729,0.969987016113882,0.244385957513267
73,1.68322032327588,2.27556967735291,-0.170810144812525,-1.66386460008377,1.68322032327588,-0.0384490705731231,-0.0119944889177096,0.0402765290502305,-0.0031119913031272,-0.146252966225313,0.146335906740393,0.0094432110205541,0.117376837904608,0.119739216678854,15.3437963299702,1.23943709784843,0.972698146561941,0.177050494559205,0.240187164599264,0.14828345038158,0.461132691121344,0.154751794153641,0.0413767330224123,,,,,1.730743683828,-94.7490683234343,2.20604405432193,AttemptLanding,AttemptLanding,1,0.472806596209338,0.140662634993207,0.168222240910743,0.894093690085745,0.334096244274853
74,2.58760377354833,3.0,-0.545723126618402,-2.49504359756698,2.58760377354833,-0.0100800242831969,0.0195866939755485,0.0220282879598398,-0.0267426550724729,-0.336673502770464,0.338794002581691,0.0218710060934237,0.202569732561619,0.204523863413391,15.3792557698253,1.62342984407491,1.52965816703138,0.0630358184760072,0.240455085735174,0.120915711769964,0.407336266093382,0.0019562280011565,0.0101016361566304,,,,,3.0,-101.440236798872,2.33295349937366,HoldLanding,HoldLanding,0,0.7309324456289,0.0968276704109295,0.0626393591525131,0.94370782781759,0.346259683657794
75,1.68219062145924,2.26647686958313,-0.170996247979087,-1.66099979856131,1.68219062145924,-0.0499060446105852,-0.0188205075854807,0.0533368989954315,-0.0034749148686862,-0.145296473843429,0.145403412854154,0.0093789576660582,0.121454112179074,0.123782829714294,15.4378220232646,0.980389011332316,0.770191824712551,0.176476154368925,0.240180133459537,0.149334055599316,0.418511291592405,0.155217264267932,0.0408547488437976,,,,,1.72844746755899,-95.0560971705178,2.3923706251141,AttemptLanding,AttemptLanding,1,0.473340731665324,0.14124283731037,0.168587425478805,0.898007359103756,0.333629308622526
76,1.75310054929759,2.70469951629639,-0.237278752056991,-1.7109617104286,1.75310054929759,0.0042246285108818,0.0082882564985066,0.0093028319258166,-0.0076432941889286,-0.158640089834857,0.159093315217639,0.0102729734581992,0.189191978850868,0.190450755507187,15.3973661429801,2.03770006809151,1.77157300519097,0.0293224246743643,0.0583073863741574,0.1252719599024,0.43450902359424,0.0210022073355715,0.0049917040867157,,,,,1.80133462105751,-96.2777836497926,1.5,AttemptLanding,AttemptLanding,1,0.505583630914128,0.215815286761129,0.140638651550485,0.95540878494417,0.344323573376711
77,1.6965431679745,2.45881056785583,-0.145676511942518,-1.672609029649,1.6965431679745,-0.055083634258549,-0.0164000683098627,0.0574732024833988,-0.003634968459199,-0.149689117820927,0.149838643949567,0.0096669555670622,0.146629988258845,0.14912446284628,15.3878030744439,1.14780636700439,0.86332905282938,0.177013667522228,0.240221235750207,0.13333193445437,0.377481349556343,0.158366852581952,0.0358973691341856,,,,,1.75923009576763,-93.8331549635916,1.65004449202248,AttemptLanding,AttemptLanding,1,0.482236404029122,0.182046918761924,0.192667007847423,0.895691387940192,0.340741362464724
78,1.79679141828678,2.5103600025177,-0.191679771984388,-1.77702936890814,1.79679141828678,-0.0379579533030376,-0.0180878096465005,0.0420472957128472,-0.0035901695815453,-0.166093097365012,0.16618546518695,0.0107188218123887,0.118058699570787,0.120740784647481,15.4391769726033,0.952055777670182,0.691623328305081,0.175979732228373,0.240237066727883,0.132692702478889,0.434724417429842,0.154809195164296,0.0410471044215948,,,,,1.84421771642335,-95.6415120879709,2.33503857807925,AttemptLanding,AttemptLanding,1,0.503292535139304,0.168261602332646,0.184687267928946,0.899095512338865,0.341025465564938
79,2.61929646822122,3.0,-0.411190576842299,-2.55159890178708,2.61929646822122,0.0042931506066218,0.0053188095457649,0.0068352671575629,-0.0180478674095202,-0.338602681413726,0.339727957373056,0.0219345204615168,0.204365984513073,0.2071144464952,15.4109890579084,1.85683239027578,1.75043460190348,0.0280276069173357,0.0501219487367384,0.114569071461324,0.402906317255672,0.0150764695319103,0.0056060642988946,,,,,3.0,-97.5958361626102,1.82264637564812,AttemptLanding,AttemptLanding,1,0.739901947491366,0.0869114269624444,0.0608860781387218,0.957643384459924,0.349080412683856
80,1.78274282974166,2.42507362365723,-0.222613305087589,-1.7553127703177,1.78274282974166,-0.0422781807150115,-0.0261227807933378,0.0496975275134281,-0.0050196915607194,-0.162286734078191,0.16247377127243,0.0104795909985271,0.119757208202131,0.122496400963679,15.4287160347396,0.966276123341706,0.695225255404639,0.176905780735864,0.240210784967301,0.121030031155287,0.408399660789261,0.158831571467036,0.0378070123511189,,,,,1.84269174465958,-96.4089816842801,2.36635806767632,AttemptLanding,AttemptLanding,1,0.499897368123845,0.153635642008465,0.1765211992373,0.898492455941918,0.346208875042095
81,1.8598170014652,2.49009037017822,-0.18666854816663,-1.83821567133026,1.8598170014652,-0.0419893112870897,-0.01981961943285,0.0464318810390784,-0.0038981398384401,-0.178234666796508,0.17833909786865,0.0115026468356326,0.135602472712199,0.138709813658586,15.4194736734226,0.967257658654201,0.674493381767228,0.17677447833545,0.240233492591005,0.144224952575037,0.438086066751725,0.158529429280838,0.0347623041566125,,,,,1.90149022471625,-95.3637271300002,2.2620165232328,AttemptLanding,AttemptLanding,1,0.523693163122438,0.15032401948426,0.173292773690505,0.898713288371821,0.335900021077761
82,2.5928781403347,3.0,-0.394796474569356,-2.5319310242028,2.5928781403347,0.0086846999476283,0.0069878135289085,0.0111469076920523,-0.0161826640338084,-0.334066254191999,0.33495534419664,0.0216269635274306,0.192203334204549,0.194949666103414,15.3925298064053,1.9318429714067,1.75707104900148,0.028818520553457,0.0522696301898518,0.121738403401135,0.411527502912738,0.0212528203033771,0.0066837902679235,,,,,2.91783086718893,-97.7855854258006,1.76571128733795,AttemptLanding,AttemptLanding,1,0.730424103976603,0.0936460181682354,0.0680637780018891,0.956606415277207,0.345894042932829
83,1.67439698292905,2.32370829582214,-0.295584727800153,-1.63825222507251,1.67439698292905,-0.0401177487084312,-0.0111610023039063,0.0416413464462983,-0.0065221659474378,-0.141773627380236,0.14204570464889,0.0091614836723625,0.10889937272499,0.111325651238033,15.4521923418546,0.94056648940194,0.570026363560746,0.175375219668469,0.240187989870149,0.113600414906764,0.420597661152419,0.154815341486699,0.0414800286574018,,,,,1.75027764965131,-99.5200046041142,1.8227215253622,AttemptLanding,AttemptLanding,1,0.46877099236202,0.153729292249434,0.176128040572703,0.900443446321059,0.349510926708105
84,2.59611912991138,3.0,-0.427555265885396,-2.52792147854055,2.59611912991138,-0.0194052056050377,0.0115370674503599,0.0225757819339207,-0.0183383830968014,-0.342917717321943,0.34402975235045,0.0222059462582058,0.208471796459283,0.210484553367423,15.4203179409296,1.74929380258017,1.42018725990585,0.0625048621079654,0.240399787757379,0.130882270354469,0.432091722916259,0.0019407519934318,0.0111975928446277,,,,,2.95681470906161,-98.270421652992,2.2004631361894,HoldLanding,HoldLanding,0,0.73439534531652,0.0950120891244912,0.0619416618597209,0.943844503455056,0.34183010206468
85,2.06052277055947,2.83622813224792,-0.454282479723637,-1.99606288361892,2.06052277055947,-0.0557174114632734,-0.029700331193291,0.0631390498278117,-0.0141448734938683,-0.210247715884768,0.211049376574507,0.0136138514524094,0.148823780938283,0.152397352533556,15.4407114582211,1.14836084263783,0.718428979055072,0.176635899707236,0.240270351957367,0.153209222348554,0.399851702928432,0.159169928305316,0.0365346241308026,,,,,2.10680641889481,-101.731697741666,2.46364905942016,AttemptLanding,AttemptLanding,1,0.579952209322569,0.186109198848335,0.195693027532666,0.897014415833081,0.331907012289531
86,1.97710032686342,3.0,-0.57225272230754,-1.86369679343534,1.97710032686342,0.0076018200122239,0.0114188564072684,0.0137177968037169,-0.0241172405730581,-0.187669466118099,0.190508198012059,0.0123036003229859,0.208809295273946,0.210271938253005,15.4010526674965,2.03158078759024,1.98837790522007,0.0287414048187079,0.053439225170002,0.135728711645624,0.445899217107652,0.0231310363529175,0.0073643964590708,,,,,2.01104491577433,-105.279667622794,1.73838667463518,AttemptLanding,AttemptLanding,1,0.569281141480846,0.232667355869745,0.152558836471897,0.954043907861422,0.3396761281575
87,2.01551102383717,2.6970329284668,-1.14335967418909,-1.64383151225795,2.01551102383717,-0.0528465476545225,0.004715523048462,0.0530565147425111,-0.0713578837428072,-0.142521117019636,0.162385412531664,0.0104762104530468,0.134601744280298,0.137347103936854,15.415669931182,0.990913073505712,1.12408630976718,0.176952249872539,0.240290432885598,0.180552431605405,0.426350600314053,0.159099203484048,0.0367986381298202,,,,,2.06469467336038,-124.238920485483,2.35839210386826,AttemptLanding,AttemptLanding,1,0.564939027143949,0.16306945624446,0.181933753806996,0.894906022766587,0.319754474842042
88,1.95109443648441,2.92736721038818,-1.11321281205449,-1.57095566176811,1.95109443648441,-0.0810809022553964,0.0018043652073825,0.0811009768396828,-0.0719106521371536,-0.135341013530531,0.159124295804775,0.0102656704420315,0.192323564825886,0.194769856791977,15.3751177539601,1.11560090591745,1.11266899495729,0.177196410439182,0.240277790030713,0.180150305344815,0.45534781584012,0.158393074417792,0.0371158841692528,,,,,2.00959748573364,-123.70580417537,2.13624646018366,AttemptLanding,AttemptLanding,1,0.559245821087573,0.234529886548957,0.224611539045293,0.893893959844965,0.319933197624527
89,2.60288340471261,3.0,-0.251245265332201,-2.55608454242351,2.60288340471261,0.0083375147027776,0.0042299426617757,0.0093491478938427,-0.0101935752229917,-0.34129943867617,0.341788800755831,0.0220723661295614,0.206276104902598,0.209039329027149,15.3630612998759,2.14952516320234,1.85484593018207,0.0192985458952104,0.0621190924217528,0.136017251120391,0.47163422895957,0.0003187280710688,0.0071272022089393,,,,,3.0,-94.0907171926139,2.27286427805552,AttemptLanding,AttemptLanding,1,0.735910107062127,0.0910652443868666,0.0573725134467548,0.95888781131866,0.339547888390937
90,1.94540578529641,2.76750111579895,-1.05927782557511,-1.61677132566319,1.94540578529641,-0.0489853049547808,0.0019050965253826,0.0490223366873091,-0.0619352142451684,-0.139066428500437,0.154769312152398,0.0099825294406321,0.131644350585834,0.134165982446928,15.4161616715187,0.887172129976325,0.83757874300543,0.176427808140361,0.24025204532415,0.128520489652546,0.361818081258393,0.159367299120851,0.036317819421852,,,,,1.99637079272466,-122.311062912018,1.92898966127697,AttemptLanding,AttemptLanding,1,0.545608072568429,0.193958877755744,0.200411717163589,0.89823448192782,0.342879782376646
91,1.89859298435417,2.89798140525818,-1.14767277729308,-1.47747687422532,1.89859298435417,-0.0761534510670778,0.0146293265325937,0.0775458916011871,-0.0760504672980854,-0.12036064215436,0.149494339814568,0.0096433008084649,0.187549985653421,0.189903565890588,15.4337682782856,0.970662153114464,0.935577875058997,0.175991876475905,0.240290678684064,0.183163394576975,0.45397395546338,0.15965787959071,0.0337200910602413,,,,,1.94546366280019,-126.251978914843,1.92601943992868,AttemptLanding,AttemptLanding,1,0.544272175672564,0.239079141496952,0.226668393788676,0.897026461540685,0.318594046854678
92,2.63770696191883,3.0,-0.482387907695114,-2.56011338822719,2.63770696191883,0.0042182332378792,0.0015880802146328,0.0045072708391284,-0.0209298915020511,-0.340116184111227,0.341481618478513,0.0220531148692252,0.194781052712979,0.1975338563215,15.3859262610692,2.12860098644897,1.83721235901066,0.0296103364728746,0.051042723432291,0.133192342632454,0.469886408842006,0.0214710584964783,0.0092983233324047,,,,,3.0,-99.2513675644137,1.67150860065567,AttemptLanding,AttemptLanding,1,0.742895294442656,0.0823422665554359,0.0623292610828738,0.954034869763523,0.340803403274465
93,1.69656540574254,2.39943480491638,-1.03210624356981,-1.33160997495055,1.69656540574254,-0.0513617251898278,0.0020184430062693,0.0514013708634794,-0.0577789813475571,-0.0941912435236389,0.113099261580437,0.0072965967186932,0.115013561506842,0.11683163372475,15.4290105644892,0.938584521519432,1.12895036869483,0.176687753184265,0.240189298487641,0.158542802155301,0.407186611212193,0.158421257752359,0.0355509056455982,,,,,1.74681180591764,-126.657123786368,1.86898331708056,AttemptLanding,AttemptLanding,1,0.475783768276295,0.167569199472418,0.183878569626333,0.895411206413327,0.329536532375422
94,2.65791831907335,3.0,-0.206351229424746,-2.61328421640302,2.65791831907335,-0.0017482711946081,0.0007652402995723,0.0019084142333325,-0.0095286582884334,-0.348564265323943,0.349038651251076,0.0225283537661937,0.19925931159081,0.201209268979592,15.4136569930937,1.64877447489782,1.31152067988816,0.0772228539506939,0.241790320025649,0.129334905460292,0.437627731200995,0.0645454683216495,0.121510774713783,,,,,3.0,-94.2734617915732,2.31359610218805,HoldLanding,HoldLanding,0,0.749020072215479,0.0773182541512734,0.119263563559944,0.938129111094192,0.342517819795426
95,1.67215936967305,2.75556063652039,-1.06359497706737,-1.26123838900626,1.67215936967305,-0.0714681049426881,0.0062532964376488,0.0717411579251143,-0.0701993851820896,-0.0956717870357232,0.124526764041057,0.0080309354042802,0.190278322307332,0.191279094549673,15.4792425283598,0.693394431877806,0.747303966022883,0.169463774065747,0.241893360479682,0.232852421166158,0.496212385106264,0.163477976678421,0.0049584964191018,,,,,1.86493072097439,-128.583435678336,2.38323539126903,AttemptLanding,AttemptLanding,1,0.484164984156081,0.256917830660255,0.228610666526842,0.903948339840764,0.296510035037263
96,1.71018986897325,2.7225968837738,-1.05312787228238,-1.31837957017481,1.71018986897325,0.0050032869455854,0.0015941051736228,0.0052511000337488,-0.0632839149633007,-0.0951100814545861,0.119621150889754,0.0077247685792005,0.176886065512677,0.177796345359751,15.4037405633854,1.97965836370258,1.84310427790943,0.0255815837924865,0.0538105372596495,0.126858397980134,0.4410351674066,0.0062767084095099,0.0055252749123303,,,,,1.76269102467469,-127.19753908103,2.00290344399905,AttemptLanding,AttemptLanding,1,0.49160990079815,0.228754280002978,0.142051407061003,0.957173215919662,0.343618489786607
97,1.78311873529408,2.526780128479,-1.09960735237742,-1.39032306588562,1.78311873529408,-0.0484723406701289,0.0031022489705941,0.0485715118018431,-0.0652108265230093,-0.102201114432206,0.123760253312627,0.0079850983599903,0.110218378705459,0.112215709213347,15.4004225588074,1.02173552685565,1.1351390336577,0.176421922709023,0.240222585258846,0.170852618588617,0.426107199553911,0.158881179022561,0.0368234968420506,,,,,1.81622668042125,-127.513201967813,1.53859734641085,AttemptLanding,AttemptLanding,1,0.497941471254425,0.176228590630278,0.189741374209546,0.894842167098598,0.324065502849504
98,1.85240799671895,2.64201498031616,-1.1715222691121,-1.41172005612789,1.85240799671895,-0.0545774558888911,0.0102162907172082,0.0555254111855317,-0.0762718683122986,-0.107793040406899,0.136759497865048,0.0088218716514993,0.150289575795359,0.152495023275587,15.437410844988,0.890090660547028,1.02688828370607,0.176380180791659,0.240228954470943,0.144565375286544,0.503946757449486,0.158606175935634,0.0384558135235228,,,,,1.91962505408224,-128.853168090004,2.06337273778198,AttemptLanding,AttemptLanding,1,0.524474470446837,0.187841230026721,0.197180303955575,0.896747932185039,0.335748722094869
99,2.62339158959213,3.0,-0.156848086452325,-2.58478866529787,2.62339158959213,0.0056359513091991,0.0059918588984246,0.0082259540612803,-0.0059380185672223,-0.347582082614673,0.347891231929035,0.0224550932577034,0.201955579487612,0.204758294444837,15.4407250073291,1.68260542355206,1.67351571722135,0.0282892646527858,0.0461128290992686,0.109316139184263,0.416789649286622,0.0218840028924148,0.0065325897064656,,,,,3.0,-92.2002194325483,1.77555363619681,AttemptLanding,AttemptLanding,1,0.740522749446869,0.0862449839196714,0.0638487010255303,0.959485844424673,0.351415049251439
100,1.60775552488662,2.54248285293579,-1.03045134564572,-1.2034762713811,1.60775552488662,-0.0717419263596117,0.0166824018324327,0.0736560013080177,-0.0617503247786729,-0.0813654680038613,0.107833808375738,0.006957266869672,0.169419373477626,0.171097038170822,15.3761063927519,1.03147285101007,1.08616246288471,0.176892369285188,0.240210810521449,0.135628910040683,0.389419339284484,0.15871617888523,0.0360032310624098,,,,,1.68546986904653,-128.540481584722,2.33343005181186,AttemptLanding,AttemptLanding,1,0.462954214270597,0.223817249050866,0.217922957402205,0.894915252176804,0.339720484426363
101,1.66805256701805,2.28926348686218,-1.07057179867806,-1.25706309986912,1.66805256701805,-0.0510673667251436,0.0097026671817296,0.0519809358772975,-0.063200478590449,-0.0848476501564742,0.109826138064635,0.0070849941526975,0.141742283555811,0.143562404592426,15.4270444810426,0.970409084341913,0.978479991773056,0.17711207845851,0.240209754428413,0.152903188600268,0.438719535281935,0.15909242774561,0.0356571001881395,,,,,1.69807149429304,-129.55767099295,1.84361972956773,AttemptLanding,AttemptLanding,1,0.473526498789964,0.149302295209102,0.173255341040409,0.896131260886984,0.33204302728877
102,2.62863008672976,3.0,-0.138193678711766,-2.59430941381183,2.62863008672976,0.0072801604437314,0.005089875077478,0.0088829929860832,-0.0049249313912561,-0.349949914956196,0.35019254975499,0.0226158746101516,0.195032622576359,0.197938571735091,15.3847669447183,2.11886298353414,1.90578510356326,0.0279921941764015,0.0509421967118259,0.138621283452476,0.429868095923513,0.0204659810957856,0.005244992226542,,,,,3.0,-91.8482151525671,1.66953472581848,AttemptLanding,AttemptLanding,1,0.740555737474954,0.0851867791999198,0.0621153290186395,0.954381667941748,0.338390540687788
103,1.68741286440984,2.57501554489136,-1.07500741828594,-1.27981364764136,1.68741286440984,-0.0518798907711156,0.0239643121198178,0.0571472774662007,-0.0640347615194342,-0.088051370767162,0.112738318321863,0.007271706468021,0.140250674219619,0.142093746318528,15.4393477825732,0.794975270454066,0.930910217818719,0.176176519108609,0.240202100334097,0.144873213008637,0.375981830929204,0.156229755835885,0.041528292298525,,,,,1.75398132014352,-128.600052606655,2.09921589983725,AttemptLanding,AttemptLanding,1,0.478395513106329,0.210187603977146,0.210649206623922,0.898351211609267,0.335611905329495
104,2.65989043907477,3.0,-0.352568735766366,-2.60178329414337,2.65989043907477,-0.0248817322971917,-0.0080072745495466,0.0261384209129191,-0.0143288237707111,-0.350373621845268,0.351131249105506,0.0226648904208567,0.205354705612495,0.207542694643162,15.4062740856818,1.68052534360454,1.38134002193858,0.0626944423573105,0.240309129295656,0.123032311834255,0.488255239322257,0.0019247795862169,0.0081776881593717,,,,,3.0,-96.2939600424606,2.0256971902646,HoldLanding,HoldLanding,0,0.750812656015238,0.0813166950422113,0.0526191794044271,0.944595265234935,0.345318972518109
105,1.72473692169061,2.42054271697998,-1.10659271384391,-1.2999533818021,1.72473692169061,-0.0608654296313308,0.0103200425252034,0.0617341380593305,-0.0675586401692655,-0.0905939601724801,0.117285631845162,0.0075649415579965,0.13260979316356,0.134536160660997,15.4029194583282,0.813199794841431,1.02383450781395,0.177307143434822,0.240214151516546,0.153636416015233,0.477768186258853,0.157989473164076,0.0364267173829133,,,,,1.78074250763471,-129.221424924807,2.49049683391428,AttemptLanding,AttemptLanding,1,0.486837077916361,0.167874229250987,0.184188160227402,0.896912587333154,0.331717148437674
106,1.86512941899507,2.65040373802185,-1.08519007030344,-1.50097748186983,1.86512941899507,0.0065587059014137,0.0016240430877987,0.0067567846681884,-0.0641311205449805,-0.118672279867035,0.137725287305043,0.008898222751342,0.134828189772356,0.13594201971985,15.3834485018908,2.3369242741801,2.13962344904835,0.0163492742445337,0.0532765538555008,0.153047265848841,0.43694697477407,0.0003118015971903,0.0083352884544575,,,,,1.88415857146299,-124.959215831678,2.40507705693905,AttemptLanding,AttemptLanding,1,0.524556249009322,0.17792546563686,0.109924871853195,0.95665248790951,0.331978992956071
107,1.68784060814237,2.37910270690918,-1.01990253482192,-1.32913050274533,1.68784060814237,-0.0514791276653415,0.0084360758672643,0.0521657738485951,-0.0564308020881586,-0.0936678279854609,0.112074616100639,0.0072300950370062,0.119057113244685,0.120853451955338,15.3951452274826,0.974705284893407,1.04966247674598,0.176410423704109,0.240177853663856,0.165422169147496,0.475811848638767,0.156139801899169,0.0419534198061643,,,,,1.72726488943798,-126.550224489005,1.64320530027612,AttemptLanding,AttemptLanding,1,0.474261519229032,0.165097697428109,0.18370987498803,0.89588904144935,0.326479035934446
108,1.67005984283782,2.32795238494873,-1.03311395988242,-1.2921873250176,1.67005984283782,-0.0642505738692811,-0.010152629440586,0.0650477680408006,-0.0596211677018054,-0.090241922476678,0.111699398732611,0.0072036976183151,0.135785239912257,0.137525382607486,15.4521671021663,0.768723990606089,0.827474588277253,0.176522981032846,0.240196279251858,0.129665531046984,0.458720472213672,0.158865590186019,0.0377784749644182,,,,,1.72684939224008,-126.925173742408,1.75693087742559,AttemptLanding,AttemptLanding,1,0.472854367944917,0.159951246115767,0.180315303900813,0.899196949220922,0.342370875090229
109,2.63184080833575,3.0,-0.299228132061076,-2.58102146961569,2.63184080833575,0.0059556969658009,0.001834894356857,0.0062319470191326,-0.012110996325735,-0.345994435236189,0.346586778141739,0.0223731705943436,0.198762467903793,0.201541427820561,15.4313557548267,1.80299042046854,1.48373991151721,0.0280060602021613,0.0496256877367184,0.118504962570311,0.453625469933925,0.0136898353398188,0.006169328838904,,,,,3.0,-95.4171668207032,1.86148085587307,AttemptLanding,AttemptLanding,1,0.742132501120313,0.0839783417446297,0.0587147686139755,0.960172660147603,0.347331127746529
110,1.59195781277644,2.4718005657196,-0.937027640885551,-1.25785820383257,1.59195781277644,-0.0523550642246996,0.0131881173486168,0.0539905472205396,-0.0517308852303633,-0.0869744966614186,0.106050548539015,0.0068401255830611,0.164645232916825,0.166317753758451,15.4219556489445,0.827397365435098,0.915746518253773,0.176277356053536,0.240186614024277,0.160030452141018,0.468224864898261,0.158825227235355,0.0362023324640258,,,,,1.65985778043302,-125.136897277648,1.8898561154641,AttemptLanding,AttemptLanding,1,0.45778563415874,0.207862886402645,0.20847120625634,0.898165191458534,0.328875354603992
111,1.55288935070102,2.2346658706665,-0.931555024894434,-1.22968642177625,1.55288935070102,-0.0445413999027717,-0.0024739934552113,0.0446100543478156,-0.0471441849629039,-0.0807246706631216,0.0955174682137634,0.0061634812219627,0.114072681342633,0.115683194983101,15.3665896639661,1.04723476073038,1.18588483657387,0.177446055118805,0.240158719219845,0.156497476197732,0.520056383081672,0.158701563258041,0.0377070282729416,,,,,1.59306398738573,-126.486183134521,1.98116274725733,AttemptLanding,AttemptLanding,1,0.437240465850226,0.161578226955999,0.181192610932991,0.893731032747493,0.330445566134341
112,2.62548472052035,3.0,-0.23317263982799,-2.58291452899466,2.62548472052035,0.0066778138835523,0.0059479804955994,0.0089426880880077,-0.0088025381002869,-0.346790402328293,0.347197477499058,0.0224317629582408,0.196230098946997,0.199097411901919,15.3636279352139,2.30549326542152,2.2157408243119,0.0145630967775646,0.0533574306430656,0.147823709748774,0.417476315055232,0.0003096682832896,0.0067240131599331,,,,,3.0,-94.1056534981467,2.48381811734214,AttemptLanding,AttemptLanding,1,0.739948741185811,0.0859054306990558,0.0541259844620833,0.957194469477598,0.334300573444989
113,1.72265029557653,2.78329181671143,-1.00875259741425,-1.36799826385683,1.72265029557653,-0.06997933372097,0.0094733337451328,0.0706176408574909,-0.0593143759169782,-0.103064230144996,0.123919041637226,0.0079931891127573,0.179314537197695,0.181247168086683,15.4429436471144,0.986371891252936,0.965176945376623,0.176623951802706,0.240280241324617,0.162926973218224,0.399050767725865,0.157928148638153,0.0354829412468953,,,,,1.77528590773906,-124.910768203071,2.14928960620422,AttemptLanding,AttemptLanding,1,0.495622845771079,0.251590909745891,0.234047721857302,0.896354426096558,0.327588011903011
114,2.61559298134301,3.0,-0.396343366354135,-2.55290284422054,2.61559298134301,-0.017807524169606,0.0078773727808105,0.0194720548216914,-0.0171031346383803,-0.34731089604223,0.34829429853255,0.0224812756506246,0.202964071643673,0.205042555960352,15.3657246387218,1.63860774537629,1.39270478590874,0.062783276057797,0.240326037877395,0.11936661194236,0.503125830346873,0.0019110496342706,0.0099455745767103,,,,,2.9979851142919,-97.9705526263991,2.18549078864498,HoldLanding,HoldLanding,0,0.73849997288354,0.0900614559151329,0.0585028015154381,0.944790906368148,0.346948172470062
115,1.8290638392036,2.90344190597534,-1.02853119154572,-1.48185969391641,1.8290638392036,-0.0709843997554449,0.0064162990985355,0.0712737953441703,-0.0616119090445879,-0.1217718917036,0.141914977921074,0.0091537091693178,0.184232723181572,0.186373484197802,15.4097197993345,0.959677493403783,0.939196838366852,0.176329435121589,0.24026427933896,0.132532253740812,0.427422330490013,0.159644870100293,0.0356733930890423,,,,,1.89315516909655,-124.179562229341,2.30591623092024,AttemptLanding,AttemptLanding,1,0.525025053960521,0.254801927503406,0.236806575043644,0.896915555546722,0.341096776115195
116,1.65347393818922,2.35023546218872,-1.01170297113781,-1.28707940880944,1.65347393818922,0.0024164196460947,0.0013908460848148,0.0027881062995656,-0.0563386493116635,-0.0882227595220725,0.108244341082242,0.0069879222123674,0.133774211148291,0.134655895190886,15.4115177224238,1.83385132801561,1.70166708707144,0.0280608011075062,0.0493192596135299,0.119595400032249,0.447792306129065,0.020098662012031,0.0046174732470315,,,,,1.69700248239393,-126.66944677606,1.53738761923515,AttemptLanding,AttemptLanding,1,0.467857562555303,0.157282495721474,0.104981317285637,0.958190526184849,0.346846488874556
117,1.64711901643774,2.35565090179443,-0.971834505647028,-1.31047619775221,1.64711901643774,-0.0514990155317162,0.0136802504866737,0.0532850622042809,-0.0525278383360284,-0.0915970835341729,0.108744137796043,0.0070132972526517,0.127606867416215,0.128887515248231,15.4489136198647,0.757882125285899,0.773238027217862,0.183030147237841,0.240447921050993,0.151202696543009,0.409953233519306,0.154005632915102,0.0050059689663888,,,,,1.6721231422542,-125.43586516234,2.35908075954417,AttemptLanding,AttemptLanding,1,0.465009240766377,0.169188602276041,0.171780461679306,0.896454696611407,0.33279880153644
118,1.64227819127381,2.35280919075012,-1.02293752436541,-1.27037388971142,1.64227819127381,-0.0483675820118313,-0.0098645354637967,0.0493632661965122,-0.0610284315537429,-0.0917470144123636,0.112816920534072,0.0072766940628369,0.137611658647894,0.138686520916219,15.4527304569155,0.664790350677555,0.988229511849415,0.174294379791219,0.244609732202502,0.248081094592469,0.489134352012166,0.141152633487304,0.0052384355005649,,,,,1.78141492798702,-127.597402747289,2.30298679670304,AttemptLanding,AttemptLanding,1,0.465678155189592,0.168919407018199,0.165991033619624,0.899864796898822,0.289741735736681
119,2.5762646951803,3.0,-0.366396356162267,-2.5186381723653,2.5762646951803,0.0059460191494194,0.0063247471579782,0.0086808738233899,-0.0148967416225133,-0.331270770765229,0.332038769884664,0.0214588030401297,0.205711712634618,0.208314989743989,15.3080746658948,2.41283631657839,2.23526616521238,0.0253050278248929,0.0728407136622208,0.130604308195009,0.474265940501715,0.0040847071119039,0.0083447713897958,,,,,2.88139783872518,-96.8469577847742,2.04318657383329,AttemptLanding,AttemptLanding,1,0.728666916663544,0.0969319371187207,0.063009049977863,0.950826680873483,0.341953640802218
120,1.71524308662157,2.38696217536926,-1.01209272915747,-1.37004861717812,1.71524308662157,-0.0431802039990948,0.0029984356253281,0.043284184566683,-0.0561579663021038,-0.100314587548148,0.117496083935893,0.0075795478032147,0.121130217198378,0.122979580391999,15.4310189570952,0.947209843293115,0.969145169616785,0.177443522119266,0.240184112172249,0.151292906796056,0.398852934030249,0.158350754128768,0.0388403591846381,,,,,1.76744363452008,-125.864521808831,2.11497189565493,AttemptLanding,AttemptLanding,1,0.481994072510818,0.159072228805457,0.179945217205625,0.896221163838932,0.332758708090642
121,1.69389989811021,2.44117426872253,-0.984666588455916,-1.35982256120277,1.69389989811021,-0.0573582298127359,0.0080300472273118,0.057917598238562,-0.0536366139979297,-0.0992984039627553,0.115925815595719,0.0074767839698543,0.135451141653161,0.13731855700021,15.4115802944206,0.747648241139819,0.921442213676333,0.17638196271851,0.240220871347304,0.117593777015698,0.511926712427528,0.158211726180666,0.0347410285732925,,,,,1.76448514358837,-124.664357217421,1.55104305436773,AttemptLanding,AttemptLanding,1,0.479170350896098,0.178754959731509,0.190202399885247,0.898694736495761,0.347736099104134
122,2.62638060065815,3.0,-0.373255847446261,-2.56726635859116,2.62638060065815,0.0030214276968753,0.0028748080837977,0.0041705571385744,-0.0154716468517471,-0.342622239999158,0.343440002041514,0.0221730592434892,0.195920643233202,0.198698915350796,15.4310588365538,1.90304026552613,1.81567317366278,0.0284435382174363,0.0493456560951312,0.133672349957225,0.454824326056769,0.021035593084527,0.0065423283301999,,,,,3.0,-97.1526305433791,1.5099295753745,AttemptLanding,AttemptLanding,1,0.740107943245665,0.0848289669939885,0.0626255611621142,0.956559768154798,0.340590066685678
123,1.61611468848344,2.42628502845764,-0.939588191234656,-1.28990447986226,1.61611468848344,-0.063354347246478,0.0065477998825691,0.0636918126475412,-0.0512462319509665,-0.0915703667058708,0.109067868931843,0.0070351996552059,0.158865888072915,0.160564040689602,15.4142118323226,0.904430590687808,0.974621977655378,0.176527287855762,0.240198112955118,0.146133796139313,0.473931498270128,0.158233362628257,0.0354862963869309,,,,,1.66518818535526,-124.488998271363,1.94858002913207,AttemptLanding,AttemptLanding,1,0.463076725066839,0.19396515881291,0.199609142010704,0.896972371606565,0.335051646160306
124,2.68449749081181,3.0,-0.580914496576854,-2.58529391029243,2.68449749081181,-0.0335068876248626,-0.0087085721871234,0.0346200916787277,-0.0242195217595687,-0.343343184846982,0.345107327395612,0.022278141705621,0.201540622042062,0.203591551101622,15.4087481332307,1.78256957094822,1.49451940991669,0.0631163298720913,0.24031996101533,0.131564007724189,0.441803776367236,0.0018882239026149,0.0091728679516587,,,,,3.0,-100.530616564359,2.02063773552264,HoldLanding,HoldLanding,0,0.756584307770139,0.0773350813751102,0.0505758477945083,0.94269327878573,0.341527107678138
125,1.56560294980171,2.21682715415955,-0.810006502634136,-1.32195016892666,1.56560294980171,-0.0476774458759458,0.0147919612211197,0.0499193445672202,-0.0370841818977662,-0.0937580979709021,0.103073111900622,0.0066476018169012,0.13537680015136,0.137055413370528,15.452333813259,0.807961073130967,0.827872090893358,0.176425222336644,0.240176223043965,0.165532139193017,0.402786758379916,0.156400654069758,0.0393954103501615,,,,,1.59718321662841,-120.692341177793,2.30130340534868,AttemptLanding,AttemptLanding,1,0.444905202621227,0.155677325817837,0.177243401063179,0.898934413971487,0.326430160358659
126,1.54244684196236,2.31355953216553,-0.859357893801027,-1.26274706589965,1.54244684196236,0.002607693899027,0.0006238713227982,0.0026812838153453,-0.0413027538076817,-0.0854001376568966,0.0974262165807109,0.0062895441106109,0.128898758144296,0.129633740619996,15.4283181617123,1.73477895569974,1.69336746387752,0.0283813179255873,0.0475390239017602,0.122936638563807,0.411281052310228,0.0189328165048388,0.0061325989150961,,,,,1.57811714801433,-123.111297136965,1.5371296172667,AttemptLanding,AttemptLanding,1,0.437245905980629,0.173991923995192,0.115039775479503,0.958873904883385,0.345361493971642
127,1.50040068002355,2.12011408805847,-0.758459088233488,-1.2842217146141,1.50040068002355,-0.0348513059603402,0.001415047824571,0.0348800213229159,-0.0318203774201218,-0.0873187960446566,0.0941235224072289,0.0060717895307578,0.112491134273252,0.114090359143399,15.4302924656756,0.8672105038719,0.992120272339449,0.176108294987364,0.240154592745843,0.145039364775985,0.426864477127312,0.156451714923982,0.0401194773755855,,,,,1.53181850141805,-119.504479623187,1.63819082584993,AttemptLanding,AttemptLanding,1,0.42292491983496,0.145830187383725,0.171621108815854,0.897336824978943,0.335538060099562
128,1.65084864722716,2.52468824386597,-0.895256280021839,-1.35937718548219,1.65084864722716,-0.0631323336543932,0.001904836580156,0.0631610635997109,-0.0474166054930583,-0.101643983472627,0.116395990897872,0.0075067119139768,0.162607039071503,0.164332401132086,15.459498000149,0.918028025286882,0.715920262198822,0.176675800804838,0.240208957688147,0.15488003387911,0.43535952790675,0.157715620416143,0.0370599944698132,,,,,1.67347133841587,-121.814224359451,1.5,AttemptLanding,AttemptLanding,1,0.473092786153659,0.208193437570346,0.208488255463658,0.898823934481622,0.331164429387062
129,2.6277981183202,3.0,-0.518059591223319,-2.54445504583029,2.6277981183202,0.0068754448284263,0.0017544265878193,0.0070957560725255,-0.0227531733858542,-0.336517432335302,0.338106308397648,0.0218319857341345,0.196511744372871,0.199185942570709,15.4037600186448,1.91951214693219,1.93287118005175,0.0290115074599355,0.0489746786145035,0.134469045005106,0.441200047635283,0.0227995703061767,0.0103884659974594,,,,,2.98812679975473,-100.15154225882,1.55619135630131,AttemptLanding,AttemptLanding,1,0.740583353399528,0.085046311991252,0.0649385535521281,0.955225520129444,0.340235979997731
130,1.63061081723079,2.42770314216614,-0.916482017431526,-1.33091019432175,1.63061081723079,-0.0499104293607705,0.0042960696839671,0.0500949815221641,-0.0467777624673897,-0.0948891014823767,0.108531529088562,0.0070000217335814,0.124486383680085,0.126098710792066,15.4079905599698,0.752336101801001,0.991832118819075,0.176190960205951,0.240187654353742,0.15292471029389,0.454544417128033,0.155048281557542,0.0409151419170903,,,,,1.67291748571223,-123.514973806059,2.42300973559898,AttemptLanding,AttemptLanding,1,0.460049293419957,0.188529853056184,0.196906492617015,0.898200341020724,0.332033462091605
131,1.46242253844802,2.21951127052307,-0.730227628071828,-1.24160912325733,1.46242253844802,-0.0701151409209454,-0.0017813344709743,0.0701377654253507,-0.0329370371696974,-0.085926416095481,0.0948512275309145,0.006119213798094,0.156449948487466,0.157864508389502,15.3888888168379,0.981651759637595,1.00011562541938,0.177199565098162,0.240201530124478,0.164443789231672,0.490582969597937,0.158130783741103,0.0369462019613128,,,,,1.54515709711904,-119.107877075441,1.66743352627685,AttemptLanding,AttemptLanding,1,0.42155224526404,0.183203555044866,0.193637463887685,0.8958291879969,0.32691387145259
132,2.62852062668689,3.0,-0.464358966295222,-2.55394732482815,2.62852062668689,0.0029028155397282,0.0033183544379072,0.0044088336590607,-0.0201701120005407,-0.338916671738629,0.340211923343405,0.0219770766443545,0.194909219648716,0.197626196364313,15.3898965539838,2.17633416477356,2.18911994689577,0.0165539261768743,0.0523361096605894,0.15134499024563,0.404793468384323,0.0005874518838004,0.0083408944564214,,,,,3.0,-98.8062245222683,2.39077467239124,AttemptLanding,AttemptLanding,1,0.740464073056032,0.0843911451662782,0.0539288293555082,0.957423040319875,0.332735559890831
133,1.65501122506673,2.33097100257874,-0.867957759883804,-1.39555614723053,1.65501122506673,-0.0477465099043997,0.0061730720286832,0.0481439095454685,-0.0416116140263396,-0.102954672233196,0.112874252294681,0.0072802870284929,0.111532899777252,0.113278306102228,15.4629149970755,0.882313052599895,0.859781725606593,0.175487337201683,0.240197405838507,0.15270713639437,0.39095162015031,0.156251629675386,0.0411854020071225,,,,,1.68330103474598,-120.509023497779,1.64718855421401,AttemptLanding,AttemptLanding,1,0.463991987904907,0.160917333356871,0.18097207857951,0.898568443856108,0.332130161602502
134,2.67681288113028,3.0,-0.647252582631862,-2.56120311990782,2.67681288113028,-0.0314656924378033,-0.0090024976730711,0.0327281952595019,-0.0286178841926292,-0.337585234509195,0.339995706628704,0.0219449619237504,0.203090184232295,0.20517560785879,15.4064956207685,1.79618911194165,1.32010947384815,0.0628031261487254,0.240313040561726,0.131121045962921,0.439734028089983,0.00188118595181,0.0085682446276112,,,,,3.0,-102.269542710179,1.89375001631964,HoldLanding,HoldLanding,0,0.754851889873167,0.0787172708765949,0.0511821704903372,0.944113233751575,0.341723979572035
135,1.65755395389892,2.32034063339233,-0.860824094874879,-1.40275590961447,1.65755395389892,-0.044215329510251,0.0001443096919298,0.0442155650081197,-0.0412521009249151,-0.104949807180634,0.114551256176367,0.0073894620530693,0.11734813422241,0.119261102377153,15.4004381521601,0.888049390578287,0.959055759239675,0.176556372085,0.240201629094624,0.152517292670241,0.391820338073635,0.158156226054016,0.0365191356415338,,,,,1.71044333906111,-120.370167332204,2.17126934411754,AttemptLanding,AttemptLanding,1,0.465866608181809,0.157233189804174,0.177911255594342,0.897208844923216,0.332214536591004
136,1.63008047266549,2.50974202156067,-0.75000231621921,-1.42233619308881,1.63008047266549,0.0071527828302873,0.0037676168730003,0.0080843824203812,-0.0341589887822814,-0.110112122767238,0.117949269875879,0.0076154895882934,0.170124235673377,0.171100593354667,15.4018759943626,1.89435730815116,1.92316373221458,0.021280565281348,0.0447604139644102,0.132389664769582,0.420661339709364,0.0003561390596738,0.0057727769691873,,,,,1.66149639163359,-116.91481150861,2.16589187956735,AttemptLanding,AttemptLanding,1,0.468908244715063,0.199405985278486,0.121901066818772,0.959364909185024,0.341160148991297
137,1.45482150220231,2.36047720909119,-0.709563542487331,-1.24786492026454,1.45482150220231,-0.06000223513997,0.0046805031505909,0.0601845107277192,-0.0306647535084597,-0.0861036414132293,0.0938020273684458,0.0060495317232968,0.157685293459775,0.159114198255111,15.4282532017913,0.706948698992672,0.876620199363696,0.175067446119171,0.240177827658503,0.124092622191721,0.440787497955353,0.156215896708101,0.0408747276112581,,,,,1.50463962214456,-118.009747287404,1.80103733432965,AttemptLanding,AttemptLanding,1,0.419775240238305,0.214806361016746,0.213176641349055,0.9000239498819,0.344847723470346
138,1.5861385884701,2.29846787452698,-0.721924151573939,-1.39430733802489,1.5861385884701,-0.0593618618036287,-0.0020815718900893,0.0593983465959005,-0.0300721953222604,-0.103719127601094,0.109740927983719,0.0070806856519892,0.126716143457268,0.128439550713629,15.3414816445493,0.959359701526673,1.12129137190885,0.175653370942257,0.240154535951006,0.15239841942284,0.466175876849033,0.155851674749862,0.0400097319597225,,,,,1.62198882751374,-116.427624599585,1.59741000650997,AttemptLanding,AttemptLanding,1,0.448658200401419,0.171163786238712,0.186514676183065,0.895825341809021,0.332267369145405
139,2.61166264978938,3.0,-0.520210112307048,-2.52649515214967,2.61166264978938,0.0039195812731328,0.0029043592354657,0.004878362422507,-0.0229949857400838,-0.333238570540108,0.334836003992612,0.0216280673813761,0.199228032588763,0.201794784041143,15.3839542024272,2.23341865456376,2.08122624407671,0.0271589297205526,0.0643237646952956,0.14525146451591,0.476328234312543,0.0106438500209602,0.0078777339176692,,,,,3.0,-100.33835635475,1.91817127148266,AttemptLanding,AttemptLanding,1,0.736802330085397,0.0882702702415152,0.0605573926697408,0.952519753793263,0.335443793548485
140,1.52852691425366,2.30971360206604,-0.744663943764608,-1.31737829424748,1.52852691425366,-0.053623234154506,-0.0031358622676652,0.0537148477923074,-0.0334548548503047,-0.0964329821884283,0.103961888638903,0.0067055634533567,0.139637400381004,0.140812217618395,15.4485909569447,0.633259941239582,0.916190650746099,0.17849731367706,0.240818176713577,0.206612694770827,0.367450513498889,0.132889303278318,0.0049199865679971,,,,,1.62484937329115,-117.662804067615,2.12569431494285,AttemptLanding,AttemptLanding,1,0.435769620657989,0.185614726853041,0.172219834704692,0.898577088510154,0.30817213565741
141,1.39719372895097,2.20050668716431,-0.700614762139161,-1.19732472652811,1.39719372895097,-0.0312905161459172,-0.0044625858672926,0.0316071364299404,-0.0304581784536273,-0.0858673494530884,0.0923545559177782,0.0059553583346077,0.124670388088453,0.125461421989121,15.477088299869,0.535375077382503,0.672876117503327,0.164392669263773,0.244734202225007,0.222848030126112,0.462327732625148,0.229109614726081,0.0050104057995655,,,,,1.58700801541868,-119.377240163094,1.70742110665175,AttemptLanding,AttemptLanding,1,0.397677278784751,0.186540057276822,0.215572495545204,0.908310263122582,0.300956431055061
142,2.63020751069621,3.0,-0.620879681886705,-2.52145400251665,2.63020751069621,0.0048388190515352,0.0080581897043749,0.0093993931253669,-0.0296246634954344,-0.331495151547838,0.33407052190156,0.0215700311044974,0.199300402591979,0.201885688670643,15.4084931592303,1.90130996948757,1.77311471398884,0.0255175073751558,0.0505577782880246,0.129507004693272,0.393300932204344,0.0089213294171753,0.009393332545123,,,,,3.0,-102.460692774955,2.0047227312526,AttemptLanding,AttemptLanding,1,0.741765807253117,0.0849265321663373,0.0583367118854604,0.958370766656536,0.342441331247435
143,1.48276382484692,2.15768766403198,-0.645476585052953,-1.32325521835526,1.48276382484692,-0.0457347855028267,-0.0082004870634361,0.046464164611743,-0.0235182926668314,-0.0933029943762239,0.0971822741786506,0.0062681786105158,0.115965798429746,0.117535501739358,15.4462375362237,0.771211829473264,0.851647244792875,0.177261789344666,0.240207686453439,0.15745300668399,0.425680970290713,0.159080661749257,0.0354558566475021,,,,,1.50542716708844,-115.316950545559,2.251438180646,AttemptLanding,AttemptLanding,1,0.418910786973717,0.160376293995458,0.179821331511188,0.898618069744147,0.330020885918227
144,2.5933463833092,3.0,-0.543013735213456,-2.50174266529199,2.5933463833092,-0.0130097941684094,0.0183166782247102,0.0224667631289412,-0.0261898557923962,-0.337827938203223,0.339875431058781,0.0219412423461252,0.203125086397298,0.205119210662304,15.3794534079231,1.66933547801182,1.56512940930824,0.0625068825440218,0.240567740314789,0.130846889714468,0.413253156845992,0.0019293841370241,0.0094566681952254,,,,,3.0,-100.955060334027,2.27749506602378,HoldLanding,HoldLanding,0,0.73258287768158,0.09561597032907,0.061665874692969,0.943332906041903,0.34184582679357
145,1.65613219722005,2.24368715286255,-0.761418409970226,-1.45779260570993,1.65613219722005,-0.0483365322365131,2.40985433617323e-05,0.0483365382437681,-0.0324253352078665,-0.111811724722817,0.11773541955946,0.0075929491834595,0.106014214525989,0.108004579544788,15.4573677597312,0.836726409820564,0.659614151653035,0.174888662962964,0.240172804054321,0.11147557854731,0.409799252966509,0.156261094301536,0.0400857100219515,,,,,1.68254359450145,-116.590495520199,2.29307690055751,AttemptLanding,AttemptLanding,1,0.463236168500972,0.141061563697586,0.168662935289843,0.900798706964083,0.350455298423418
146,1.75049793959461,2.38253116607666,-0.829333204001789,-1.52846537044843,1.75049793959461,0.0056463288459948,0.0046817214343348,0.007334817313732,-0.0380270921791165,-0.122769880393695,0.130035995006279,0.008397426924875,0.124036986967884,0.125015600888816,15.4145335507147,2.06512476697284,2.05939953278472,0.0285028734543353,0.0541063260217779,0.139766044677821,0.424022778470811,0.0187325847375362,0.0054989002873907,,,,,1.779143412243,-117.297381887505,1.66960096621981,AttemptLanding,AttemptLanding,1,0.491802570736327,0.143552192465978,0.0964565088007753,0.95334158663188,0.337881757920969
147,1.44174258652571,2.01235795021057,-0.708176912114948,-1.24477044910615,1.44174258652571,-0.038288905202828,0.0014102950798399,0.0383148690959968,-0.0276940481124604,-0.0817716778456437,0.0874262449725167,0.0056391975066117,0.0982722997168525,0.0996526323096217,15.4146528450191,0.84649051231505,0.885661183640491,0.176604430469283,0.240139930757008,0.122113018907155,0.428829860304395,0.159534473361714,0.0345552089648272,,,,,1.48754464037965,-118.732441752547,2.19504758688182,AttemptLanding,AttemptLanding,1,0.404395216202114,0.135412849496693,0.164717450613664,0.898088021439994,0.345727547152375
148,1.67753481140008,2.37903380393982,-0.749174388952064,-1.48307702651251,1.67753481140008,-0.0596555062154906,-0.0128441673626891,0.0610225536754011,-0.032786367979396,-0.117462315820357,0.123701180371666,0.0079793295472202,0.130641859593146,0.13258308529066,15.4377945637677,0.892493941904283,0.943527371908238,0.176611461596135,0.240192894296051,0.128431020785284,0.427186059164981,0.157773461121274,0.0366396801784953,,,,,1.75445964810256,-115.915142708198,1.67501829876832,AttemptLanding,AttemptLanding,1,0.473859233431486,0.169024741495265,0.184859903238188,0.897268387450549,0.342919546317652
149,2.57102062550676,3.0,-0.61313183536623,-2.46256153104945,2.57102062550676,0.0057158648147718,0.0039596128269164,0.0069533908505007,-0.0291731212081386,-0.317720759578827,0.320314841551679,0.0206870489357283,0.205883414343171,0.208426613667553,15.3756705462803,2.03796647315447,1.9846704430397,0.0185154498860562,0.0567728492877986,0.137906573956555,0.433805984465487,5.10672635059207e-05,0.0049679259808116,,,,,2.89228411426449,-102.374592577792,2.3008351411185,AttemptLanding,AttemptLanding,1,0.727290822868645,0.0977951475835719,0.0605063036501783,0.959135842144018,0.338708189352642
150,1.52097288514144,2.30540490150452,-0.655015496885968,-1.34938188906,1.52097288514144,-0.0639812817818866,0.0029295889204711,0.0640483169934708,-0.0267645088305075,-0.0990821309536465,0.104624738839231,0.0067470589428583,0.145032768741632,0.146590711387539,15.4634737419461,0.721422469289527,0.71146334942518,0.176585870282906,0.240178678592555,0.139184568374097,0.393116930561797,0.155902554080062,0.0410864228780191,,,,,1.57055207434036,-114.528428258895,2.33690784266344,AttemptLanding,AttemptLanding,1,0.434910911648558,0.188239395130496,0.19717417852407,0.900448676282931,0.338140191833735
151,1.48056866618611,2.10509967803955,-0.662325399895308,-1.3135319670085,1.48056866618611,-0.0469225508299451,-0.0053042200639175,0.0472213990355564,-0.0250730296807877,-0.0916333129561265,0.0959562868613927,0.0061894493966461,0.102296554437416,0.103772850416704,15.4413359798045,0.871731990899405,0.88093118383592,0.176501255309654,0.240167402191798,0.157554316261657,0.462097732300921,0.159247142152314,0.0357950660181885,,,,,1.53043490962982,-115.371127707452,2.17442726074533,AttemptLanding,AttemptLanding,1,0.415572881066303,0.149176734156876,0.173298935760354,0.897978447400824,0.329975859439264
152,2.61040744334958,3.0,-0.652478766700735,-2.49484713206503,2.61040744334958,0.0043678014727938,0.0040707984445071,0.005970685863579,-0.0313437958754903,-0.325038143258802,0.327893227708549,0.0211812210669122,0.201077859785143,0.203665114624124,15.3859693473634,2.19428018702832,2.22982796728212,0.0165886082773969,0.050688907863299,0.137144578946074,0.418145061704555,0.0002556857961415,0.0073136854965037,,,,,3.0,-103.235441300153,2.40337303327212,AttemptLanding,AttemptLanding,1,0.736841674484712,0.0887529509880014,0.056024930723148,0.956944846077434,0.339046853801745
153,1.47482025260861,2.08172416687012,-0.693134214581524,-1.28448350108596,1.47482025260861,-0.0490368798079893,-0.0026247822741007,0.0491070775274768,-0.0277108431860669,-0.0884489217020013,0.0943435996887999,0.0060861026594398,0.116390303589785,0.117873735092667,15.3966193664365,0.980736698845798,0.946025826523115,0.176503754988108,0.240168546653691,0.14815419766116,0.444368979357718,0.155193987376742,0.041240589353736,,,,,1.53053947457772,-117.277382087191,2.48669596623625,AttemptLanding,AttemptLanding,1,0.416860147714162,0.14555634492221,0.171305490400913,0.896609274092333,0.334153689928373
154,2.62155766866553,3.0,-0.620470909557382,-2.51419947656062,2.62155766866553,-0.0132635810510709,0.0098709908131642,0.0165335731749644,-0.0305288872316989,-0.337905193791304,0.340575764137815,0.0219859484604829,0.202360226928007,0.204337016420665,15.398880682466,1.73209852148741,1.46890636386908,0.0624522741846574,0.240320366992196,0.139639624282989,0.434309175517548,0.0019515533178142,0.0100061213404564,,,,,3.0,-102.931426400997,2.15812385874396,HoldLanding,HoldLanding,0,0.739949448261606,0.0881806796323335,0.0574143543878875,0.943623110237013,0.337937944763116
155,1.65635975975318,2.54603934288025,-0.780242016233336,-1.4478678796467,1.65635975975318,-0.045845075016838,0.0100418951861933,0.0469319780344915,-0.0340858786005996,-0.111467817695133,0.117988087555143,0.0076103040332362,0.108996081313194,0.110849246105256,15.4311220755353,0.895275869755462,0.830551059519741,0.175885364581915,0.240225784521825,0.147557284572069,0.474796855069641,0.156567111371776,0.042905320831509,,,,,1.68981233095603,-117.495671617653,1.62246134010141,AttemptLanding,AttemptLanding,1,0.463865785155233,0.20878210217658,0.21045657898567,0.898497248979023,0.334418984634636
156,1.62852811713681,2.57243847846985,-0.727640035734703,-1.43205173717128,1.62852811713681,0.0045056745344452,0.0035534455723139,0.0057382992642198,-0.0326665982131191,-0.110519804394624,0.117682787182033,0.0075988108644722,0.166764067095626,0.16766272787527,15.3916434670257,2.07305936659356,1.87853720818155,0.0207028385715274,0.0714543556108434,0.136298781873763,0.482459841319733,0.0004970743127575,0.0078750148575124,,,,,1.64682358488304,-115.230680905002,2.2054188427246,AttemptLanding,AttemptLanding,1,0.467806710144871,0.213431852831707,0.131143675382173,0.958600321912432,0.339422763611661
157,1.63108732756352,2.58852744102478,-0.721448647752922,-1.43712085282266,1.63108732756352,-0.0823160582214397,-0.0177743158291053,0.0842131803479018,-0.032757345455235,-0.113839181736038,0.120921953764821,0.007798681281994,0.177842930928873,0.179697584353915,15.4603594286478,0.833273166989507,0.733464650876827,0.175826845012673,0.240198386546846,0.119979846410738,0.359220567913588,0.15700278471128,0.0394277540143193,,,,,1.69535374865113,-115.407012304463,2.2520183666681,AttemptLanding,AttemptLanding,1,0.470896137554389,0.230863108592565,0.222634245678891,0.899776494638999,0.34667562381745
158,1.6312911606475,2.25636696815491,-0.762513702184803,-1.43064145573015,1.6312911606475,-0.0492045642346338,-0.0098271776180752,0.0501763147456786,-0.0322704478664046,-0.108351923741559,0.114249067208224,0.0073702144854125,0.106882160310743,0.108601066382983,15.4102383657912,0.982226266415467,0.972840048650945,0.175610048991673,0.240174169457666,0.152909792068497,0.464169164911226,0.155614324477475,0.0396627118169129,,,,,1.65925020896733,-117.23842078182,2.12042212092824,AttemptLanding,AttemptLanding,1,0.456731189449263,0.149841047725874,0.173489354922573,0.896833740171499,0.332040092414002
159,2.58334556550884,3.0,-0.737685511543385,-2.44154321167272,2.58334556550884,0.0102025463812939,0.0057037875861722,0.0116886759511343,-0.0375793618162811,-0.311255551361125,0.315336069091455,0.0203667715623737,0.201872605849521,0.204371046977957,15.3777466631638,2.07989291037216,2.10052367161041,0.027762788340095,0.0554942915148043,0.139968686566096,0.401025873492503,0.0157805987479646,0.007102733353391,,,,,2.88835322200788,-105.56852442763,1.80376083161354,AttemptLanding,AttemptLanding,1,0.729766360197948,0.0958901716848858,0.0671305145829771,0.953272475542947,0.337791694859513
160,1.51910452834712,2.19586873054504,-0.676471842984707,-1.34229997170133,1.51910452834712,-0.0504252232695763,-0.0012701550527346,0.0504412176265067,-0.0268284619806046,-0.0958897066357033,0.101104797179093,0.0065206868038126,0.117916537158373,0.119451665726925,15.4119608007303,0.859571930734873,0.767340336670173,0.17604511397645,0.240171387361802,0.15498061620739,0.420873596172407,0.156435872560144,0.0393059755397367,,,,,1.56544004446909,-115.546181583882,1.60772426018237,AttemptLanding,AttemptLanding,1,0.42898487403795,0.161519502059393,0.180731837721261,0.899194560910736,0.331119726130049
161,1.68005644715072,2.57058930397034,-0.798687518658124,-1.44860614991013,1.68005644715072,-0.0751426935212329,0.010456796816544,0.0758667844928756,-0.0391169158721381,-0.113848403677769,0.123816658914671,0.0079869087503316,0.161312204147667,0.163185402241269,15.4016631583617,0.945311857953995,0.945949635389609,0.176301555125336,0.24022715649183,0.146833589837299,0.483960232765939,0.1583922832333,0.0359145512582612,,,,,1.70136515468512,-117.053321105748,1.8314715506877,AttemptLanding,AttemptLanding,1,0.48065213302178,0.214278803274774,0.212023689111961,0.896989310703918,0.334740626738978
162,2.56548508581699,3.0,-0.714861805608522,-2.42809098189216,2.56548508581699,0.0029861099289997,0.0066672610760448,0.007305424201524,-0.0363675109482189,-0.308884086470568,0.312823123882575,0.0202030527271965,0.210145194631962,0.212540841242978,15.3731122872522,2.11937791072288,1.83668453269492,0.0217918433005439,0.0570204965546614,0.138742967975321,0.416447829409965,0.0003678214553588,0.0046211801065046,,,,,2.85921158454158,-105.062668776886,2.16590963510041,AttemptLanding,AttemptLanding,1,0.72663752446646,0.0991051834614563,0.0613070154088936,0.958020730580017,0.338336458677635
163,1.5600674245024,2.64894223213196,-0.737054527443583,-1.34796301465293,1.5600674245024,-0.0741706483854589,-0.0169285248330017,0.0760779865331683,-0.0364357497016861,-0.107976337299516,0.116881456451827,0.0075378803143629,0.178767121114002,0.179536488587616,15.4533859963977,0.660172293353639,0.727101481759631,0.171572261340877,0.24385103464211,0.222298219589906,0.495850617230476,0.154535187112991,0.0049536830117294,,,,,1.71874998102098,-116.787170824054,2.37747227968334,AttemptLanding,AttemptLanding,1,0.451925277584829,0.258944462581065,0.225850322209183,0.903313861096528,0.301200791293375
164,2.44511906936251,3.0,-0.728431678183988,-2.30239195335846,2.44511906936251,-0.0091109983817529,0.0141574376387319,0.0168357753610247,-0.0379286517628873,-0.285378378711992,0.289836814480992,0.0187161990604091,0.216992651966371,0.218587965905103,15.3948092625823,1.93784297865449,1.68054824687837,0.0637947986376846,0.241682048913714,0.148497685944984,0.444997463879865,0.0019481401324572,0.0082383424901485,,,,,2.64390369362176,-106.697557678757,2.47790769888089,HoldLanding,HoldLanding,0,0.695749345011023,0.127934768209623,0.0806224618901525,0.939672383909114,0.334001028468896
165,1.60970695866834,2.27928471565247,-0.687765757823819,-1.44384147432934,1.60970695866834,-0.0479931578965344,-0.0040815073996925,0.0481663981166894,-0.0268652217293888,-0.110356304718675,0.114553019663861,0.0073891342883056,0.116427092702562,0.118323388131224,15.4142455013658,0.981807156792568,0.809056554338696,0.175719615236606,0.240169983094431,0.119674312866742,0.398044081257497,0.156375685531132,0.0412743798745709,,,,,1.65443912380199,-114.70021335318,2.05639679594711,AttemptLanding,AttemptLanding,1,0.45291986660447,0.15948550164282,0.18020047107513,0.898069120365666,0.34681141650367
166,1.65059338524987,2.46501445770264,-0.732096100270618,-1.461057207371,1.65059338524987,0.0061453923494968,0.0054337548418947,0.0082031420084665,-0.0312416457916082,-0.113547455595689,0.119513478222715,0.0077205686021595,0.139916055284287,0.140812866902665,15.4116810747574,2.26466486085151,2.27514381600934,0.0146130199696953,0.0489447726029129,0.154290531980808,0.446099222087918,0.0006691124804218,0.0085464553908522,,,,,1.6985678915868,-115.061450151433,2.47146729189954,AttemptLanding,AttemptLanding,1,0.468320809447166,0.18474865067009,0.114254375686996,0.95702356469696,0.331426430230752
167,1.50697866444652,2.19275689125061,-0.703736875711954,-1.31485381776126,1.50697866444652,-0.0430223690440415,0.0006602356976698,0.0430274348449704,-0.0288486054000767,-0.0924941702790731,0.0985649475927785,0.0063576278843022,0.120542811627875,0.122037583389323,15.436536758197,0.898347376291345,0.866303936662662,0.176891154103392,0.240170804576473,0.125904038309872,0.402971108812845,0.157554922452769,0.0359908907205794,,,,,1.53242316823457,-117.234742424214,2.03573087114304,AttemptLanding,AttemptLanding,1,0.426268493863604,0.162188464085831,0.180425085056172,0.89768930548938,0.344042649640057
168,1.71269331882464,2.68918418884277,-0.848558542699834,-1.45897100894939,1.71269331882464,-0.0828385359414224,-0.0024710696033996,0.0828753836908354,-0.0442385837746368,-0.117724298662663,0.129519831808627,0.0083552816820395,0.184184272749652,0.186170829786659,15.3580983673772,1.00195042592862,1.06917145584596,0.176047555152985,0.240238782887647,0.160196078100468,0.51042229509436,0.15546920669482,0.0413701540444711,,,,,1.76822611766951,-118.998443980142,1.54415321906411,AttemptLanding,AttemptLanding,1,0.493952384310569,0.2349042660974,0.225083677235945,0.89570312192385,0.328801743066459
169,2.4711951595485,3.0,-0.769456880305878,-2.31118950013686,2.4711951595485,0.0051194897786862,0.007112494573669,0.0087633757567814,-0.0409090069100364,-0.282492202857609,0.287790200594754,0.0185813950320221,0.218884389799201,0.221097085013806,15.413754134477,1.80717474183141,2.02596830517846,0.0182540434423015,0.0487983816929392,0.135751649490734,0.465625645140139,0.0001001781877051,0.0072319482923819,,,,,2.66549340284327,-107.193726307889,2.30728609194932,AttemptLanding,AttemptLanding,1,0.703204792882361,0.120587707990331,0.0750269478122264,0.960755425766629,0.339665933559674
170,1.72411545571065,2.68704509735107,-0.772606922890771,-1.51666608815454,1.72411545571065,-0.0721192855328902,-0.0034227874658787,0.0722004627395914,-0.0364923629674438,-0.125889509967101,0.133615718699374,0.0086172607380872,0.173647332233814,0.175608711340201,15.4218675159046,0.877626530219109,0.787101130590682,0.176170564841345,0.240260836748583,0.123138459853679,0.466131880045204,0.15532386018384,0.039721510112638,,,,,1.77840570795084,-115.675983280215,1.97452521105548,AttemptLanding,AttemptLanding,1,0.49488586379088,0.229895920871354,0.221414564766691,0.898834714530108,0.345271795620587
171,1.62816111018529,2.44900488853455,-0.80044302996987,-1.39167100970124,1.62816111018529,-0.0653725385163818,0.0037241340225661,0.0654785305752493,-0.038985495942805,-0.10776731933472,0.117855021842299,0.0076023523888299,0.17588876168077,0.177711706267715,15.4386209519441,0.938430265433768,0.917084877766406,0.176121129556395,0.240229017322454,0.147264402782666,0.424766348342917,0.159268952823859,0.0352810493727231,,,,,1.68221562017466,-118.331726157389,1.58433121379036,AttemptLanding,AttemptLanding,1,0.469718637302953,0.196694247400712,0.201632222194648,0.897360387668087,0.334549154318815
172,2.42146992085371,3.0,-0.849388533087261,-2.23293331765486,2.42146992085371,0.0068125026573669,0.0030383087038243,0.0074593238457897,-0.047021239573231,-0.265063326235622,0.271957286093247,0.0175659338644747,0.221957670146956,0.223988323258075,15.4069829543721,2.20547558429335,2.17887976189249,0.0273579119480017,0.0483203775049306,0.146734467365613,0.460874968431052,0.0133196784638963,0.0082278515422906,,,,,2.5789773418386,-109.450212225276,1.90263810503843,AttemptLanding,AttemptLanding,1,0.69052297687927,0.131536810512977,0.0878338894182298,0.951872537734539,0.334784681170839
173,1.57413654311283,2.11436033248901,-0.743347077616733,-1.37564144315547,1.57413654311283,-0.0375330804658085,0.0014277509297685,0.0375602263301263,-0.0307191263143708,-0.100564979380545,0.106343670973027,0.0068598460144493,0.112219109704293,0.113956307565668,15.4020660629888,0.938596684946298,0.941826782161886,0.176758209690456,0.240199172146553,0.151897810859774,0.488846533227397,0.158633732255805,0.0371094883624115,,,,,1.60572032516396,-117.151648626796,1.5658106390181,AttemptLanding,AttemptLanding,1,0.442561006343222,0.128436394103497,0.161060076869192,0.896846139341779,0.3324898618401
174,2.30030088683209,3.0,-0.750447611066027,-2.14236294304353,2.30030088683209,-0.0230238855211673,0.0001145433653839,0.0230241704448688,-0.0367974537364419,-0.248741366895689,0.253559511093899,0.0163670761271354,0.231146952363234,0.232575680078545,15.3538761468113,1.7605622042388,1.47861548432875,0.0630456409183472,0.240320971402609,0.130557620024595,0.453287891894221,0.0019096883572932,0.0097635820397845,,,,,2.36078838964489,-107.709824257803,1.92409615626188,HoldLanding,HoldLanding,0,0.659928705837599,0.161653398377673,0.101391182876636,0.943026497702081,0.34197439110018
175,1.64496449844257,2.40682196617126,-0.794561668932587,-1.42729919393157,1.64496449844257,-0.0527222640275254,-0.0131016504798091,0.0543257799712364,-0.0352253611347416,-0.107727399382673,0.114844665993772,0.007407954402115,0.114573602216236,0.116368503188669,15.4125376909515,0.904458278455987,0.967732303452737,0.177434945011186,0.240188855385861,0.150698015428855,0.460179636418693,0.158252445775668,0.0359135459214942,,,,,1.70036876942666,-118.357386427334,1.63278820089046,AttemptLanding,AttemptLanding,1,0.46193090022242,0.181377656567016,0.192220485529131,0.896572458636553,0.333023104253842
176,1.76634732297432,2.51156377792358,-0.888908053076945,-1.51222044814369,1.76634732297432,0.0026166561904692,0.0004490325200738,0.0026549048614224,-0.0434847598637437,-0.120266389014292,0.129747567688511,0.008377315093898,0.126636459440934,0.127683032960017,15.3869097004042,1.85421186458527,1.95678722114821,0.0264717190491028,0.0679062230632437,0.133959035058816,0.524070823965323,0.0167508282900569,0.005135942738909,,,,,1.79740384781532,-119.424856454763,1.85676720211234,AttemptLanding,AttemptLanding,1,0.496562559385155,0.168160434921513,0.110208689067688,0.9568205762304,0.340462651084971
177,1.9424743244312,2.89365434646606,-0.999888815283916,-1.63374202111906,1.9424743244312,-0.0937769179822604,-0.0057290352372039,0.0939517545924541,-0.0604878570809878,-0.146942719277059,0.164120906209384,0.0105854147326236,0.208375849540726,0.210933728263514,15.4625850383605,0.793841721822891,0.967952034542476,0.175890071829789,0.240291518205868,0.135732955080111,0.415827949181845,0.155558558777056,0.0426874986397927,,,,,2.00389774569212,-119.82849383685,1.5,AttemptLanding,AttemptLanding,1,0.560179898834355,0.231239993299795,0.223403859992231,0.89821229885652,0.339674242186617
178,1.82821423815401,2.57789874076843,-0.975096501256185,-1.53295728551934,1.82821423815401,-0.0525883761014197,0.0027035578661272,0.0526578249277338,-0.0525475392089039,-0.124358407853757,0.137099098845522,0.0088431206446027,0.123572774542488,0.12580200971066,15.4374268743162,0.9968331500438,0.887950550347761,0.176191589740761,0.240210019742026,0.16639514997448,0.475977751663879,0.158273284475943,0.0347106907345093,,,,,1.88108853169074,-121.75609313085,2.28029841832429,AttemptLanding,AttemptLanding,1,0.512684198783201,0.17833294765833,0.189965519942309,0.897095190340829,0.326046600011342
179,2.49562175816118,3.0,-0.654925480746586,-2.37246797602404,2.49562175816118,0.0080846345956827,0.0048170936047447,0.0094109355189897,-0.0324474013509184,-0.297254726633573,0.30056801527671,0.0194063471545953,0.218980941056928,0.221268742778309,15.3992703594887,1.91752017716132,2.01328278339476,0.0165636937592416,0.0539707222784016,0.136083362248338,0.47844791067473,0.0003336636046471,0.0086498115506951,,,,,2.73243854491602,-104.018907315581,2.36972173991166,AttemptLanding,AttemptLanding,1,0.70975288406531,0.115210442592216,0.0724199465091628,0.96083327271601,0.339518505667405
180,1.80170731206198,2.67031621932983,-0.907380994723647,-1.5361197432496,1.80170731206198,-0.0593830837415254,0.0083831499369156,0.0599718920621805,-0.0467039329380679,-0.125920303730819,0.137142122261681,0.0088461546651226,0.139946421860647,0.142055620366054,15.4196956739006,0.987448754349571,0.953428766875278,0.177318615661992,0.24023093612343,0.146341781578924,0.382886905056099,0.158580921936134,0.0352197984208739,,,,,1.85620598441334,-119.444845846151,2.13033411698558,AttemptLanding,AttemptLanding,1,0.508866407289739,0.206431851013334,0.207146719783166,0.896090940216523,0.334959208187145
181,1.81688198286134,2.58447265625,-0.887492494156009,-1.57056125686709,1.81688198286134,-0.0534679019675824,-0.0021220998834241,0.0535099976521232,-0.0435840102854295,-0.130471946503245,0.139433336560931,0.0089952154567721,0.127813861135363,0.130079117047347,15.4114296706776,0.964015319603028,1.03208863172105,0.177014915128182,0.240221152926991,0.172426564516884,0.461344184410629,0.15933372550175,0.0348186989790683,,,,,1.8944468966032,-118.434379956689,1.85756512445385,AttemptLanding,AttemptLanding,1,0.510517685505826,0.182518067748671,0.192987174844389,0.895808868532649,0.323365971325829
182,2.44616631879456,3.0,-0.452140695413521,-2.37034627908098,2.44616631879456,0.0043285843208234,0.0082038122909526,0.0092757306088342,-0.0195077139696177,-0.296815858722805,0.298135036849125,0.0192537980666416,0.221047525583753,0.223363143403938,15.3948990250793,2.02463283710772,1.95168290383573,0.0185335932483074,0.0593836958301333,0.133764033873985,0.502449441117552,0.0002073820750977,0.0088469074993412,,,,,2.61222307005049,-99.3162222201901,2.29262538326197,AttemptLanding,AttemptLanding,1,0.696983647026003,0.126313128882844,0.0790971044133489,0.959490722554148,0.340549318278229
183,1.82759284253088,2.51234674453735,-0.96591715029468,-1.53623376084054,1.82759284253088,-0.0555456424731,0.0066604681586099,0.0559435450596519,-0.0514232949084029,-0.124748363785594,0.137289695141214,0.0088556752018282,0.125378408214652,0.127580855770047,15.4096495965905,1.02527148120012,0.907434010981834,0.176905813681368,0.240237955729383,0.177925179969369,0.420826317808638,0.155407502283779,0.0423234310583899,,,,,1.87171872539055,-121.350351106356,2.43690704664083,AttemptLanding,AttemptLanding,1,0.512874262495578,0.164325944545725,0.183055906309135,0.896361550006458,0.320922142235836
184,2.52181518770033,3.0,-0.225238621412217,-2.47958359282012,2.52181518770033,-0.000492503595355,0.003363177522042,0.0033990473424486,-0.009943228039504,-0.317637940721435,0.318094672976632,0.0205334941573947,0.21769625112848,0.219440630295609,15.3946479159894,1.7178314555741,1.35416000508319,0.0796063077080477,0.240924564343766,0.149303890465734,0.509010065875224,0.0843835430678692,0.122701471775952,,,,,2.70378156394852,-95.0700514349474,2.49088702119398,HoldLanding,HoldLanding,0,0.716372176112544,0.108214741446874,0.147051358796614,0.936059770383669,0.333642715348563
185,2.0399597376091,2.85708546638489,-1.20706350407693,-1.62062648843446,2.0399597376091,-0.0880513181337277,-0.0040660128948481,0.0881451478298607,-0.0837654171814065,-0.14364001611244,0.171162848943296,0.0110397984224105,0.174192694829905,0.17602762298191,15.4396761373948,0.781217392642158,0.969910903835486,0.176857153137697,0.242132030136187,0.245353143630098,0.51953065136753,0.118586000639821,0.0050121695332253,,,,,2.15708888634091,-124.745911655981,1.7208323963102,AttemptLanding,AttemptLanding,1,0.57919478795881,0.200013232743359,0.17453543592226,0.897812558244542,0.290954158386623
186,2.064489923592,3.0,-1.12726984503347,-1.69694314007055,2.064489923592,0.0087473554904977,0.0043211823939584,0.0097564770977539,-0.0741953297106276,-0.156794775321341,0.179582049595363,0.0115939896623222,0.215453914851025,0.216801871284172,15.4235246722509,1.80049058971211,1.77190441863806,0.0267805786790699,0.0493789532570873,0.124900965649418,0.375445614712653,0.0170089938011091,0.0081393536585733,,,,,2.10837557196529,-122.363616262261,1.61840400960455,AttemptLanding,AttemptLanding,1,0.593891020548034,0.212278454659722,0.13788639056308,0.958540892737714,0.34448845971137
187,2.02397822689366,2.99467778205872,-1.10326999466228,-1.66329847967158,2.02397822689366,-0.0825640806312509,-1.87549946621108e-05,0.0825640827614134,-0.0717753582216097,-0.152001443761474,0.174292790145343,0.0112416054139743,0.202586253522992,0.205236607707355,15.4517425397973,0.859660208829668,0.897809693245286,0.176004837588414,0.240319293322829,0.149217299977035,0.413475813708586,0.158452598231389,0.0365091223418689,,,,,2.09849345512064,-122.244984043751,1.84934230981482,AttemptLanding,AttemptLanding,1,0.580774848713113,0.233544148418397,0.223825910530719,0.898188889118061,0.333681200010207
188,2.07393337016138,2.80747222900391,-1.1641213328518,-1.70078442960505,2.07393337016138,-0.0586098119731879,0.0086993284281904,0.0592519060843949,-0.0733230201962419,-0.153079587888426,0.172635526237368,0.0111346930883752,0.141201308603666,0.143871311010643,15.4678086106738,0.969029201178837,0.862646683945275,0.175860475406068,0.240297788057295,0.132415494067059,0.465810168195866,0.155448910644975,0.041573283915125,,,,,2.08252249604559,-123.526280590972,2.28927316918716,AttemptLanding,AttemptLanding,1,0.581823160911829,0.175909092688375,0.189751418131443,0.897678023199562,0.341148669303529
189,2.48981009996854,3.0,-0.768880904700993,-2.33277161371504,2.48981009996854,0.005132556241756,0.0073370350445249,0.0089540614706051,-0.0405728488577823,-0.287011698171769,0.292076117513164,0.0188603011227002,0.219228305813745,0.221464165163811,15.3304096295763,1.92346773870476,1.93530355882584,0.0269988332892758,0.0625326275455113,0.133994399023399,0.518250923783609,0.0184347405502384,0.0087941715063665,,,,,2.71977714743149,-106.924123588306,1.54386963578185,AttemptLanding,AttemptLanding,1,0.708242193024374,0.116434305443355,0.081251681836111,0.956181666017622,0.340446933767378
190,2.01819466658541,2.82055616378784,-1.10478759836069,-1.66752844184404,2.01819466658541,-0.0638590938585973,-0.0060090308839098,0.0641411905144028,-0.068129867826384,-0.148621797654846,0.167371497048573,0.0107969247347749,0.159234427364548,0.161864278559554,15.4121387591261,1.04167201662324,1.06710621329906,0.176303076840646,0.240289054824435,0.147168726467817,0.459862504540716,0.157383006364254,0.0349409287984227,,,,,2.06580628279313,-122.281189709167,2.45860138240311,AttemptLanding,AttemptLanding,1,0.570558100134686,0.192290555131522,0.198028128197806,0.895279489773145,0.334591677125414
191,2.01428241182018,2.81431818008423,-0.994208010004274,-1.73699749228821,2.01428241182018,-0.0537568981642194,-0.0050965619716929,0.0539979540739236,-0.0548412701377054,-0.159332503767926,0.170618731377254,0.0110067453047052,0.134764849259941,0.137640432620535,15.4287789727274,1.00235559295431,1.05711551558182,0.176664112165389,0.240328269763479,0.184203488241138,0.462876361656339,0.158943211793753,0.0341148175086425,,,,,2.07634549688122,-118.754548572983,2.4297771532255,AttemptLanding,AttemptLanding,1,0.564670063009488,0.189907672772964,0.196991419312629,0.895486385207379,0.318131783003939
192,2.47599397016608,3.0,-0.962247012908531,-2.24821547776897,2.47599397016608,0.0085848685801381,0.0018009858091009,0.0087717454604443,-0.0571100411053742,-0.267938287059142,0.277457816406511,0.0179233485728215,0.216014494764098,0.218097672059158,15.3785104625351,2.18512517511584,2.17623247146632,0.0285062554609893,0.0711437967254278,0.13572248045141,0.497110472193502,0.0212817369708122,0.0080839405086624,,,,,2.68099720733185,-111.612146549017,1.78980281931398,AttemptLanding,AttemptLanding,1,0.703884593122787,0.119509510047046,0.0841038705234559,0.951479062189217,0.339678897577151
193,2.05185470226649,2.89762568473816,-1.07549068772357,-1.72472786750074,2.05185470226649,-0.0557979096566833,0.0146754091969474,0.0576955315180754,-0.0648335344142345,-0.158985694247538,0.175533136367754,0.0113246118449021,0.158914901140658,0.161683101413757,15.395461562913,1.09640188624588,1.09616649069911,0.17741649960141,0.244289067036628,0.164373393385645,0.453792443144239,0.157554532015774,0.0355436439640076,,,,,2.11900443077325,-120.570247299149,1.81612821891331,AttemptLanding,AttemptLanding,1,0.579497874220481,0.200875985167773,0.203474788993577,0.894064427237584,0.326945158495269
194,2.4911348392542,3.0,-1.00463804020468,-2.2433402531059,2.4911348392542,-0.0272551622103786,-0.0019149888149264,0.0273223543874854,-0.0594652417503291,-0.267743499700348,0.278357506665597,0.0179724927704523,0.226331733410602,0.227940225720289,15.3784173908461,1.64203901027293,1.65998878467636,0.0633403184771164,0.24029421463472,0.143765500402233,0.494656823773818,0.0018728588078435,0.009652151703654,,,,,2.61715863552686,-112.220792726245,1.66884377675611,HoldLanding,HoldLanding,0,0.709890668945178,0.119503759472178,0.0760445107224647,0.942385336658269,0.336104222043452
195,2.04200384423539,3.0,-1.02077026229217,-1.75102412561474,2.04200384423539,-0.0656668670365586,-0.0011148528795643,0.0656763300081554,-0.0580412371784961,-0.162251323505912,0.175117345551722,0.0112985381298862,0.139515442829484,0.142314982906524,15.3922830965318,1.18203267165147,1.09706621947502,0.176128594881853,0.240272873955796,0.173351947130258,0.470598057445983,0.1588669661041,0.0362631324043513,,,,,2.08957514186263,-119.371133784789,1.6962437086466,AttemptLanding,AttemptLanding,1,0.572997355044077,0.227589795548531,0.220348011421412,0.894028496985937,0.32295469016433
196,1.93667344584513,2.81770586967468,-0.904601928392295,-1.69823510491649,1.93667344584513,-0.0003500045156905,0.0030663891898053,0.0030862996977544,-0.0456838145228808,-0.152160944412016,0.160629321640604,0.0103708959658133,0.14130989052178,0.142540946227811,15.3930921204525,1.78332958139599,1.83642092932959,0.0262358717396054,0.0593618174499011,0.125100489034296,0.478821303034671,0.0114850292247106,0.0068340412334906,,,,,1.98818975952798,-117.123132335998,1.94744300322049,AttemptLanding,AttemptLanding,1,0.54495444147093,0.198798116972905,0.126868433520035,0.958441167260211,0.344399782651424
197,1.89361214957781,3.0,-0.855236726920148,-1.65904228918194,1.89361214957781,-0.0791142827053954,0.0053246070138854,0.0792932605449009,-0.0452035428366258,-0.150572530747326,0.161024304580236,0.0103858361281769,0.192618935793228,0.195002066527904,15.4635500295528,0.968886389549433,0.863397463401523,0.175905635943714,0.240301441171555,0.165679886267784,0.413205150353078,0.156084098640282,0.0417336581951331,,,,,1.96491164649544,-115.571452830696,1.5,AttemptLanding,AttemptLanding,1,0.543963653192997,0.263474364111557,0.242631204681048,0.897650666040671,0.326364494992096
198,1.84651066080944,2.7696578502655,-0.830760981375216,-1.62038462410548,1.84651066080944,-0.0755809714537743,-0.0059270070942854,0.0758130111457918,-0.0425954188035693,-0.143034164868393,0.152480191612209,0.009837887624859,0.183375568108496,0.185787255446397,15.3837518768284,1.11128152174493,1.09177923757199,0.17613681964822,0.24026489888953,0.187307833665429,0.450832956899006,0.158588049525433,0.0369355203521509,,,,,1.88489007794024,-115.359098105949,1.64396975888987,AttemptLanding,AttemptLanding,1,0.529560293971796,0.221607169671009,0.216878977679338,0.894621827066971,0.316752073926476
199,2.48213681927493,3.0,-1.1254074444025,-2.17535187675475,2.48213681927493,0.0067695767631551,0.0048338573867655,0.0083182538304524,-0.075115922820436,-0.250901571311225,0.267345958165015,0.0172656857987921,0.219277381371887,0.221253583613978,15.4030340308764,2.12964084972696,1.87233296573605,0.0279663512237387,0.0535424620222953,0.147054835865022,0.471208684257085,0.0175088640718878,0.0063198240635939,,,,,2.68563096804021,-116.007396076949,1.5,AttemptLanding,AttemptLanding,1,0.706153868529443,0.118044228865391,0.0809063725258248,0.954572744409493,0.334642295171101
200,1.90501714074934,2.69578695297241,-0.835598778629444,-1.69134295452933,1.90501714074934,-0.0662767264917343,-0.0016792299098857,0.0662979961050891,-0.0403553541888497,-0.151855575477114,0.159282089955533,0.0102775558217657,0.149745919431604,0.152315968586965,15.3565932887864,1.12313285939184,1.11280502142001,0.177184801854329,0.240228299272578,0.155190248146089,0.476055045218682,0.158916790560285,0.0350555045446054,,,,,1.97177383483815,-114.893051128023,1.95428630630386,AttemptLanding,AttemptLanding,1,0.538467764583883,0.190077840369458,0.197423845113173,0.893839515723599,0.331026556379516
201,1.81015002847518,2.76198387145996,-0.777473072358881,-1.60457657120186,1.81015002847518,-0.0779699320455533,0.0010763892702333,0.0779773615676324,-0.0383184019226867,-0.14062392140155,0.148901314739409,0.0096037963072019,0.186282897678758,0.188515612288322,15.4467109007132,0.864080714567693,0.841712189684235,0.174950451534229,0.240237261115069,0.139529914635011,0.454577706112964,0.156266265597034,0.040373589293073,,,,,1.87135485490829,-114.338554000358,2.38650656962951,AttemptLanding,AttemptLanding,1,0.520409796717712,0.228458464292309,0.221208057371548,0.899122115699478,0.337986704606662
