scenario_id,mean_wind_speed,max_wind_speed,wind_velocity_x,wind_velocity_y,wind_velocity,wind_acceleration_x,wind_acceleration_y,wind_acceleration,wind_body_force_x,wind_body_force_y,wind_body_force,mean_wind_body_risk,mean_wind_gust_risk,mean_wind_risk_raw,min_thrust_margin_n,mean_abs_roll_deg,mean_abs_pitch_deg,mean_abs_vz,max_abs_vz,mean_tag_error,max_tag_error,stability_std_z,stability_std_vz,mean_imu_ang_vel,max_imu_ang_vel,mean_imu_lin_acc,max_imu_lin_acc,wind_speed_cmd,wind_dir_cmd,hover_height_cmd,gt_safe_to_land,label,success,onto_wind_condition,onto_gust,onto_temporal_pattern,onto_drone_state,onto_tag_observation
1,2.03948185361665,2.74511432647705,-1.26252461968472,-1.58323861844595,2.03948185361665,-0.0592949222103206,0.013360866217548,0.0607815806475217,-0.0862211037950511,-0.13179520983418,0.161386405683592,0.0104092821956575,0.116558732863752,0.119459482168841,15.4643904317034,0.795852503627179,0.999763085777034,0.178623572810895,0.240244517085142,0.116113777687673,0.33408879102948,0.157871109754558,0.035499565485076,,,,,2.0716688985117,-127.374480982322,2.31472368639318,AttemptLanding,AttemptLanding,1,0.567753724064875,0.169910596178969,0.185020228279738,0.896579805392091,0.348393876583256
2,2.24458460967869,3.0,-1.30639365935624,-1.78499624353837,2.24458460967869,0.0040479665894747,0.0093725679872477,0.0102093615953733,-0.101867505408019,-0.182721012160919,0.219125438044275,0.0141346066830316,0.229730897636517,0.230713857842493,15.4382213076822,0.858795718687801,1.07692755339701,0.0448768518229553,0.146920614900735,0.288732326181968,0.635078196131498,0.0172216491888892,0.0193967610993161,,,,,2.42882567996652,-126.095851442396,1.92963867692304,AttemptLanding,AttemptLanding,1,0.644698667482817,0.171840179114779,0.117811541447519,0.962352319807856,0.271674521696903
3,1.5925629031119,2.56168007850647,-0.992178522609868,-1.23001718655911,1.5925629031119,-0.04839948450154,-0.0235744190385677,0.0538355211084725,-0.0607445823003845,-0.0918775345758544,0.113120314983024,0.0072954126783331,0.144510506428701,0.14533606834287,15.4576308391231,0.531494997238257,0.796757482153182,0.162578114292812,0.245170000847787,0.250897930985038,0.480314363834786,0.173279077063795,0.0051110903600271,,,,,1.87319628751653,-127.297520073929,2.07558770789554,AttemptLanding,AttemptLanding,1,0.453750654498415,0.227921210000331,0.2156242274524,0.908274673372661,0.288489808451094
4,2.24166188069752,3.0,-0.63061109124586,-2.12098389912416,2.24166188069752,0.0099021934158658,0.015861765138871,0.0186989044536283,-0.0305551547766115,-0.254885839955951,0.258356019327367,0.0166664760230893,0.216412215691449,0.217234329946009,15.4082726249092,1.07178673760991,0.851220896397264,0.0569382127268437,0.242548653317312,0.288931381113466,0.655756436548177,0.0038213388084379,0.0049655741007004,,,,,2.46779887999601,-105.553838771394,1.77771395416276,HoldLanding,HoldLanding,0,0.641223367508541,0.174054209326223,0.107936561708829,0.956421547940808,0.27158605283846
5,1.82146612830358,2.83332538604736,-1.06533717957032,-1.44703791613695,1.82146612830358,-0.0755399838077382,0.0056414843965879,0.0757503498333196,-0.0664546915435219,-0.115353846574405,0.138821235016272,0.0089550416723077,0.177267983154916,0.17962393713575,15.4495256148957,0.835131906298971,1.07350557089951,0.178526590095321,0.24026275747847,0.151606246185947,0.413793826874456,0.159551892005394,0.0359466361109265,,,,,1.88084050141636,-125.058018224367,1.5,AttemptLanding,AttemptLanding,1,0.521649088308105,0.24155589712846,0.22891699431981,0.895740267631494,0.332619446139579
6,1.86904367475605,2.70103812217712,-1.02983889612696,-1.53829562996499,1.86904367475605,0.0049518706562639,0.0028755267903791,0.0057262271452114,-0.0592760150355611,-0.126178687095695,0.142981720092208,0.0092321243604591,0.156664325131016,0.157733411107151,15.4154015566857,2.04441885750329,1.97573785897688,0.027247605147964,0.0569878260347608,0.134296829309605,0.507825599896216,0.0095729075164926,0.0076919741735515,,,,,1.9161886291726,-122.783489357006,1.93360649449493,AttemptLanding,AttemptLanding,1,0.529958328823044,0.188248558979696,0.120000842468359,0.954789251796531,0.340312520306842
7,1.92415338190826,2.66684484481812,-1.07622668241934,-1.57899194052044,1.92415338190826,-0.0462356039068458,0.0059651584006184,0.0466188179105306,-0.063773606248962,-0.132169257939355,0.149623255695927,0.0096581690364378,0.136202626560438,0.138666933203577,15.3266911683566,1.29343294308722,1.37586046565595,0.177456897571323,0.241282999285117,0.155137754865921,0.473284336429468,0.158472096313075,0.0368852430576465,,,,,1.96867067391655,-123.586570068552,2.3420232174459,AttemptLanding,AttemptLanding,1,0.540840955149585,0.175652362438314,0.189236275926126,0.890298531574214,0.331049886726257
8,1.89222921551885,2.6292130947113,-1.09617572871448,-1.51929665893537,1.89222921551885,-0.0505751945474651,0.0198926832699128,0.0543467492237669,-0.0673949147460034,-0.124521350869602,0.145922032028663,0.0094133656196921,0.15991296262682,0.162196184198567,15.3546679452031,1.00171741096251,1.06284636253382,0.177254946159536,0.243317910939792,0.158554790022117,0.495960595958346,0.155939382584216,0.0408763343679317,,,,,1.96461919299708,-125.030810267647,1.82002783198275,AttemptLanding,AttemptLanding,1,0.537033694311406,0.175784943509326,0.189641479953586,0.895150954414189,0.329531204434615
9,2.61601522784905,3.0,-0.818479556082495,-2.45134762431959,2.61601522784905,0.0085490612674826,0.0039422268904928,0.0094142233567775,-0.0437616210164082,-0.313107077428698,0.318391150421685,0.0205609708441484,0.19708709814369,0.199487166741254,15.421424611565,1.90870774009069,1.95866996042767,0.0299959500244157,0.0502109167280384,0.134362933821324,0.459456921285293,0.0226010031942617,0.006084492651738,,,,,2.98365709536118,-106.900241715489,1.58819038663995,AttemptLanding,AttemptLanding,1,0.737501494107998,0.0881225146827059,0.0651309419006345,0.954615485912291,0.340283140523856
10,1.87792932665026,2.59241437911987,-1.11451747799512,-1.49332627709608,1.87792932665026,-0.0590052067884007,0.0014539725347065,0.0590231180494017,-0.0679170043923456,-0.118270461200102,0.139815312830174,0.0090166922259865,0.126896980882377,0.129198123891078,15.4630362137542,0.846969907954293,0.75910014875322,0.176618501911583,0.240250608677359,0.129659776520592,0.403561471780002,0.159829320628413,0.0353319878804792,,,,,1.92399487038037,-126.353098118705,1.94428418211336,AttemptLanding,AttemptLanding,1,0.526620778551618,0.171580041781387,0.186831274274362,0.899071627170078,0.342373432657515
11,1.85582137430036,2.69074416160583,-1.14821072823654,-1.43953233087165,1.85582137430036,-0.0596181956810943,0.0068979050009869,0.0600159174692172,-0.0722807859149013,-0.110980353145254,0.136150400638892,0.0087829849662178,0.135417066086852,0.137575696240601,15.4253552053852,1.00536202229074,1.08901926540894,0.176903238052915,0.240244248515737,0.172572991187538,0.439132121695814,0.155991398877039,0.0400391385170675,,,,,1.90759543141243,-127.844704273722,1.81009533670662,AttemptLanding,AttemptLanding,1,0.522400839061551,0.198860545346421,0.203205524553349,0.895092527998759,0.323300892805539
12,2.61886798259008,3.0,-0.78621568506306,-2.46191277735539,2.61886798259008,0.0073900753920669,0.0016057714508129,0.0075625204960171,-0.0418839844509791,-0.316708888660845,0.321677041105195,0.0207728865976299,0.203425055059056,0.205880728150935,15.3693029918235,2.13594528837813,1.91779078932187,0.0194217541661144,0.0710745200254006,0.129932226918797,0.499371062436856,0.0001100933161316,0.0058881907443817,,,,,3.0,-106.299635778902,2.2878716762652,AttemptLanding,AttemptLanding,1,0.739540940987541,0.0871411660081687,0.0544747902383107,0.9584383394493,0.342252343591646
13,1.95356099992185,2.64903259277344,-1.02930896999127,-1.64700226535132,1.95356099992185,-0.0451861719706384,0.0044933645279404,0.0454090350276358,-0.0585104088610098,-0.144267031337361,0.157867105555789,0.0101831232580904,0.132643311667629,0.135133947479296,15.4324997064362,1.01295898084476,0.906981049221311,0.17702035540444,0.240294740690163,0.149799832132553,0.421680869690204,0.158396770554503,0.0355054925534946,,,,,2.02726066309477,-121.319262228342,1.76848648932482,AttemptLanding,AttemptLanding,1,0.547976389475019,0.164806098146674,0.182193311780165,0.896404579204404,0.333422296829977
14,2.65393129211341,3.0,-0.721669625022794,-2.52018613572382,2.65393129211341,-0.0239739109668986,-0.0093182047226892,0.0257211458979325,-0.0341651949825464,-0.325914212486827,0.329280581429787,0.0212547270621209,0.203779645310443,0.205785019288455,15.417753708159,1.71524036869811,1.46176110054742,0.0632622023305895,0.240199326942292,0.125604461497741,0.409555558089323,0.0018765118187956,0.0093417064638113,,,,,2.96211416560549,-104.652706865072,1.53001191408636,HoldLanding,HoldLanding,0,0.748872015087934,0.0825810026891032,0.0537795910349187,0.94340674443349,0.344175794889893
15,1.73731556534767,2.33726000785828,-0.927134727173612,-1.45563041671506,1.73731556534767,-0.0440849304783275,0.0011038020289029,0.0440987468551883,-0.0469815705616892,-0.112820828177339,0.124152708003357,0.0080087082457078,0.128316540218718,0.130247732591866,15.3833096208886,1.07882199360897,0.951777679977647,0.176882308923886,0.240259921949252,0.174184052291047,0.494035575323612,0.156702689591132,0.0407022746602841,,,,,1.78867162897179,-121.8764556945,1.92638722526385,AttemptLanding,AttemptLanding,1,0.489333697277752,0.143072269821671,0.170289828860477,0.895604133817019,0.322584865648424
16,1.76023053604624,2.57606339454651,-1.00015062851273,-1.43387666476871,1.76023053604624,0.0042405966450921,0.0021039760870583,0.0047338541677242,-0.0544976362223532,-0.108354398095921,0.123664704925128,0.0079863173047594,0.122609493780757,0.123555962368581,15.4127488306689,1.87582966153892,2.23111719802461,0.0179412495416578,0.0715727441443741,0.139459877902961,0.484614035646859,0.0005919127648857,0.0065369472280617,,,,,1.79698325918466,-123.928221238646,2.332388643469,AttemptLanding,AttemptLanding,1,0.494106002086046,0.184430266426644,0.113298303915231,0.958760507046886,0.338017832043128
17,1.85110582129375,2.68525290489197,-1.01015271628967,-1.52787447931114,1.85110582129375,-0.0726119337363592,-0.0064028873350845,0.0728936889391613,-0.0573150048684843,-0.125759284870741,0.14205704322857,0.0091642075323566,0.149540218582325,0.151659214296513,15.4218021195563,0.86537074276347,1.15324005984885,0.176805086862044,0.240271260859222,0.156520055605612,0.439047835812431,0.159818028693817,0.0353705975145312,,,,,1.90606506718967,-122.683382350962,1.79625798736282,AttemptLanding,AttemptLanding,1,0.52396006187097,0.201046936781778,0.204520432503926,0.895736943119881,0.33043553084195
18,1.82650099694729,2.80989336967468,-1.05540559520675,-1.45871024627161,1.82650099694729,-0.0736471855121068,0.0128591517223386,0.0747613918869412,-0.0653648111732913,-0.116554600157343,0.139477118737715,0.0089970474070282,0.178914754348921,0.181080331605834,15.4297446246967,0.886199743584928,1.03692959446254,0.176513571751609,0.240276585320684,0.163115857704932,0.401979163094896,0.157337059914699,0.036732053224542,,,,,1.87952489310621,-124.36494621675,1.83434447039986,AttemptLanding,AttemptLanding,1,0.523282998840444,0.234969539042936,0.224266415873542,0.896632912182394,0.327504063242253
19,2.62263808800624,3.0,-0.78205904070759,-2.46940959315543,2.62263808800624,0.0084933741945366,0.0024623427838851,0.0088431067614143,-0.0409081649956033,-0.317598765216192,0.322215670612609,0.020807630723503,0.194703705136741,0.197177296469418,15.4206888766152,2.04500684069404,1.89953433694886,0.0280306467974815,0.0485224518349282,0.143077058644552,0.444120246536188,0.0082395265069578,0.0080703301869079,,,,,3.0,-106.031594526481,1.91990793641663,AttemptLanding,AttemptLanding,1,0.738805616095548,0.0865276664381887,0.0585132771662953,0.954991853062636,0.336410196157977
20,1.89887908020535,2.698166847229,-1.02171905495555,-1.58774800818839,1.89887908020535,-0.0550763735385096,-0.0071178670889534,0.055534412340903,-0.0570115304938535,-0.133267159215492,0.147038143451968,0.0094849013849991,0.121144460444781,0.123486444005795,15.40348230453,1.03876854258272,0.976360284349767,0.17669530472065,0.240241516993591,0.141409067159693,0.42464689937672,0.159888258930042,0.0347392099134597,,,,,1.95533603544456,-121.682915799118,1.72005537682475,AttemptLanding,AttemptLanding,1,0.531065043522586,0.190021056509488,0.197706522287576,0.89581919257092,0.337151525706803
21,1.91422091794494,2.83117651939392,-1.06370273517889,-1.56158526757565,1.91422091794494,-0.0796330961298051,0.0005098494503322,0.0796347282639979,-0.0659264280185657,-0.133370992710608,0.154142605589057,0.0099442275325809,0.187155407747632,0.189495009368611,15.3901686330122,1.01597858306879,1.16867040405053,0.175992427814722,0.240306955538573,0.171450717583916,0.520822991509927,0.156352078179346,0.0419155019711151,,,,,2.01006102178809,-122.843348050567,2.38640537263124,AttemptLanding,AttemptLanding,1,0.548357913325706,0.220914710507754,0.217280639545575,0.89483868690813,0.323799681073815
22,2.64198720375431,3.0,-0.741872162680522,-2.50107829664706,2.64198720375431,0.0061982101268824,0.0054150781694535,0.0082304848191513,-0.0378972458874202,-0.324437281261014,0.328425837132649,0.0212072454511341,0.189770778867154,0.192403446713071,15.3394718133496,1.94796621315937,1.90627138405418,0.0200952504826484,0.0739015568673743,0.135377214618695,0.525975943678735,0.0002126441024097,0.0054740477136438,,,,,3.0,-105.373889448931,2.24469438826236,AttemptLanding,AttemptLanding,1,0.743010610343764,0.0820618013721246,0.0513221521181961,0.959669079351998,0.339832349058358
23,1.68811884119704,2.61450505256653,-0.838487212631455,-1.43693599566653,1.68811884119704,-0.0626639035526084,0.0074807351029105,0.063108844119747,-0.0426864588873113,-0.113001096339072,0.124477152866174,0.0080300629349121,0.173601876012956,0.175522529863242,15.3943787340121,0.998176714680301,0.986670676077278,0.176691530796845,0.240211523984471,0.175314102444745,0.382749092070239,0.159134707474865,0.0353392212514551,,,,,1.75191981509009,-118.497538474994,1.79211687778959,AttemptLanding,AttemptLanding,1,0.485269530291859,0.220006852313422,0.215581273953169,0.896059005102768,0.322082621135669
24,2.52760393619537,3.0,-0.571166301507867,-2.42748155508074,2.52760393619537,-0.0012366873109893,0.0018023560353609,0.0021858368611047,-0.0277578047059173,-0.319951482496028,0.322373074412612,0.0207918331567265,0.199100068326487,0.200044278645734,15.4535461917231,1.03856316042842,0.697098872752097,0.0679851814639579,0.235399585813666,0.398596931900964,0.89118912992688,0.045569084736643,0.10965048813014,,,,,3.0,-102.185830974197,2.00469343920434,HoldLanding,HoldLanding,0,0.714036572047913,0.10668985111391,0.124139741992561,0.952370064721603,0.222845808044016
25,1.71910019017555,2.58112406730652,-0.939674369067842,-1.42258890082746,1.71910019017555,-0.0497260469767747,0.0044704523469838,0.0499265930354061,-0.0491752420686252,-0.108036884696701,0.121278147112193,0.0078213341603445,0.131683549996073,0.133639477163984,15.473219848108,0.750667122507322,0.775531089333849,0.175972278669403,0.240212736328161,0.146730858041974,0.401431310563602,0.158669973883266,0.0375245674061727,,,,,1.79680657025774,-122.144595008979,2.42932796052028,AttemptLanding,AttemptLanding,1,0.485154612812942,0.203108581077627,0.206030434277747,0.900022303286547,0.334786285314678
26,1.84744194718109,2.7403039932251,-1.03132866261689,-1.50887730421247,1.84744194718109,0.0068414725005046,0.0068973920615448,0.0097149247668638,-0.059674687082634,-0.121268365816649,0.139206875838022,0.0089894647673241,0.153462907346294,0.15451332833409,15.3898307093415,1.75847042256153,2.13979189679088,0.0150201981457004,0.0516839078850227,0.129918972500293,0.442537287510256,0.0003673517286019,0.0059356426475479,,,,,1.89015622586425,-123.159855511628,2.46263490191901,AttemptLanding,AttemptLanding,1,0.523553851581775,0.202675029900494,0.12392670088343,0.961860696989381,0.342258234444314
27,1.69798286178628,2.41390991210938,-0.814151907573058,-1.47315422560982,1.69798286178628,-0.0466626132851718,0.0038406248662964,0.046820400232859,-0.0383229554418928,-0.116687441819529,0.124763230953548,0.0080465225906621,0.143736204392364,0.145659932581337,15.4625186615937,0.814076563494097,0.841606140048187,0.177413731085522,0.240232645645532,0.159537741322837,0.399124691848064,0.159039298040297,0.0355755227504331,,,,,1.77620387229689,-117.832865156267,1.66496510118265,AttemptLanding,AttemptLanding,1,0.481927416325941,0.169667326365388,0.185421082009017,0.898284198929407,0.32909433718985
28,1.72208058109155,2.55882096290588,-0.976539593721278,-1.3903123501856,1.72208058109155,-0.0731076499361839,0.0033250852474473,0.0731832267059495,-0.0558972678348818,-0.10626695098427,0.124827443793956,0.0080525584749988,0.170944981766861,0.172891826348965,15.426652737441,0.983520492995629,1.0213807864575,0.176432592072949,0.240250028018293,0.156773520568738,0.459824162256261,0.155414881079443,0.042202290201374,,,,,1.77693740749085,-123.63065316624,1.62985003291407,AttemptLanding,AttemptLanding,1,0.493799853560872,0.201683510804317,0.205429674308297,0.896030908196394,0.330322879747228
29,2.62129049755658,3.0,-0.520044358564463,-2.53621811192066,2.62129049755658,0.00686789908033,0.0049973159050843,0.0084935978261751,-0.0232580048150743,-0.33472140407634,0.336416012569992,0.0217177282337476,0.198461790725364,0.201114683392006,15.420947114156,1.82524155554075,1.73244101366676,0.0230707640092945,0.0524762964230091,0.129178199365155,0.412564706381276,0.0014629295055713,0.0068827556156528,,,,,3.0,-100.208461528465,2.11510434133333,AttemptLanding,AttemptLanding,1,0.739233736026822,0.0867667976512354,0.0552130897059801,0.960511397808722,0.34258746694882
30,1.84219271714996,2.56792855262756,-0.933407495554988,-1.56761078366662,1.84219271714996,-0.0593607798575951,0.0075172023204412,0.0598348603744365,-0.0497735238296915,-0.132296488824978,0.14426688451343,0.0093047243911442,0.151688732185481,0.153981620280234,15.4218460974141,0.828354868092243,0.903800920534556,0.176443684805681,0.24022907716828,0.115671350198601,0.45539703660571,0.158488004015111,0.0359849633893387,,,,,1.90894849737311,-119.745808657761,2.02343864016807,AttemptLanding,AttemptLanding,1,0.522047715296035,0.174260287384442,0.188080726558757,0.898168362115092,0.348590511022844
31,1.9070407579074,2.62438201904297,-0.943771720399027,-1.64203788546782,1.9070407579074,-0.049221068555609,0.0004324296532151,0.0492229680653345,-0.0491976750705172,-0.142455991582567,0.152777869603707,0.009854813791201,0.133584772126553,0.136019009217457,15.4497067223559,0.955770906839488,0.922881118557275,0.177070774965482,0.240271965326818,0.163896581748503,0.392119630040695,0.158978891672708,0.0357043713730261,,,,,1.95935225919259,-119.13516242978,2.35060286396522,AttemptLanding,AttemptLanding,1,0.535748003952132,0.17042599456748,0.185896289700368,0.896703775174856,0.327157074778443
32,2.62905090309704,3.0,-0.646994640760542,-2.51586864397654,2.62905090309704,0.007228495633376,0.0065116538416479,0.0097289662798873,-0.030779332368013,-0.32889765903747,0.331632082634108,0.0214121742212602,0.19237364357842,0.195012793228897,15.4073078179122,1.84331142036714,1.95500532684228,0.0292534351202523,0.0489331424285715,0.133199520594302,0.450704927303306,0.0136779648160978,0.0085572765366876,,,,,3.0,-103.01941117063,1.8688699571738,AttemptLanding,AttemptLanding,1,0.740082799471658,0.0852471906211444,0.0603391467689398,0.955529365140371,0.340800213069199
33,1.87662420401702,2.7496919631958,-0.826641171627173,-1.67195522620397,1.87662420401702,-0.0539684223475888,-0.0066325522109254,0.054374455027323,-0.0386570591450446,-0.148282414999825,0.154524231739871,0.0099666271118576,0.130071204743639,0.132601670894118,15.4379232656605,0.924349489578,0.845653132797513,0.176629222253752,0.240240517916751,0.167979089078218,0.397695141008253,0.158800091033986,0.0361584234016124,,,,,1.93692079365451,-115.089103932968,1.61281685407268,AttemptLanding,AttemptLanding,1,0.526953455250029,0.206408895903568,0.207571673380054,0.897778225411602,0.325342627076348
34,2.67208062468506,3.0,-0.594169676880101,-2.56790627008259,2.67208062468506,-0.0314806013697689,-0.0080457850741758,0.032492505598401,-0.0256017509241236,-0.339260628950424,0.34126938051723,0.0220266011410347,0.206912591821078,0.208933633376243,15.4263009688441,1.67920118694728,1.30620147690429,0.0630460377123972,0.240331419631159,0.123972543179824,0.449402511088006,0.0018578465806232,0.0081942773817853,,,,,3.0,-101.157933097739,1.75544748025987,HoldLanding,HoldLanding,0,0.754341559924597,0.0797388188055695,0.0516487381044699,0.945020245927825,0.344901091920078
35,1.8035145585969,2.74269127845764,-0.826007122089694,-1.57696272254181,1.8035145585969,-0.0755639922760589,-0.0022571058658248,0.0755976947769298,-0.0419342716223391,-0.136303297867216,0.14567271198082,0.0093984777184232,0.185521352450693,0.187771381222768,15.3801896434723,1.10440495039124,1.02241930888963,0.176674922826272,0.240250486744809,0.182214391482771,0.453798002078068,0.156083228590199,0.0431761160555512,,,,,1.86137587595629,-115.841095627455,1.77060667995536,AttemptLanding,AttemptLanding,1,0.518491491870393,0.225174339344438,0.220175333262911,0.894951776549657,0.319015826007657
36,1.98511188205668,2.75641632080078,-0.892578243547241,-1.76031082283181,1.98511188205668,0.0048174790532066,0.0030433167693703,0.0056982349360846,-0.0439610311460358,-0.162014954272106,0.169358108169198,0.0109349479670966,0.131243771238484,0.13256559168216,15.3954359034333,1.79940845349722,1.95532138624432,0.0245891563738191,0.053553557133553,0.127508311387354,0.448909057987932,0.0058680312800834,0.0044111893075224,,,,,2.00134863438598,-116.022448666907,2.04353717707858,AttemptLanding,AttemptLanding,1,0.55587628688488,0.174588175122372,0.108964987814781,0.958203973072264,0.343329639383398
37,1.78930822578636,2.75953507423401,-0.804179432149353,-1.56998686610478,1.78930822578636,-0.0776595794765395,-0.0113159476878022,0.0784796849926529,-0.0398494660888795,-0.136434593444711,0.145257368142478,0.00936973945133,0.183871729526473,0.18592174498865,15.4084776788735,1.01483450824152,0.915181882156175,0.176712160420987,0.240265074693739,0.149345874936694,0.39320191313641,0.15832710010732,0.037208102477531,,,,,1.84847057739295,-116.145839673518,2.18553610506083,AttemptLanding,AttemptLanding,1,0.514333209207427,0.232688983149373,0.22351120902006,0.896479505293525,0.333624055583691
38,1.9367453302886,2.76808786392212,-0.773150896997994,-1.75707224921078,1.9367453302886,-0.0605382079300564,-0.0130158471050089,0.0619216189649763,-0.0352148270966667,-0.165668011572488,0.170980417294836,0.0110293230565557,0.155049163475689,0.157598940640715,15.3907394214285,1.11396598296606,0.903043747255033,0.177324508802337,0.240271786406763,0.139008246279482,0.521149478164952,0.15842279073536,0.0361963607632843,,,,,1.9993932608471,-112.620106358339,2.45029619280922,AttemptLanding,AttemptLanding,1,0.547985209538437,0.198404366877787,0.202615062347218,0.895489812004237,0.338218557209119
39,2.61149015275132,3.0,-0.628137730773498,-2.49915493763686,2.61149015275132,0.0062497136744578,0.0029724292311447,0.0069205676462895,-0.0303690493147354,-0.326148524713383,0.328850766763245,0.0212348427697186,0.20175688249945,0.204267812644741,15.3847773792789,2.01645097264788,1.86800195329149,0.021437344099958,0.0545411407918778,0.131446818417421,0.40731221815591,0.0003682674998449,0.0069726463669192,,,,,2.9987372183553,-102.731971335258,2.18807796304277,AttemptLanding,AttemptLanding,1,0.737250936595968,0.0886834863661054,0.0559092740338276,0.958760626389069,0.34157919181448
40,1.90835834274421,2.58067274093628,-0.283326333412274,-1.87303008043721,1.90835834274421,-0.051446121495589,-0.0194118212743499,0.05498656401455,-0.007144229156434,-0.184323411903187,0.184624450050493,0.011908907282657,0.128061957671374,0.131045811241334,15.441700189932,1.09110234116689,0.718707553434443,0.176559991189253,0.240240990497925,0.125986476936453,0.382159607304539,0.159041933589278,0.0369528226935707,,,,,1.96262077332345,-97.9255988407311,2.00117240671874,AttemptLanding,AttemptLanding,1,0.535104720313389,0.16135160966255,0.180933659685376,0.89750006951922,0.344006010250465
41,1.88720333978936,2.72906851768494,-0.27150233364289,-1.85655607624424,1.88720333978936,-0.0447974467271231,-0.0116370653777322,0.046284257840815,-0.006306724061825,-0.182585474589815,0.182821064101007,0.0117920368127085,0.127880984192002,0.130798661131446,15.4565431410252,1.04262517337756,0.684222117353794,0.177513700084842,0.240270297154927,0.149667172775608,0.382490449034632,0.158983617031233,0.0364237602870199,,,,,1.94919332297993,-97.076725643542,1.91762395072502,AttemptLanding,AttemptLanding,1,0.52941395617012,0.19790511229732,0.202647456466341,0.897675064101833,0.333481256544174
42,2.60954886495469,3.0,-0.621780574242038,-2.50075684217725,2.60954886495469,0.0038660171200164,0.0076802820092742,0.0085984196288761,-0.0293529983420294,-0.326139942248976,0.328655499579411,0.021216332903338,0.19888378339122,0.201425589770081,15.4262289237048,2.01439336016228,1.46970376442797,0.0197364372173579,0.0491735056462917,0.120188105677349,0.451237294218719,0.0003524093043151,0.00723328419048,,,,,2.97766096785849,-102.83550377438,2.24705913078388,AttemptLanding,AttemptLanding,1,0.736164815275267,0.0894278823171554,0.0564436409079412,0.962756732555255,0.3465830641434
43,1.83503258953223,2.53954601287842,-0.244863465180594,-1.80046758315786,1.83503258953223,-0.0556022637803799,-0.0303393870979207,0.0633410620922986,-0.0065930827528306,-0.171807378784467,0.172096810860931,0.0111003309262399,0.141009150082061,0.143965484015818,15.4321780578681,1.0205911317229,0.76205909298473,0.176947553423364,0.240244288741741,0.129985775087316,0.42068783214522,0.157694682970419,0.0348974230290747,,,,,1.87761184680711,-96.9149867627548,1.79229055891803,AttemptLanding,AttemptLanding,1,0.518135120678426,0.170128048303146,0.184853326757091,0.897519685808472,0.342228544405637
44,2.45071224251459,3.0,-0.586004472295916,-2.34652757611236,2.45071224251459,-0.0141240281385587,0.0170778934807024,0.0221617376709728,-0.0280703383703229,-0.300274126591089,0.302906107660159,0.0195506291184174,0.218373640775154,0.220077008529029,15.4191322950498,1.59993227806486,1.31398071745177,0.0625302398732752,0.240501798973426,0.128100616319874,0.407061516104835,0.0019613249018759,0.0084888159846525,,,,,2.70268226585959,-102.84402520654,2.35934557253938,HoldLanding,HoldLanding,0,0.697538666376363,0.127652730673896,0.0805501805369642,0.945839849384303,0.343066392746723
45,1.64088495115976,2.70607233047485,-0.22641645844562,-1.60221905886905,1.64088495115976,-0.0624894080804275,-0.0292932834175502,0.0690146547888427,-0.0066565589045985,-0.139748043359411,0.140121480413454,0.0090374094130621,0.163729340065431,0.166054008477561,15.4279412556315,0.86854376658458,0.773922421432262,0.176284001848035,0.240213697194242,0.140556584652305,0.423131726582944,0.159046676077793,0.0354818522805437,,,,,1.74484723470437,-96.8322370152764,1.54825560902577,AttemptLanding,AttemptLanding,1,0.470780122004782,0.252319847057184,0.23498181156282,0.898952907598707,0.337530406821198
46,1.70337314798374,2.43563151359558,-0.246527230303808,-1.66772084995412,1.70337314798374,-0.0033142912555447,-0.0065521527198897,0.0073426992170004,-0.0062960796232868,-0.146580496922316,0.146877789507167,0.0094853852835793,0.134179942437585,0.135293184955414,15.3742640418313,2.08619243548706,1.90393714169781,0.0164784161868144,0.0498551138817896,0.13625443266463,0.408888771463145,0.0015208552366257,0.0094883939758508,,,,,1.71876069037497,-96.5690723186371,2.41074104041112,AttemptLanding,AttemptLanding,1,0.481291476453414,0.16610429378578,0.103788837014318,0.96040977380014,0.939442474371276
47,1.690471506308,2.79352307319641,-0.159246460633089,-1.65700910513653,1.690471506308,-0.0687774348355413,-0.0421070634299112,0.0806432906896023,-0.0050113876755459,-0.160505687045288,0.160779744467149,0.0103700582313344,0.192877003991688,0.194198402710125,15.4366349914682,0.769231935296805,0.686628860928792,0.168848447877998,0.241566211750478,0.236714837667729,0.514457036459016,0.15300307609477,0.0050558423709752,,,,,1.8330973949862,-93.5355183886098,1.90892442126818,AttemptLanding,AttemptLanding,1,0.489632082224157,0.262971205842987,0.227622578793923,0.904136869804943,0.294793405481009
48,1.55635597058479,2.54454922676086,-0.240901056426457,-1.52345298665708,1.55635597058479,-0.0243527891409679,-0.0472475393152831,0.0531543818541206,-0.0060335228623564,-0.133073407764232,0.133333902817904,0.0085990873287854,0.131768224064442,0.133387085003201,15.461531765081,0.666738076377724,0.672312456944064,0.156984002477111,0.242821621194371,0.224307534927593,0.49275463933005,0.166284394745903,0.0353952647897666,,,,,1.76093856199151,-95.8152911333806,1.87656417423066,AttemptLanding,AttemptLanding,1,0.441705675823252,0.232088452646205,0.226028252408443,0.910986887428202,0.300307762254403
49,2.62020318165272,3.0,-0.680341982669594,-2.49795392325456,2.62020318165272,0.0075678868621717,0.0041769149476171,0.0086440459299022,-0.0328826356631983,-0.324537910645676,0.32759776717742,0.0211507115064073,0.19339880620415,0.195992205607767,15.4069244263195,1.86486790388165,1.76875244894529,0.0298207591813689,0.0561555842940807,0.123215665432413,0.456118852798794,0.0184497260090031,0.006785601129955,,,,,3.0,-103.690253195533,1.74784503571598,AttemptLanding,AttemptLanding,1,0.737919289562279,0.0870390258819535,0.0628907850753793,0.956539746208532,0.345237482030039
50,1.66077309246831,2.3053183555603,-0.14281021128393,-1.64440554822133,1.66077309246831,-0.0357612470076748,-0.0114591545402324,0.0375523502636101,-0.0027054400572971,-0.142138260029494,0.142208411934919,0.0091727832908074,0.114451863142959,0.116906529165482,15.4341267683743,0.909642651923097,0.690563930422401,0.175476773253282,0.240200049043723,0.179238063535057,0.388131049738434,0.155487942626981,0.0401197984361225,,,,,1.72627812567413,-94.411640590645,2.29065068241169,AttemptLanding,AttemptLanding,1,0.466254130491313,0.151907281744026,0.17483913893821,0.89968856165493,0.320338638428864
51,1.60771867955053,2.30017304420471,-0.140306442110068,-1.58996130014873,1.60771867955053,-0.0411498987136241,-0.0072965149630843,0.0417917850150964,-0.0026774898130214,-0.133242148469552,0.133319488956033,0.0086001635287015,0.118453419892576,0.120782294195088,15.3970889621395,1.01204533634534,0.794774194556431,0.176489809601478,0.240156804862487,0.147696478198815,0.449024031371822,0.159085315983291,0.0362357810069324,,,,,1.64198518080473,-93.7945426045898,1.76589848005765,AttemptLanding,AttemptLanding,1,0.452881440052493,0.163464059299958,0.181959668100322,0.89755865602789,0.334357120800527
52,2.62490079474688,3.0,-0.628613832137457,-2.5162777209963,2.62490079474688,0.0091942881588107,0.0032443604456875,0.0097499133046806,-0.0295456324272202,-0.329295374638415,0.331785175471476,0.0214249780177494,0.197501999484851,0.200089409607982,15.3586730545935,2.10034591168169,1.84136850738644,0.0267809864980402,0.0551989137157078,0.132629490900191,0.39850826554815,0.008577044468043,0.0069297652251535,,,,,3.0,-102.899260755177,1.96620166741832,AttemptLanding,AttemptLanding,1,0.739991427187432,0.0861848052878093,0.0580428175635889,0.955638893458302,0.341053559599915
53,1.71161981692185,2.47624659538269,-0.13604875577168,-1.69437062693401,1.71161981692185,-0.0413096205593651,-0.0249413063215343,0.0482550879367485,-0.0026451984168127,-0.151630148812201,0.151703727728145,0.0097850894907411,0.120894960617083,0.123368123901485,15.4548777467011,0.9551255930205,0.760368761776886,0.176716782228327,0.240192842565001,0.16729316536257,0.405567280930534,0.158403192147399,0.0345390376939752,,,,,1.76767167051157,-93.7767495596924,1.60786293882614,AttemptLanding,AttemptLanding,1,0.481105575959458,0.180887791275426,0.191493743567969,0.898162724669571,0.32564748206108
54,2.60780781211583,3.0,-0.541111915576763,-2.51952191299591,2.60780781211583,-0.0145703691489945,0.0124411911962338,0.0191593031063036,-0.0249502252241671,-0.340825288546217,0.342672430269271,0.0221222949315389,0.199204265088606,0.201213138465608,15.4055055221241,1.82566194555769,1.43088272471099,0.0628743291713664,0.240360521929167,0.137398576086584,0.387900985315495,0.0019023877322289,0.0075660021781466,,,,,3.0,-101.106544404973,2.19798661199189,HoldLanding,HoldLanding,0,0.735658044257342,0.0917557811767617,0.0586502478841515,0.942975698719348,0.33893396618374
55,1.62812552339322,2.27207946777344,-0.136569353548807,-1.61229921974355,1.62812552339322,-0.0385534738750876,-0.0015589958516687,0.0385849817403427,-0.0024717189887505,-0.136751297547692,0.136813776605443,0.0088251168618647,0.107638837564474,0.109891538743846,15.3953431631387,0.909995508180751,0.769013687129843,0.177293534395383,0.240178954252349,0.119588941899949,0.427025551597994,0.159085305552524,0.0336483222540665,,,,,1.6954412846166,-94.4207914550518,1.729366131871,AttemptLanding,AttemptLanding,1,0.456145113986961,0.151963550804612,0.174118464275267,0.898161017696297,0.346849359155578
56,1.70615909928861,2.41397595405579,-0.0928107987488946,-1.69237563591446,1.70615909928861,0.0008312157663183,0.0061052064930415,0.0061615311386742,-0.0017041906070734,-0.150071355722227,0.150117678923366,0.0096904918079194,0.116818537630792,0.118057267104586,15.4110139043599,1.83943637344878,1.66324168845158,0.0296343661129591,0.0548971298925903,0.121616207201486,0.432078832147724,0.0226810954357163,0.0052562466241146,,,,,1.73280982852964,-92.1431804697514,1.61690212976896,AttemptLanding,AttemptLanding,1,0.478587213231213,0.160388406364705,0.10822489308791,0.957661775028589,0.345948352354895
57,1.60402725032858,2.44949531555176,-0.212614965294406,-1.56837764397873,1.60402725032858,-0.0592339508034327,-0.0231912834455129,0.063612078692915,-0.0059687467692746,-0.134738827121115,0.135050545324635,0.008710097789461,0.160206129337352,0.16258936378903,15.445245879797,0.847836772926432,0.608466033237919,0.176183133287972,0.24020205563588,0.123618603918035,0.379518477065277,0.158758620314181,0.0369847206289208,,,,,1.65239533729994,-95.8334835366937,1.7936671804318,AttemptLanding,AttemptLanding,1,0.460258472845427,0.20189252910225,0.20514389358726,0.900466054164722,0.345058398258651
58,1.60128994205514,2.41892886161804,-0.101660009320157,-1.57634534084479,1.60128994205514,-0.0581836793075151,-0.0299540641419559,0.0654414738249389,-0.0024319502406468,-0.135326787875238,0.135466854446797,0.0087379861615608,0.164056019099995,0.166150550373893,15.372044740197,1.05338120098637,0.79026849950996,0.176834484391958,0.24021386163588,0.156565815981583,0.451112821034947,0.157274392409232,0.0364176818267053,,,,,1.68060545220575,-92.4282145747537,2.30874398421457,AttemptLanding,AttemptLanding,1,0.460240761289481,0.195966360436226,0.200722339612923,0.897096938728693,0.330415192897074
59,2.52893989859616,3.0,-0.512054985395914,-2.44669532670034,2.52893989859616,0.0068034593660657,0.0061515598696727,0.009172172489431,-0.0220261053399241,-0.313866593597456,0.315358016168675,0.0203606988403054,0.206562496419107,0.209008162468353,15.3928458277487,1.84254316039889,1.77661156262535,0.0296807430724466,0.0503522796085497,0.127795492801296,0.468740291374468,0.0208762172498065,0.0052985232281869,,,,,2.78982386220964,-100.41262924442,1.61902992435677,AttemptLanding,AttemptLanding,1,0.716185605452647,0.10767008777226,0.0758071071603882,0.956723412782872,0.343202003199424
60,1.68750035641967,2.5355384349823,-0.113157979845796,-1.66156876585642,1.68750035641967,-0.058388775897707,-0.0319874163236322,0.0665766021504104,-0.0028030650568425,-0.150021774440417,0.150174554579958,0.0096865714159163,0.170025681142012,0.172461654748315,15.4182641204121,1.07379913909491,0.751653250309657,0.176194086775334,0.240231560256135,0.139218904894761,0.397168335390302,0.159085279722776,0.0363581894705783,,,,,1.72864210057146,-91.9462754292346,2.00190235896052,AttemptLanding,AttemptLanding,1,0.484492425994907,0.203014278070834,0.205734295415662,0.897560116409868,0.338124931157884
61,1.59158169820502,2.22870659828186,-0.189034067395248,-1.57003762784097,1.59158169820502,-0.0399498687524074,-0.0231046786980955,0.0461499533160848,-0.0035439117955334,-0.130939540994539,0.13104645151672,0.0084536086252644,0.109259859035853,0.111418630576106,15.4060032005866,1.05334797437336,0.78909236718858,0.17760863997496,0.240192757587097,0.141057119468742,0.457003667426534,0.158735029905669,0.0343743619639991,,,,,1.6541677253945,-95.777639022521,1.98865823031964,AttemptLanding,AttemptLanding,1,0.446705512303227,0.151813927291905,0.174137026542349,0.896719363043105,0.337307946902781
62,2.61229229092997,3.0,-0.532053420209453,-2.52652493626418,2.61229229092997,0.0078916844740211,0.0031773348828074,0.0085072992656313,-0.0233709756832645,-0.332173435009246,0.333780161409674,0.0215618139435516,0.195789326460429,0.198598496770004,15.3915494317683,2.20502745675957,2.21363012906577,0.0253851673843488,0.0591599377701107,0.149834054935934,0.412838454472224,0.005615966335155,0.0094371448580374,,,,,2.96888331606625,-100.576107342626,2.04107434360853,AttemptLanding,AttemptLanding,1,0.736330976935325,0.08879390607279,0.059204017720807,0.952589392419198,0.333407086695141
63,1.55598496263092,2.26358246803284,-0.0944764440489604,-1.53801197374995,1.55598496263092,-0.0476043300558278,-0.0370250422091804,0.0603077606171526,-0.0020056578026987,-0.12600783806115,0.12608202242645,0.0081338184305175,0.128508021259184,0.130566824202468,15.3723963067595,1.04087313585843,0.871392067591486,0.176388373513091,0.240183714336239,0.155968977203461,0.447325975897933,0.156394847617812,0.0406281523072113,,,,,1.60300708299886,-92.1234906695166,1.59161332474463,AttemptLanding,AttemptLanding,1,0.441042688208738,0.170265861495243,0.186442211626877,0.896780872359205,0.330680454576239
64,2.67102300421241,3.0,-0.632965484821997,-2.55778437891224,2.67102300421241,-0.0319458583228029,-0.0077800863027826,0.0328795925592052,-0.0269092746788771,-0.336616248844832,0.338781719553224,0.0218644447523397,0.200748385458355,0.202816000512064,15.3924963008137,1.57388979728595,1.26001832431676,0.0631219428061272,0.240309904938648,0.124357552574479,0.432893677331832,0.0018955931074927,0.009165855295412,,,,,3.0,-102.201792877698,1.50250045030346,HoldLanding,HoldLanding,0,0.752836001225723,0.0800477493547277,0.0522041737276297,0.946172607641487,0.344729976633565
65,1.50749087494773,2.12248682975769,-0.124528461162908,-1.49281893231129,1.50749087494773,-0.03728247460635,-0.0151453129472714,0.0402413148026244,-0.0019853799553786,-0.117746660357515,0.117797372549664,0.0075977139710223,0.104784084435666,0.106688490403478,15.4409043705455,0.973189902153649,0.595723174095492,0.176461584782663,0.24018172564095,0.14779225529886,0.41434291859201,0.158591814915178,0.0348353125311623,,,,,1.55228808798252,-94.2268777224065,2.05909238767847,AttemptLanding,AttemptLanding,1,0.423335264733423,0.145751664212723,0.170603635976014,0.89944203343814,0.334314553200507
66,1.59420622750668,2.24539256095886,-0.126598925999808,-1.5739662694396,1.59420622750668,0.0037969021368385,0.0053377934090178,0.006550458328551,-0.0027639062417973,-0.130226742117618,0.130329932306307,0.0084145833221507,0.125435812096483,0.12645230031968,15.3451044577641,1.77656516423363,1.98174647104356,0.0229602438690651,0.0664346994301593,0.132073253231628,0.443389701751877,0.000480659707142,0.0091403028394627,,,,,1.60696450398557,-93.5145725727472,2.14929515902347,AttemptLanding,AttemptLanding,1,0.450412120732385,0.147717842386975,0.0921680784557699,0.958990286645432,0.341300776341499
67,1.6391630639901,2.39695286750793,-0.116349088548223,-1.6176234187141,1.6391630639901,-0.0503900011235117,-0.0124531728389715,0.0519060085826757,-0.0026823049192997,-0.139978937755357,0.140087900599262,0.0090366570854715,0.135928344195588,0.138180330660352,15.4344240248918,0.995508719622579,0.788139162891436,0.175852486393645,0.240192823123991,0.146192546024056,0.355728747821273,0.157017327250646,0.0374648636701428,,,,,1.70472744872138,-93.0615211949791,2.25287490961215,AttemptLanding,AttemptLanding,1,0.464746216529431,0.180018807365003,0.19142034998621,0.898059380583425,0.335025535100419
68,1.59357773057566,2.22915196418762,-0.137084538164722,-1.5722861225508,1.59357773057566,-0.0527589127874771,-0.0292622758556503,0.0603306196451586,-0.0030141258331615,-0.132384802020493,0.132494635466481,0.0085460965725398,0.127369541138764,0.12944419038387,15.4229405067898,0.965021890561406,0.660857677490145,0.175843839255251,0.240184744370293,0.125493752482036,0.355529147209929,0.155902238996245,0.0413537112892847,,,,,1.6346567991892,-94.1375227104005,2.3597061617115,AttemptLanding,AttemptLanding,1,0.450842899563618,0.154064816164303,0.176766486893017,0.899303312337683,0.344224998896873
69,2.60828602353865,3.0,-0.394270911945422,-2.54495103285701,2.60828602353865,0.0054839937412808,0.0038945237592833,0.0067261803920227,-0.0167918267127376,-0.337270802658423,0.338225975754148,0.0218405363953629,0.200507356974623,0.203148639626033,15.4069922368654,2.11991695588372,1.80913797990958,0.0235005401028242,0.0499505808394397,0.135170547704794,0.430516968528454,0.0018462577792884,0.0081246251322484,,,,,2.97762147861884,-97.4745863886534,2.09035695775198,AttemptLanding,AttemptLanding,1,0.736172667535512,0.0893687777756753,0.0573962348174217,0.957378584024498,0.339924201020092
70,1.66306377938912,2.40809965133667,-0.10418321110613,-1.64330572251409,1.66306377938912,-0.0559095559519577,-0.0137922325840342,0.0575856243032685,-0.0022467060598174,-0.146844318011888,0.14692693292025,0.009474891393132,0.136511274331869,0.138097059741379,15.4575324338693,0.783741842418718,0.420130542279473,0.177811409735984,0.240477348059339,0.182801636267356,0.361692037192968,0.123138362108108,0.0049771133060358,,,,,1.74106956136438,-91.9626622500687,2.21403277123561,AttemptLanding,AttemptLanding,1,0.47110308645204,0.178190435643799,0.163452281707229,0.901635297823665,0.31875482832562
71,1.55194993643837,2.37777042388916,-0.191660796044167,-1.52965215251328,1.55194993643837,-0.036524946455806,-0.0218417318453854,0.0425574078581534,-0.0039110664366475,-0.131461279857006,0.131592195683364,0.0084860955119967,0.121888586211905,0.123248011304871,15.4745199818412,0.676796700733936,0.651949832833613,0.167273639575904,0.243213121552687,0.233093918258644,0.469212530968152,0.142675293328645,0.0048578952995172,,,,,1.67774962146967,-95.9395937551425,1.62046498103509,AttemptLanding,AttemptLanding,1,0.43850291864454,0.193611801117089,0.181344829531294,0.905923028876874,0.296402702996158
72,2.4646205330055,3.0,-0.564084584850822,-2.36769732028657,2.4646205330055,0.0069440549969953,0.0038944899218128,0.0079615922749408,-0.0263601422699042,-0.311796362659648,0.31401583561131,0.0202705845332807,0.20660741654484,0.20885371123846,15.4067127309718,1.68143511372355,1.49213129978248,0.0238583786108719,0.0491399171682299,0.122756235697455,0.362545568071292,0.0074246975170687,0.0064413578003742,,,,,3.0,-102.28205700878,2.0290196666645,AttemptLanding,AttemptLanding,1,0.699002884382493,0.121920005324168,0.078794180685051,0.963135646017017,0.345441673023353
73,1.66723496446738,2.25392436981201,-0.162903006266145,-1.64790619051996,1.66723496446738,-0.0376816090456065,-0.0165555951376638,0.0411581266656802,-0.0032251966573602,-0.143605694058057,0.143704177649676,0.0092705259103445,0.120129828159574,0.122457658543735,15.3718280712932,1.1375253088545,0.790923275286943,0.176982098045697,0.240217163580041,0.147922296180495,0.441813780051617,0.159161170701169,0.0357685201669,,,,,1.730743683828,-94.7490683234343,2.43221575286657,AttemptLanding,AttemptLanding,1,0.469087522233383,0.139550772757916,0.167475496350303,0.896356854958897,0.334256757253113
74,2.60614940510367,3.0,-0.543023312114165,-2.51704148822137,2.60614940510367,-0.006633425446305,0.0150899071748568,0.0164835564032002,-0.0258793529411096,-0.337215958493146,0.339197322432041,0.0218987136376958,0.196673837872548,0.198655631560776,15.4085782322309,1.75644125480322,1.60293359830997,0.0628131937910485,0.240468189671788,0.139575640078711,0.397051946027684,0.0019292780606882,0.0103049591249576,,,,,3.0,-101.440236798872,2.44524401542005,HoldLanding,HoldLanding,0,0.734704301006468,0.0916383691922599,0.0595877362948383,0.942198314972872,0.33796638218724
75,1.67702375352383,2.32954931259155,-0.171013957150255,-1.65668000350081,1.67702375352383,-0.0412226272759773,-0.0300597981251434,0.0510185893852283,-0.0033867871125353,-0.145132357397583,0.145231329078932,0.0093684291174095,0.12123400068063,0.123601608647218,15.3919213319436,1.0003695818951,0.805640754676927,0.177056470376202,0.240193665539412,0.160666117595473,0.437881841974364,0.158327107499308,0.0359378916147998,,,,,1.72844746755899,-95.0560971705178,1.5410559788466,AttemptLanding,AttemptLanding,1,0.471926656002464,0.156171658844197,0.177138922863108,0.897281683595976,0.328592836624234
76,1.75325679181013,2.82673645019531,-0.238372430662082,-1.71348179047408,1.75325679181013,0.0035705484400557,0.0053356746291052,0.0064201432936081,-0.0071813685404075,-0.159333286531423,0.159724070324992,0.0103155096137838,0.190027686595162,0.191282256816166,15.3855820304939,2.07432992370049,2.01816267682427,0.018017360339498,0.0538885582379213,0.134814919998428,0.372395791673072,0.0001071492788716,0.006740606938607,,,,,1.80133462105751,-96.2777836497926,2.34195350766386,AttemptLanding,AttemptLanding,1,0.505791595845934,0.242709949407161,0.148124721341875,0.958836020826128,0.340082257778477
77,1.70093876042882,2.39202427864075,-0.147818674398731,-1.67838081145784,1.70093876042882,-0.0576093908203815,-0.0241470901867896,0.0624653814139032,-0.0036520217441434,-0.149566147421492,0.149706911572677,0.0096579196185849,0.129676121021826,0.132145373572838,15.3683750281373,1.11535016031116,0.796074728157405,0.176956656219725,0.240216426761476,0.144541702568975,0.430993267241521,0.158864587754273,0.0353711315981849,,,,,1.75923009576763,-93.8331549635916,2.29278061563568,AttemptLanding,AttemptLanding,1,0.480012744162252,0.166946228190234,0.183636450032551,0.896503333480742,0.335759243302678
78,1.75438440812601,2.73873162269592,-0.194819648368206,-1.71673535149626,1.75438440812601,-0.0699988487520557,-0.0207231200520864,0.0730019625168142,-0.006167443306743,-0.161434847449917,0.161786676478655,0.0104365622955592,0.194079018915231,0.196785340472813,15.4546447975502,1.00952943170855,0.819665694188756,0.176410818243621,0.240296950015507,0.153827419311837,0.420271810212546,0.15850811453902,0.0375841382925476,,,,,1.84421771642335,-95.6415120879709,2.27046682798456,AttemptLanding,AttemptLanding,1,0.507192910261498,0.234861816406314,0.225032100129128,0.897422343460425,0.331632258083628
79,2.62128906385556,3.0,-0.394727204900593,-2.56052292227358,2.62128906385556,0.0069661763627691,0.0046158342902532,0.0083566464154157,-0.015906611483224,-0.340992954901312,0.341823029289559,0.0220732637458964,0.191919299181642,0.194652044055003,15.3592258388338,1.93765920796487,1.94935696518313,0.0249405184798911,0.0729407833866035,0.138034559969164,0.472514552434412,0.0066937357705511,0.0062421024820201,,,,,3.0,-97.5958361626102,2.05031419642188,AttemptLanding,AttemptLanding,1,0.737940825839149,0.0867420124753259,0.0572900566090033,0.956988899399606,0.338651306680371
80,1.82094820689511,2.46316623687744,-0.225812062589556,-1.79445147008995,1.82094820689511,-0.0478784697569743,-0.0221781383036012,0.0527656866238199,-0.0052046359740585,-0.169758792312559,0.169934958402606,0.0109632086753296,0.126128510561975,0.128957158312157,15.3481613429558,1.14358667453109,0.797985437171522,0.176559143571066,0.240224013651638,0.168397701312828,0.463478752335003,0.155939604266184,0.0415426803242033,,,,,1.84269174465958,-96.4089816842801,1.70042893331123,AttemptLanding,AttemptLanding,1,0.511377620167793,0.154172765960392,0.176916579570007,0.896465218765375,0.325156577194299
81,1.83776879230061,2.77319288253784,-0.21392917994535,-1.79873039858896,1.83776879230061,-0.0690533067540093,-0.0190479851240012,0.071632289583312,-0.0068483079274659,-0.175432710653302,0.175805748641476,0.0113403622410423,0.187931885845958,0.190803446682965,15.4459746859027,1.01659617574122,0.725105751550022,0.175633740134596,0.240276102980837,0.154173706848934,0.362406830702655,0.158226066975906,0.0348772616214199,,,,,1.90149022471625,-95.3637271300002,1.87783569360886,AttemptLanding,AttemptLanding,1,0.528232367283422,0.223603006726984,0.217167141059534,0.898498329075414,0.331478352511585
82,2.59262291882748,3.0,-0.404332041658278,-2.52971131633704,2.59262291882748,0.0010093406816509,0.0055886765604061,0.0056790909755407,-0.0166597773006137,-0.333500766994229,0.334452318729241,0.0215965586734486,0.199462830052452,0.202212302818429,15.3981894421966,2.05210507860315,1.78143728718431,0.0219865734351191,0.0539850159683925,0.137592141158067,0.431938393914304,0.00038233696597,0.0092735197121703,,,,,2.91783086718893,-97.7855854258006,2.15443568654787,AttemptLanding,AttemptLanding,1,0.731808572251013,0.0927010099426666,0.0591627224922749,0.958886023265539,0.338847937263081
83,1.65862967436378,2.23277354240417,-0.30049131956264,-1.61947380306701,1.65862967436378,-0.0461098439287406,-0.0127544590921728,0.0478413412632498,-0.0069125313580308,-0.139440724718714,0.139778475240892,0.0090161181143088,0.125628407099841,0.127932354271429,15.443461312235,0.874522976893088,0.803797046115988,0.176894490366135,0.240176942113725,0.148223011954875,0.399559397294205,0.159567358780059,0.0358635825642193,,,,,1.75027764965131,-99.5200046041142,1.89684370742837,AttemptLanding,AttemptLanding,1,0.467887717351294,0.137953282874018,0.166732098599506,0.898365954636147,0.334123105797833
84,2.59553392773949,3.0,-0.392984757804486,-2.53243400338362,2.59553392773949,-0.0087387351863898,0.012862602074495,0.0155503062601561,-0.0178552057757614,-0.339912358739905,0.340980762633682,0.0220161055049977,0.200077943655587,0.202180847894024,15.3777692160435,1.86351080223573,1.53564440491475,0.062960828009427,0.240455433144801,0.144136571534596,0.479757927739,0.0019717040931665,0.0098427794248553,,,,,2.95681470906161,-98.270421652992,2.44973094185191,HoldLanding,HoldLanding,0,0.732578550309336,0.0938557557396432,0.0607689588922114,0.941811937939104,0.33593930154018
85,2.01868516528929,2.83509516716003,-0.442768119412062,-1.94886691139017,2.01868516528929,-0.0690966396244067,-0.0289923784506655,0.0749326605400592,-0.0152254766541374,-0.201134205282047,0.202233250380462,0.0130483596033039,0.149921847934937,0.153240194958705,15.365347236106,1.24690477339257,0.951446563767057,0.176940054471173,0.24030557766755,0.150976600542453,0.453273144795896,0.15633207456313,0.0414539237583121,,,,,2.10680641889481,-101.731697741666,2.32122338256633,AttemptLanding,AttemptLanding,1,0.568964083068884,0.197429904853263,0.203013019033947,0.894257212258159,0.332899288647799
86,1.96324239865593,2.87902522087097,-0.552171457951137,-1.85465598645207,1.96324239865593,0.0073110925746657,0.0067314112426281,0.0099380064375463,-0.0231328274400998,-0.185553274398086,0.188242311214936,0.0121512437983527,0.207634293198939,0.209084091472419,15.4358479802598,1.86830009958321,1.6557748606572,0.026438169126132,0.0508232765161627,0.124203420928946,0.423203914482545,0.0080304315800371,0.0054564660953217,,,,,2.01104491577433,-105.279667622794,1.95331331605739,AttemptLanding,AttemptLanding,1,0.565348124602733,0.207873102845267,0.130277111898607,0.959091755035045,0.344798479587135
87,2.01339399572965,2.85771727561951,-1.16763279923422,-1.61703685856318,2.01339399572965,-0.0691759605986065,0.0082625801923972,0.0696676665044535,-0.0757995516597744,-0.13979702798924,0.163604001544409,0.0105544100951905,0.156171962877059,0.158767726411571,15.4256766601498,1.00548763945571,1.1335974935406,0.176752965381532,0.240319902754742,0.17065579352449,0.424223466186047,0.159875592487594,0.038293642669346,,,,,2.06469467336038,-124.238920485483,2.45128408808396,AttemptLanding,AttemptLanding,1,0.568658610810222,0.202745143501034,0.206627865954666,0.894816419835691,0.324152980655782
88,1.9489313235154,2.97803521156311,-1.10050309837033,-1.57807682719746,1.9489313235154,-0.0783603738814588,0.0077580995102886,0.078743484193002,-0.07030037157486,-0.135737231034549,0.158575045744703,0.0102278712119859,0.185831631374047,0.188315070266203,15.4386780506268,0.933422506357932,0.936975129283709,0.176871935071073,0.240275058766098,0.162281207340277,0.460418611049555,0.159282966203137,0.0374616887294873,,,,,2.00959748573364,-123.70580417537,2.23529764224142,AttemptLanding,AttemptLanding,1,0.557378033657348,0.245984680246118,0.232005669836556,0.896868051041565,0.327875018959877
89,2.62175312329295,3.0,-0.249633899130297,-2.57693569278817,2.62175312329295,0.0059484134755902,0.00605824903368,0.0084903477096447,-0.0098888011020259,-0.345664427322427,0.346141714598256,0.0223545855233605,0.196707597294291,0.199407958574422,15.3880925641517,2.21947414619668,1.85372034562145,0.0149573100639739,0.0431749349566434,0.129039055747358,0.428465423849571,1.58533575255868e-05,0.0087877194030359,,,,,3.0,-94.0907171926139,2.46967824528805,AttemptLanding,AttemptLanding,1,0.739015757926339,0.0866621110058533,0.0551998468685667,0.960517673960871,0.34264930855673
90,1.95676282209319,2.68524622917175,-1.07326235671574,-1.61358261600168,1.95676282209319,-0.0637144674234609,0.0036666422085918,0.0638198842379167,-0.0644173342620429,-0.139201073413949,0.157316926560615,0.0101475942498061,0.158535905209875,0.160971295789493,15.3755156832728,0.992266118505231,1.01389687126526,0.176778924945922,0.240269347415762,0.146328156116045,0.439122632995336,0.157051616367074,0.0347823198907353,,,,,1.99637079272466,-122.311062912018,1.56705839390527,AttemptLanding,AttemptLanding,1,0.553997678382749,0.175609078702961,0.187814281931047,0.8958478283217,0.334965263948425
91,1.87069155920196,2.8371217250824,-1.1277845908556,-1.46057986793831,1.87069155920196,-0.081574396371773,0.0053992931108646,0.0817528868573836,-0.0738656326038449,-0.117711842020875,0.145297504298705,0.0093743309775878,0.199911126264701,0.202112975248334,15.3522672802367,1.11658235321254,1.20461267708025,0.178090946645994,0.240287827675643,0.14538356487295,0.510403281797515,0.156572109223898,0.0368084568931127,,,,,1.94546366280019,-126.251978914843,1.58300932745333,AttemptLanding,AttemptLanding,1,0.539273677503523,0.232434816580285,0.222433387463359,0.892716565724702,0.335385082278689
92,2.62310793487523,3.0,-0.473765081178898,-2.54915155612104,2.62310793487523,0.0056188994112028,0.0037323230539814,0.0067455367445813,-0.0201265757759807,-0.337946572839279,0.33918119162987,0.0219128770401955,0.19592678557165,0.198702154533242,15.3509413840546,2.31761081401963,2.24683540745737,0.0171338789459271,0.0513689186204428,0.146684508582221,0.430650563409803,1.29793619630795e-07,0.0055375043234971,,,,,3.0,-99.2513675644137,2.35504101351445,AttemptLanding,AttemptLanding,1,0.739235880206711,0.0860373963895791,0.0536361334556178,0.955569554501146,0.334806885074568
93,1.67740924370721,2.56828498840332,-1.03341306904465,-1.29779746283954,1.67740924370721,-0.062034764344032,0.006556505257246,0.0623802833306157,-0.0605510959123533,-0.0914579232304953,0.113817771859265,0.0073397356038322,0.137891366621404,0.139138454461325,15.4477188195999,0.611347067472013,0.715618964607936,0.181035443166823,0.240440328785543,0.177058812508416,0.446983965342976,0.141017806626401,0.0049945440861081,,,,,1.74681180591764,-126.657123786368,1.75295362953987,AttemptLanding,AttemptLanding,1,0.475136822547521,0.211883427833904,0.191620835272681,0.899056116735961,0.321307194440704
94,2.53524231625516,3.0,-0.246754546153393,-2.49237818112837,2.53524231625516,0.0019005978142178,0.0189557854345555,0.0190508286825617,-0.0102777859456098,-0.34236505527699,0.342852961534968,0.0221168770589931,0.193137948108999,0.194831381107152,15.4645427945098,1.15985222070769,0.824760166533811,0.0494989466175991,0.253933044958987,0.350520926598621,0.741057625263696,0.0019397366721322,0.0101433540731141,,,,,3.0,-94.2734617915732,1.71775246305087,HoldLanding,HoldLanding,0,0.715030893889473,0.108063130767726,0.069388476038473,0.959657143648589,0.244212921511724
95,1.83117909930848,2.51552104949951,-1.15494698253323,-1.40703024924674,1.83117909930848,-0.0533686291863798,0.0095670892651677,0.0542193671877587,-0.0718329349966643,-0.104990387186706,0.13002319316874,0.0083883415647751,0.126638489744617,0.128678499453093,15.3993605762732,0.960491886373441,1.12010858021748,0.176526233798516,0.240230328841765,0.189045319703462,0.418734075447256,0.159281638592445,0.0361553872923252,,,,,1.86493072097439,-128.583435678336,2.01195192626572,AttemptLanding,AttemptLanding,1,0.514050126372879,0.163917156110738,0.182289546601708,0.895389308006099,0.315979857909572
96,1.72138054135651,2.66285729408264,-1.05971469577321,-1.32635458806493,1.72138054135651,0.0050859607535538,-0.0014650345738946,0.0052927613860249,-0.0644423414373447,-0.0967197696908008,0.121902710683283,0.0078722982881479,0.183698842011136,0.184656930233398,15.3718040542936,2.09784448571452,1.94505703520907,0.0286654049536013,0.0544467721402716,0.134913432432875,0.496956419365188,0.0239734464179729,0.0068602137294869,,,,,1.76269102467469,-127.19753908103,1.54507696937089,AttemptLanding,AttemptLanding,1,0.495966197075082,0.212802608950817,0.140831053619504,0.953901642715942,0.340038474474278
97,1.770481176473,2.70365977287292,-1.09895398417082,-1.35638939523031,1.770481176473,-0.070244119901692,0.0136621575665705,0.0715604005727824,-0.0695421995673231,-0.102001539140037,0.129727059857038,0.008367572021646,0.177547669314311,0.179594059086822,15.4467153333777,0.901681651960164,0.959042486478836,0.176560766068928,0.240260537178113,0.158029006191561,0.415131649389974,0.157799134814143,0.0366212277291973,,,,,1.81622668042125,-127.513201967813,2.2900402458775,AttemptLanding,AttemptLanding,1,0.508047125543497,0.22308459096166,0.217300513466626,0.897099641592087,0.329764886137084
98,1.86050485356434,2.7960307598114,-1.18070514357613,-1.40636420534747,1.86050485356434,-0.0696346074202352,0.0199935544809786,0.0724480556768374,-0.0793167979085187,-0.108714329674971,0.141087183083057,0.0091005855512893,0.174609883483261,0.176785065396702,15.389025411123,0.947270247075333,1.03394146319507,0.177024038689121,0.240252916305174,0.149099036101654,0.482876106432597,0.159623989734931,0.037284882182899,,,,,1.91962505408224,-128.853168090004,1.74847088039068,AttemptLanding,AttemptLanding,1,0.531491640696498,0.223775472446342,0.218767417881152,0.895921317217601,0.333733761732598
99,2.60773854470971,3.0,-0.154457664557272,-2.5705993808767,2.60773854470971,0.004703690000256,0.0070032735191641,0.008436263367317,-0.0056183350017826,-0.34375418130348,0.344031757618461,0.022220098739449,0.19802216858086,0.200942286414699,15.4041528344449,2.12118456549316,2.06852749190733,0.019202536256355,0.0716777469105045,0.141608506765078,0.50805902705606,0.0005529647754874,0.0052813600147098,,,,,3.0,-92.2002194325483,2.30424922253876,AttemptLanding,AttemptLanding,1,0.735585402538862,0.0898054757243242,0.0560495421078369,0.957479565706533,0.337062885882187
100,1.61917342195575,2.30297493934631,-1.01533502565839,-1.24747276405366,1.61917342195575,-0.0458095371779267,0.0096166111841463,0.0468080431883549,-0.0558804097237208,-0.0832413695405911,0.102695470629704,0.0066230749814527,0.120937118509616,0.122560285132366,15.4627739465455,0.753406033261673,0.831069116312388,0.175341041068163,0.240175115362105,0.138767346950209,0.373008970488734,0.155373921475313,0.039250618038917,,,,,1.68546986904653,-128.540481584722,1.58167404162001,AttemptLanding,AttemptLanding,1,0.456291636214673,0.162436815997409,0.180790117823847,0.899880031862123,0.338325623577685
101,1.65627193773115,2.34981203079224,-1.0623529741305,-1.25617827163184,1.65627193773115,-0.035129906014295,0.0195872877623294,0.040221538240817,-0.0609535003511906,-0.0842413517959418,0.10659309350114,0.006875634621077,0.126505144497211,0.128301774909566,15.4285767856677,0.872231931995595,0.993962906248325,0.177158075283668,0.240241101921613,0.160876202199872,0.455393557095976,0.158330843331196,0.0357555630803126,,,,,1.69807149429304,-129.55767099295,1.66016320995322,AttemptLanding,AttemptLanding,1,0.46733287171022,0.163420469616228,0.181423568410786,0.896758002914821,0.328499465688946
102,2.63065889567436,3.0,-0.137107300598713,-2.5962711632973,2.63065889567436,0.0032545270315294,0.0065445928879906,0.0073091478483126,-0.0048579049637415,-0.350214556386573,0.350445469464052,0.0226274585578811,0.194278410121934,0.197159626640647,15.3753274760032,2.02045513594619,1.55457482482148,0.0275481688553569,0.0555791568292477,0.128506962472127,0.426164864400442,0.018634915644702,0.0067809644926292,,,,,3.0,-91.8482151525671,1.82055528962003,AttemptLanding,AttemptLanding,1,0.740940964174625,0.0844417589121268,0.0614130453483018,0.958136394452004,0.342885794456833
103,1.68194603399942,2.4662070274353,-1.07567339297313,-1.2716583026807,1.68194603399942,-0.0539853402129374,0.0115239039796762,0.0552016061436567,-0.0639445050711339,-0.087135184050457,0.112020859021706,0.007225217821564,0.133187969061739,0.135043466397313,15.4414001792139,0.87099454555018,0.904598144060795,0.175759249748715,0.240198014872518,0.149654319910237,0.404695301362888,0.155845154005509,0.0403691767774708,,,,,1.75398132014352,-128.600052606655,2.16419100788734,AttemptLanding,AttemptLanding,1,0.475527635679309,0.186579017982743,0.195891624327336,0.898169289707271,0.333486968928783
104,2.59573591836663,3.0,-0.331029021389475,-2.54448270687918,2.59573591836663,-0.0180230091245423,0.0144973405422604,0.0231301046409566,-0.0132960288035139,-0.347342301890384,0.347978082789025,0.0224662225584518,0.196111033053504,0.198176092058281,15.3679284465336,1.83648307192474,1.44864545310433,0.0629953363937838,0.240444696338308,0.128616946874404,0.396445315500953,0.0019291677389297,0.0091023827206366,,,,,3.0,-96.2939600424606,2.36412660331312,HoldLanding,HoldLanding,0,0.731831463309425,0.0951999375516832,0.0612873277679375,0.94269060767788,0.342836912500265
105,1.72658540338478,2.65991711616516,-1.10778170471544,-1.29037971225239,1.72658540338478,-0.0752169930891604,0.0231102273783329,0.07868722042907,-0.0706712969843352,-0.0927619405838045,0.123236413248345,0.0079481243664807,0.179625672778212,0.181500194233363,15.4338803456629,0.73001243744608,0.932021683647289,0.176358142263651,0.240238978192047,0.128958402438527,0.385838443493421,0.155834449270249,0.0399319587586565,,,,,1.78074250763471,-129.221424924807,1.5,AttemptLanding,AttemptLanding,1,0.496722813082613,0.224425625787582,0.218435842979646,0.898762089345298,0.342685154471766
106,1.86159900518564,2.63343358039856,-1.08480235890251,-1.49840662276274,1.86159900518564,0.003878137033282,0.0031496663675093,0.0049960329337918,-0.0633015539089396,-0.117866881219003,0.136412222199509,0.0088101814294945,0.124711865800676,0.125807710212563,15.394641439603,2.07807108462881,2.04425904849134,0.0292732228637143,0.0690861273533048,0.135627114480428,0.501359447295359,0.0234834355821643,0.0081138785795318,,,,,1.88415857146299,-124.959215831678,1.5744115980049,AttemptLanding,AttemptLanding,1,0.52158794342535,0.174578718794102,0.118134815059071,0.952973651807913,0.339721282453143
107,1.68163613612587,2.31829023361206,-1.02449551968481,-1.31944159331318,1.68163613612587,-0.041255442004771,0.0134586712292497,0.0433952454338728,-0.0567758400119033,-0.0921398713871059,0.110676200401817,0.0071384036052778,0.117872313852135,0.119732821707057,15.44178707041,0.760857040819347,0.977639182147527,0.176535480374197,0.24017627956353,0.146736413988961,0.452633109518718,0.159250072161284,0.0356813568751288,,,,,1.72726488943798,-126.550224489005,1.78459018195882,AttemptLanding,AttemptLanding,1,0.472382867308311,0.151202966930602,0.174474628871504,0.898072646632447,0.334783816004906
108,1.69690553038507,2.6401538848877,-1.03893337141342,-1.31171563663789,1.69690553038507,-0.0658996800865448,0.0081371384047525,0.0664001570549878,-0.0624614242948744,-0.0947627372489854,0.119026310154553,0.0076786368365664,0.169017155735078,0.170881209513173,15.4281423824479,0.939519272365952,1.06893709341847,0.176510588785418,0.240243575815805,0.173633598765519,0.422516680719024,0.158801723248015,0.0364468443207269,,,,,1.72684939224008,-126.925173742408,2.19784479538826,AttemptLanding,AttemptLanding,1,0.486684383338653,0.224404241889839,0.218474486734498,0.895963977018985,0.32282951165977
109,2.62615885902009,3.0,-0.297666083273045,-2.57375589707017,2.62615885902009,0.008162384194118,0.0064998963498908,0.010434230603725,-0.0121778119084564,-0.344189478718147,0.344817595569803,0.0222686388489214,0.201483517491983,0.204280929120156,15.3921546866051,1.97706693118691,1.96944828513135,0.0273710186415563,0.0537551683124838,0.131891066688265,0.446505832370686,0.0213874703765187,0.0054089767638229,,,,,3.0,-95.4171668207032,1.73042756423081,AttemptLanding,AttemptLanding,1,0.741165214896056,0.0860271989978287,0.0630887624296513,0.955306156836721,0.341381748138549
110,1.59202064614038,2.39098572731018,-0.92669959322676,-1.27594910033649,1.59202064614038,-0.0478948964096167,0.0178505065793411,0.0511132241912699,-0.0474656735245145,-0.087835897136563,0.102755249183582,0.0066290292140761,0.127774392631215,0.129385077696156,15.3662520361074,1.00490647280094,1.05722990693597,0.177089542941967,0.2402187221087,0.132108501912168,0.440653681546837,0.159166555259518,0.0349357888072565,,,,,1.65985778043302,-125.136897277648,1.73694615696117,AttemptLanding,AttemptLanding,1,0.45041585451,0.189137901031604,0.196927355048054,0.895252728402512,0.341285110261259
111,1.55596075428499,2.1771240234375,-0.93636161209589,-1.2306325962016,1.55596075428499,-0.0382074189762105,0.0069706231650669,0.0388380799233569,-0.047440706426738,-0.0800693657047219,0.0949888649558069,0.0061275398266913,0.105862505734367,0.107458393425075,15.4329395411387,0.879184753305505,1.0134842790626,0.177063190229425,0.240167676319643,0.168356207310905,0.48275254740146,0.157983365329773,0.0334243081647243,,,,,1.59306398738573,-126.486183134521,1.94948893030473,AttemptLanding,AttemptLanding,1,0.436414546494345,0.146882050211931,0.170498353040695,0.896597433916681,0.325175018972931
112,2.63471243812089,3.0,-0.232729360427546,-2.59326741153456,2.63471243812089,0.0040687211044086,0.0063671059491882,0.0075560922171218,-0.0088298636106125,-0.3494869167792,0.349863644336325,0.0225968279294663,0.195198514192036,0.198021507395387,15.386494398602,2.12817966530615,2.13321269052219,0.0182679148034218,0.0550742129358643,0.146205507001873,0.4421162990622,4.09018824075755e-07,0.0108530167903514,,,,,3.0,-94.1056534981467,2.34785162808977,AttemptLanding,AttemptLanding,1,0.742194284977981,0.0835749849959388,0.0540917243438351,0.957383674088209,0.335019774665834
113,1.73335073418265,2.56141901016235,-1.01771507754505,-1.37377646024915,1.73335073418265,-0.0730440665869397,0.0129734469633695,0.0741872360293106,-0.0596921509131678,-0.104360746149295,0.125500904361277,0.0080948744637897,0.166887960390643,0.168746802547683,15.4420808104372,0.891448479187585,0.901817785950853,0.176523081883422,0.240287707121217,0.150203253375667,0.358715596862896,0.157053793090468,0.0384365814850046,,,,,1.77528590773906,-124.910768203071,1.94369288114785,AttemptLanding,AttemptLanding,1,0.495976222958244,0.199916355367473,0.20372843776029,0.897648509832201,0.333242998499703
114,2.64442126779329,3.0,-0.425194225875609,-2.57734620237981,2.64442126779329,-0.0213849799678575,0.0013811157646075,0.0214295321689699,-0.0178055302547997,-0.350302688521968,0.351338002403881,0.0226786056218069,0.201801883243346,0.203958235308574,15.3882989681596,1.66149779165734,1.42107651318061,0.062649360413181,0.240310251152852,0.125849382506971,0.436267929644047,0.0019048564502672,0.0083481210524078,,,,,2.9979851142919,-97.9705526263991,2.12102198052277,HoldLanding,HoldLanding,0,0.745970651806593,0.0839339623108205,0.0542426606359715,0.94445509311254,0.344066941108013
115,1.8393438095982,2.7307276725769,-1.0541148351572,-1.49305732230765,1.8393438095982,-0.0492264781075354,0.0120295531506795,0.0506750066194045,-0.0608354447044176,-0.118785592379975,0.136033173957815,0.0087756756438263,0.122915143484328,0.125155580354716,15.3927382494333,0.917482597323449,1.05203042935108,0.176454907960795,0.240243010400622,0.146386036638903,0.4345601257565,0.157711880208213,0.0363202581061828,,,,,1.89315516909655,-124.179562229341,1.64215109300819,AttemptLanding,AttemptLanding,1,0.515522798630464,0.209851787050432,0.209212607795754,0.896297800810017,0.334939539271599
116,1.58823910641344,2.48172044754028,-0.950139715819557,-1.25077010803511,1.58823910641344,0.0049105827586289,0.0062805868637778,0.0079724271324862,-0.0522538752741926,-0.0868942660567576,0.105145788266519,0.0067814426300807,0.141048113233519,0.141628177769012,15.4688331558471,0.718152301346528,0.891890094122131,0.0218377722701894,0.0897802088061768,0.279560841649819,0.664373001891105,0.0028639606783654,0.0051318151718304,,,,,1.69700248239393,-126.66944677606,2.48793321796269,AttemptLanding,AttemptLanding,1,0.451856063930719,0.202494913394496,0.124635934057243,0.976430780757652,0.275750737044525
117,1.52465407976082,2.47028756141663,-0.896147857750476,-1.22173076583759,1.52465407976082,-0.0343631813422219,0.0024411149403717,0.0344497790139579,-0.0480849545237518,-0.0871565811677564,0.101428149429968,0.0065408977502861,0.128582652875994,0.129493628938722,15.4809208622589,0.506887200452556,0.838536165806196,0.16668451837353,0.245085239165621,0.24798568312247,0.495022535810729,0.138543377487436,0.0048834392499586,,,,,1.6721231422542,-125.43586516234,1.81559651173743,AttemptLanding,AttemptLanding,1,0.432473147057297,0.219083326191781,0.194800626244823,0.906086557221202,0.289784140834458
118,1.72253108830065,2.49222850799561,-1.0535746328048,-1.34021937255298,1.72253108830065,-0.0572115002272662,0.0160087358431623,0.0594090513436348,-0.0617561000736132,-0.0971709151783796,0.119204313040085,0.0076884773190428,0.145553062399373,0.147459579165549,15.449420306938,0.762173997400964,0.947455531193008,0.176301091473968,0.240235505701338,0.151413762193615,0.401036372588283,0.158440982818916,0.0360261854317052,,,,,1.78141492798702,-127.597402747289,2.31163361957844,AttemptLanding,AttemptLanding,1,0.488833539379951,0.184073578844364,0.193962792958878,0.898416650824063,0.332704994580615
119,2.56253055346052,3.0,-0.363000219459887,-2.50526775154326,2.56253055346052,0.0073326518882192,0.0063217302768458,0.009681531769663,-0.0148101740586679,-0.328310374432884,0.329089837568294,0.0212509533445751,0.209129131257138,0.211789680801511,15.4047688765676,2.00398220222373,1.80092910106547,0.0254727342550515,0.0548481052040484,0.140063631211165,0.44937305071172,0.0073119163960041,0.0070990946990099,,,,,2.88139783872518,-96.8469577847742,1.99520099496198,AttemptLanding,AttemptLanding,1,0.725699417083107,0.100205572962488,0.0659545733793972,0.957367901203773,0.337749497239482
120,1.73612790219736,2.36268973350525,-1.03281887948533,-1.38049138707823,1.73612790219736,-0.0545622698467656,0.0047250438910432,0.0547664799909904,-0.0581728965944097,-0.10135497019484,0.119476589328956,0.0077067607398393,0.125575394067086,0.127399995162797,15.4219659324647,0.904288293510243,0.963730372580566,0.176408592411984,0.24021672486029,0.157723003486397,0.372569112634102,0.155797299134606,0.0396531893070549,,,,,1.76744363452008,-125.864521808831,1.95341724925053,AttemptLanding,AttemptLanding,1,0.488447439618521,0.151016933375957,0.174272745651601,0.897118414274723,0.329900887339379
121,1.69398380936803,2.48872780799866,-0.991395713978623,-1.34310241375187,1.69398380936803,-0.0653626824535032,0.0146656259078506,0.0669877663516744,-0.0573786171860476,-0.0996457304223542,0.120249170372014,0.0077550235569032,0.171266607041259,0.173079178768437,15.4137688868451,0.715867699381717,0.923854076819542,0.176627658830633,0.240233915835961,0.132790383081207,0.50223930162164,0.158426285908646,0.0361459070540453,,,,,1.76448514358837,-124.664357217421,1.81403099807581,AttemptLanding,AttemptLanding,1,0.486344851585162,0.191098490189698,0.198214742941355,0.898802642343102,0.340982051963908
122,2.61684095779789,3.0,-0.380120389360246,-2.55519661618385,2.61684095779789,0.0020267518473523,0.0067202279515129,0.0070192012915317,-0.016086234869234,-0.340297566523759,0.341199720291393,0.0220332090778399,0.197030389075805,0.199679168744946,15.3862011101826,2.07745029563327,1.99600876374058,0.0153575725251632,0.0674477998536148,0.138943684631524,0.497144310495987,0.000116178072509,0.006545486915426,,,,,3.0,-97.1526305433791,2.44609235345795,AttemptLanding,AttemptLanding,1,0.73776008916176,0.0874976380655891,0.0549303945984013,0.960315463985195,0.338247251274878
123,1.60524275818387,2.32365894317627,-0.919617186522295,-1.30326965917921,1.60524275818387,-0.0414637590318172,0.0022737723759934,0.0415260563245106,-0.0461084573082869,-0.0901200497159498,0.103092276884601,0.0066494860579736,0.107026469518589,0.108706078885188,15.4173735640579,0.821396038410635,0.945308643645596,0.177049387912425,0.24016579172019,0.14899917827014,0.439928847354269,0.158854638544827,0.0371685645351667,,,,,1.66518818535526,-124.488998271363,2.24802945882375,AttemptLanding,AttemptLanding,1,0.449805951292735,0.169256751949451,0.185671954394301,0.897594054970488,0.333778142991049
124,2.6816053526825,3.0,-0.551393399367599,-2.58798791346266,2.6816053526825,-0.0265739295449646,-0.0103952036942812,0.028534785636243,-0.0237941952854848,-0.34259937309672,0.344386121687332,0.0222375108008646,0.202911758316946,0.205035475065133,15.3704410567433,1.84185950934693,1.71851164930413,0.0632937234323955,0.240414567490858,0.131806298433191,0.486377831250312,0.0018711715646855,0.0090927078626269,,,,,3.0,-100.530616564359,1.51194839528997,HoldLanding,HoldLanding,0,0.75610185572836,0.0768701730130823,0.0502601748371497,0.94037879346583,0.341419422918582
125,1.56845519711842,2.30504393577576,-0.810765257072763,-1.32569019178107,1.56845519711842,-0.0509057713588393,-4.13723686612627e-05,0.0509057881710058,-0.0370370112069624,-0.0937485368249976,0.102912189589955,0.0066405061302087,0.126618456998836,0.128189410444929,15.3516573262163,1.15076352787274,1.14177130852283,0.177044777648802,0.242030528636157,0.182841099732948,0.478255097239938,0.157550650106436,0.035484013218901,,,,,1.59718321662841,-120.692341177793,2.1401308016145,AttemptLanding,AttemptLanding,1,0.443892601320566,0.175065194029251,0.187964905110112,0.893464837461062,0.318737289007579
126,1.55088968619854,2.26577091217041,-0.860127123958655,-1.27794797489891,1.55088968619854,0.003924809698668,0.0025272439857773,0.0046680931154387,-0.0401600885790765,-0.0860834341704559,0.0967171922925355,0.0062463072174232,0.107808094733152,0.108551920654568,15.3657497734701,1.97243967116299,2.07236498436827,0.0281116664376068,0.0613814718622239,0.135155852625646,0.400836285945247,0.022581765485866,0.0081037058803936,,,,,1.57811714801433,-123.111297136965,1.60425685944272,AttemptLanding,AttemptLanding,1,0.43528096711719,0.161704092914835,0.110005598103167,0.954163558773451,0.33993073216638
127,1.49611396080739,2.21181058883667,-0.754945711418765,-1.28196684082276,1.49611396080739,-0.0313005904452764,0.0062268931537103,0.0319139649772737,-0.0314020536945092,-0.0872421675123441,0.0937821922767401,0.006049427384923,0.104275435057882,0.105770690941536,15.4041481083397,0.861109756462703,0.936468431547355,0.176662097324323,0.240153717711215,0.134417928151613,0.463301662805094,0.158920031604814,0.0369505470483613,,,,,1.53181850141805,-119.504479623187,1.94434317595821,AttemptLanding,AttemptLanding,1,0.420117861070277,0.166882634885755,0.184197268652189,0.897545122717759,0.340258698599283
128,1.63577289429287,2.40237402915955,-0.888966020580637,-1.34737109102371,1.63577289429287,-0.0670910424961619,0.0106341960531021,0.0679285956642533,-0.0463677213500665,-0.10012653706023,0.114110222035638,0.0073585911164862,0.163781584311194,0.16542374861313,15.4679242833342,0.647077695157466,0.751087375420809,0.176351422116071,0.240237733654309,0.14334283223157,0.391902670155165,0.158252414291779,0.0362047091375142,,,,,1.67347133841587,-121.814224359451,2.08590725434331,AttemptLanding,AttemptLanding,1,0.469290854867391,0.184938831216782,0.194463053859249,0.900838706244564,0.336292074563747
129,2.61481194033671,3.0,-0.510645127742876,-2.53193573587444,2.61481194033671,0.0073516361224897,0.0044762061241342,0.0086071467364762,-0.0225850950401156,-0.333885720697953,0.335432965096366,0.0216643923945258,0.201001436312178,0.203727190836006,15.3796266136094,2.12614667258206,1.97853042449172,0.0259289878972612,0.0524996019356324,0.15059174844336,0.438089636395059,0.0094253512963119,0.0057372929222746,,,,,2.98812679975473,-100.15154225882,1.96860033620335,AttemptLanding,AttemptLanding,1,0.738028622256989,0.0882452903259285,0.0592225075515128,0.954784471717218,0.333070334025173
130,1.63111815702271,2.2959144115448,-0.913278647510738,-1.33052484189374,1.63111815702271,-0.0510972255464942,0.0030272266599228,0.0511868201766807,-0.0471206190112982,-0.0946744467098776,0.108843184402315,0.0070224871760084,0.129614744396814,0.131350905018756,15.4018267899913,1.06909227573534,1.02512530184552,0.1775256976614,0.240194517391635,0.179124495217484,0.410794793882039,0.159082655459385,0.0347911130429958,,,,,1.67291748571223,-123.514973806059,1.92752490188144,AttemptLanding,AttemptLanding,1,0.461235022876473,0.158963407633195,0.178732760840127,0.894782584488308,0.320389113236674
131,1.49930405858401,2.28489136695862,-0.754227195263912,-1.27139938035275,1.49930405858401,-0.0575883262805934,0.0029160425566865,0.0576621073842475,-0.0339327063668823,-0.088567767230007,0.0977881710476943,0.006307374601395,0.15341387512673,0.154967294733108,15.4036360419488,0.783458070580241,0.952957394257819,0.176842119576116,0.240196105107928,0.125470052180669,0.520798200914275,0.159050573365236,0.0351999361639923,,,,,1.54515709711904,-119.107877075441,1.83962373022318,AttemptLanding,AttemptLanding,1,0.430807874569023,0.187328530738066,0.195886238947629,0.897935675845357,0.344235532364147
132,2.61655113848555,3.0,-0.459298210515967,-2.5446212127257,2.61655113848555,0.0016942732303455,0.0049236415861527,0.0052069960868007,-0.0194497520976174,-0.33681550189096,0.337998898314834,0.0218317192062614,0.193758744981051,0.19644136401989,15.3841895556538,2.17571562432168,1.82982795507332,0.0286842198661213,0.0515373082113094,0.131080226720404,0.428698244845623,0.0206873660050119,0.0062763943936335,,,,,3.0,-98.8062245222683,1.75460121669606,AttemptLanding,AttemptLanding,1,0.737035243066792,0.0872306097899971,0.0638150759991632,0.954185761943122,0.341742121457598
133,1.62842421403667,2.35125803947449,-0.843220742383197,-1.37412527354543,1.62842421403667,-0.0620475961911156,0.0020931612235408,0.0620828923053966,-0.0406101975748606,-0.100849113448485,0.111192768810011,0.0071708684511969,0.13242420615588,0.134222275451383,15.4756270005322,0.880023314081197,0.583526700653621,0.175140006620277,0.240197048920077,0.143334166313,0.380297199088419,0.155938285028962,0.0397468237632832,,,,,1.68330103474598,-120.509023497779,1.72411610212221,AttemptLanding,AttemptLanding,1,0.461090912166723,0.174019474312831,0.188170979504391,0.900930675145516,0.336295926083111
134,2.61750800805933,3.0,-0.600805850337515,-2.51576898647709,2.61750800805933,-0.0141038396878051,0.0091397789763011,0.0168063634875288,-0.0286231122953861,-0.335781194647947,0.33814817231466,0.0218304748466184,0.200659894212978,0.202636588641389,15.3744377997418,1.76575513429144,1.50343596154264,0.0622500291874107,0.240446500180816,0.134150843431982,0.452585192073363,0.0018888538674007,0.0096538322095749,,,,,3.0,-102.269542710179,2.23402089949481,HoldLanding,HoldLanding,0,0.738529453210767,0.0891418648260303,0.0578350939431973,0.943188483939027,0.340377402919119
135,1.6549057752494,2.31072998046875,-0.859806423857516,-1.40137339852088,1.6549057752494,-0.0399559454774526,0.0012671636892633,0.0399760338554558,-0.0408990157459021,-0.103693257927223,0.113130049669201,0.0072960115008795,0.111935438485279,0.113815888595405,15.4613924876186,0.786140930333813,0.733333694884127,0.175877961780809,0.240227014674818,0.114299851872157,0.40276377798451,0.156283189050406,0.0411519886139894,,,,,1.71044333906111,-120.370167332204,1.97003448634088,AttemptLanding,AttemptLanding,1,0.464071384452255,0.15488938571452,0.177357186058222,0.900122289911454,0.349200065834597
136,1.66028353482186,2.4071991443634,-0.766444100202143,-1.45957000301194,1.66028353482186,0.0031574486611503,0.0012815393356543,0.0034076128178872,-0.0328912631356566,-0.111990441908352,0.118094887259123,0.007628824463292,0.119512743116007,0.120504517104478,15.3822736536857,2.22301977411282,2.21568858470804,0.0218801592919008,0.05131503542444,0.148990434333615,0.488093057339034,0.0005492456618734,0.0074263816857616,,,,,1.66149639163359,-116.91481150861,2.17400961061637,AttemptLanding,AttemptLanding,1,0.466843179373391,0.16868074116346,0.104153056312317,0.9541843546776,0.33378202918506
137,1.44795633409474,2.24688196182251,-0.696253374532301,-1.24461009261951,1.44795633409474,-0.0623079898935608,0.0028528808930145,0.0623732677832884,-0.0295402442623563,-0.0852924116490006,0.0928102722335983,0.0059871792494605,0.156467687173599,0.157875200867648,15.4121271635562,0.961984898273846,0.875670440731039,0.176593972668222,0.240182472595855,0.166716606381854,0.376692603632085,0.158947647503048,0.0353370060826228,,,,,1.50463962214456,-118.009747287404,2.11920214349315,AttemptLanding,AttemptLanding,1,0.417696729265461,0.19119336533235,0.198209238483335,0.897264293145136,0.325903730496954
138,1.58626206581657,2.21210026741028,-0.71511313960774,-1.40376933467231,1.58626206581657,-0.0414753660319796,-0.005065682597353,0.0417835748550051,-0.0285177587366538,-0.104075476394414,0.109083873288969,0.0070372361893464,0.107897868752343,0.109656448727855,15.4170179903184,1.02772861812933,0.920822605450884,0.176017763807291,0.240179224135177,0.176930612579241,0.441800103869189,0.158303333536769,0.0357242751653951,,,,,1.62198882751374,-116.427624599585,2.02422772666267,AttemptLanding,AttemptLanding,1,0.444934507296656,0.148473917415335,0.172432033091343,0.896681072768224,0.321364172187004
139,2.51921255522987,3.0,-0.42696429468821,-2.45187997294939,2.51921255522987,0.0104347758727136,0.0082150499177546,0.0132804967024945,-0.01816224869185,-0.325371882711448,0.326620012101513,0.0210712294096999,0.193626423951621,0.195801096922768,15.4592888362574,1.04992445844991,1.08186112949176,0.0302436543849323,0.112531228828037,0.341315344780309,0.681941584205803,0.0111827921573538,0.0100724441517349,,,,,3.0,-100.33835635475,1.68442277971425,AttemptLanding,AttemptLanding,1,0.710950234112519,0.11061193280207,0.0749999964932222,0.968128428902278,0.248304291208752
140,1.3823983137672,2.35701251029968,-0.658226445275287,-1.19319834462483,1.3823983137672,-0.0150584241880015,-0.0230537477564385,0.0275360023359107,-0.0298037258056678,-0.0890398903118145,0.096465146974732,0.0062206089537075,0.154508496491997,0.15513850787318,15.4615774792063,0.510769647761198,0.678515499488098,0.15548481024222,0.246439576247807,0.23933550471333,0.495740579125801,0.308145649886191,0.0054391733897013,,,,,1.62484937329115,-117.662804067615,1.8889385074039,HoldLanding,HoldLanding,0,0.399667251912556,0.224336461314725,0.273533380193094,0.912913211579074,0.293628664571853
141,1.53535987920052,2.16262078285217,-0.763288022847304,-1.32124522432177,1.53535987920052,-0.039538092065848,0.0052422624031141,0.039884107603287,-0.0320960234694299,-0.0929767705418749,0.0996037022787191,0.0064251778831151,0.103116826937869,0.104609940453595,15.4354460347369,1.00166927344122,0.888192027849804,0.176165255695482,0.240168966153209,0.137015863916913,0.385512719404037,0.15876053745334,0.0353375067321412,,,,,1.58700801541868,-119.377240163094,2.42344015647266,AttemptLanding,AttemptLanding,1,0.430351289210858,0.148445789715557,0.172477715145537,0.897068461927829,0.339104060481372
142,2.62463567368562,3.0,-0.616670214381568,-2.51644700305237,2.62463567368562,0.005264253726897,0.0033922525791523,0.0062625669546851,-0.029500779236351,-0.329601300466486,0.332166590917227,0.0214581466115603,0.201824839126614,0.204383021240462,15.3966921961327,2.34530728344441,2.13418322952283,0.0138897742663868,0.0473695126092299,0.149525298890318,0.407489007487914,0.0004420278061986,0.0062499711480351,,,,,3.0,-102.460692774955,2.49803744647156,AttemptLanding,AttemptLanding,1,0.740779450564257,0.085605110695762,0.0538322400013158,0.957859115979207,0.333544311604303
143,1.47041904161105,2.13994216918945,-0.654655207748877,-1.30126543603586,1.47041904161105,-0.0412532257127379,-0.0014853904590052,0.0412799590179278,-0.0249408975467347,-0.0905676054000615,0.0953073122154593,0.0061492172638797,0.119551005214819,0.121105672079558,15.3494141818768,1.0943423658024,1.00510917926881,0.177210111125925,0.240150317536292,0.173359694723377,0.452389352801512,0.159249272454498,0.0374666895397469,,,,,1.50542716708844,-115.316950545559,2.2279825962269,AttemptLanding,AttemptLanding,1,0.416332878845526,0.15821069619176,0.179328122881003,0.894899253725764,0.32295124678961
144,2.68367215651865,3.0,-0.570326746424501,-2.58823717838637,2.68367215651865,-0.022904882422919,-0.012619599913233,0.0261512512277675,-0.0255774691260401,-0.341633307224179,0.343608831066266,0.0221836140222545,0.208012129249659,0.210079912640055,15.3538025758793,1.7260567578363,1.46428618696398,0.0630298520801905,0.2402767857353,0.131404403549956,0.454448442562356,0.0019093692622054,0.0091381804297262,,,,,3.0,-100.955060334027,1.84111203414961,HoldLanding,HoldLanding,0,0.757661890932986,0.0759681608417268,0.0497524797677349,0.943418093679331,0.341598042866686
145,1.63548329150355,2.51018524169922,-0.768669367286995,-1.41587372957429,1.63548329150355,-0.0748055871480394,-0.0050260147579438,0.0749742401956165,-0.0365901584720924,-0.109355970252325,0.118476768115906,0.0076423990049972,0.171621885679827,0.173514244214708,15.3967298930692,0.978268877985176,0.951600325312334,0.177317644628699,0.240205200926565,0.150751459341888,0.494315497859511,0.158771763766764,0.0347853266160328,,,,,1.68254359450145,-116.590495520199,2.28574551785569,AttemptLanding,AttemptLanding,1,0.47083172657722,0.210553216163223,0.209546367717275,0.896177919659742,0.332999351403605
146,1.74948613699463,2.5575590133667,-0.827950073054017,-1.52737615056755,1.74948613699463,0.0020792741240225,-0.0002349020818376,0.0020925008652044,-0.0380774159292505,-0.122233417222144,0.129603256700346,0.00837004535823,0.121267681385623,0.122322990924503,15.409069013687,1.99215761616057,2.17941631267102,0.0186580386073465,0.0535909424391427,0.144465211765919,0.443046502467095,0.0001994361595227,0.0076502114430044,,,,,1.779143412243,-117.297381887505,2.27573469618006,AttemptLanding,AttemptLanding,1,0.490994234716803,0.182200022342336,0.112190546768706,0.957894328398364,0.335793239215147
147,1.42781335598714,2.03762865066528,-0.698340309493399,-1.23480409817743,1.42781335598714,-0.0354941132132079,0.0053118659173973,0.0358893855104323,-0.0272432415363861,-0.0813506476514442,0.0868881028869147,0.0056065858905877,0.102775200069103,0.104082175039554,15.345926323467,1.07271598875487,1.1674036173602,0.176333436960697,0.240157738042586,0.153789297336893,0.461425217445704,0.156315839537387,0.0394354336767551,,,,,1.48754464037965,-118.732441752547,1.92225398047248,AttemptLanding,AttemptLanding,1,0.401566663271147,0.143788161979496,0.170086761349396,0.894232341757319,0.331649201183603
148,1.69706264782596,2.47485637664795,-0.765035251550905,-1.50324507256896,1.69706264782596,-0.0426511540726951,-0.0057075831275999,0.0430313542535119,-0.0327234390135375,-0.119403125534282,0.124968062114638,0.0080601222614832,0.11384760312169,0.115849275416471,15.4425884192787,0.882212378090125,0.859157259151895,0.176181484429757,0.240213851025033,0.159313204415089,0.434873287539241,0.159032797958817,0.0354513754516225,,,,,1.75445964810256,-115.915142708198,2.17588468511152,AttemptLanding,AttemptLanding,1,0.475719894503551,0.182892670598091,0.193308255151242,0.89822706777822,0.329194131371072
149,2.57720715425485,3.0,-0.609225764764798,-2.4678370452182,2.57720715425485,0.0050524071496475,0.0019271179630341,0.0054074579655563,-0.0294090871162981,-0.318077241239835,0.320733365171047,0.0207053095026574,0.210757273672108,0.213282877621916,15.4178983399401,1.91033618818362,1.57379174827475,0.0269265721076397,0.0590707299465726,0.12239056726381,0.474710157302923,0.0197117380611599,0.005418166676393,,,,,2.89228411426449,-102.374592577792,1.53355303992361,AttemptLanding,AttemptLanding,1,0.72991181665901,0.0961197575863442,0.0684028694512125,0.959161423016864,0.345604192327195
150,1.51063284962564,2.27052140235901,-0.653143773715463,-1.34592717415759,1.51063284962564,-0.0461658467180646,0.0048116215027272,0.0464159143471433,-0.0250982739677388,-0.0962471271899354,0.100834842486438,0.0065029766286399,0.121366777683146,0.122960167012985,15.4631827981137,0.760697231137775,0.741644304676193,0.176370619210556,0.24020525711445,0.144219827945804,0.407419993302642,0.15856289312679,0.0372696605303077,,,,,1.57055207434036,-114.528428258895,2.48398157635476,AttemptLanding,AttemptLanding,1,0.427427459969434,0.179484508661985,0.191715705971634,0.900010578327612,0.335902298690754
151,1.46983572397683,2.22219276428223,-0.656895932312627,-1.29883007984589,1.46983572397683,-0.0534845116395702,-0.0029062697304144,0.0535634146509467,-0.0253747141336009,-0.0908886178967489,0.0957843579698845,0.0061788135483767,0.126804839506608,0.128330377198364,15.4072933503444,0.960552475603525,0.916011017893943,0.177006537190984,0.240153253434101,0.140169224061815,0.403416347433042,0.15801886128892,0.0354216713690124,,,,,1.53043490962982,-115.371127707452,2.4143080374967,AttemptLanding,AttemptLanding,1,0.417622268500161,0.179100293421388,0.19057138884068,0.896752303955599,0.337702567083638
152,2.6310328785205,3.0,-0.659262051440969,-2.51102162636193,2.6310328785205,0.0053037649089021,0.0061408476506845,0.0081141809246417,-0.0324638009493968,-0.327851061750067,0.330912224038461,0.0213779479550313,0.199003342023099,0.201612178326751,15.3882565573573,2.2157128898949,2.09844316294114,0.0180042045131861,0.0527777795172074,0.141764979913763,0.423313705627704,0.0003551398509105,0.0059815474190436,,,,,3.0,-103.235441300153,2.33415158219008,AttemptLanding,AttemptLanding,1,0.741931203270818,0.0845052021690708,0.05303606938756,0.957100957328267,0.33699334226055
153,1.47248247845861,2.09917950630188,-0.689673473075568,-1.28600634248552,1.47248247845861,-0.0559925543262203,-0.0055713838455993,0.0562690541766053,-0.027263441267281,-0.088835649279753,0.0943279870364992,0.0060831157241926,0.12650184556633,0.127934412927668,15.4623175642915,0.711141268524769,0.712273488872347,0.17642021452317,0.24015228737663,0.11604275558847,0.405474160561673,0.158318225967219,0.0361804774247018,,,,,1.53053947457772,-117.277382087191,2.10899593567674,AttemptLanding,AttemptLanding,1,0.418248876841163,0.151322824530447,0.174313887949045,0.90060591964458,0.34842544196068
154,2.63907765374832,3.0,-0.643621889418289,-2.52702663631106,2.63907765374832,-0.0204078216929419,0.0020529795587064,0.0205108242476839,-0.030721645741351,-0.336396763206931,0.339104651248244,0.0218908709281845,0.20529574351071,0.20722850919694,15.390200918265,1.7115385699782,1.43845654598002,0.0624264389185857,0.240279610729515,0.132792163060427,0.442815584606916,0.0019265506787196,0.0097076251541364,,,,,3.0,-102.931426400997,2.09774174126425,HoldLanding,HoldLanding,0,0.745199742838941,0.0849678456853693,0.0553669976679143,0.944036818915321,0.340981260862032
155,1.62611026411889,2.53179335594177,-0.767293251641872,-1.41522866024486,1.62611026411889,-0.0578282131731213,0.0008014460304943,0.0578337665601659,-0.0337704225953338,-0.106842273111908,0.114024497679299,0.0073539701463553,0.129246687231482,0.13099308804655,15.4550401894136,0.75889831149084,0.850263824418797,0.176218289121639,0.240186718674499,0.128503964863635,0.446441375545429,0.157390776291955,0.0409887973819126,,,,,1.68981233095603,-117.495671617653,2.01372413598057,AttemptLanding,AttemptLanding,1,0.459828021374346,0.214381552862847,0.213485405077252,0.899247438657033,0.342887126727273
156,1.62245776481852,2.30554580688477,-0.704866098597174,-1.44455336252905,1.62245776481852,0.0043735048922073,0.0044345775399886,0.0062284045308837,-0.0289568350180921,-0.110575308898005,0.115779610703319,0.0074756458913119,0.129230589599861,0.130148557905084,15.4288159784148,1.99302937547582,1.79422172324984,0.0272280570693945,0.0486800099662582,0.129312620135536,0.422361906114946,0.0189324523048095,0.0048302797376407,,,,,1.64682358488304,-115.230680905002,1.62711072723439,AttemptLanding,AttemptLanding,1,0.458685115532621,0.154836683628901,0.103072898783065,0.956628998546744,0.342527724384206
157,1.65525829469835,2.44456219673157,-0.733401214132833,-1.47056544064578,1.65525829469835,-0.0392175151824099,0.0059772050328372,0.0396703979950684,-0.0303098779753435,-0.11480608781669,0.1200145581638,0.0077412577409066,0.118860789104395,0.120717594323831,15.4262210711911,1.00778201116865,0.818650132354296,0.176035248932163,0.240191058797453,0.158335129387664,0.395464780515472,0.159249295036318,0.0358090033759472,,,,,1.69535374865113,-115.407012304463,1.98699644523771,AttemptLanding,AttemptLanding,1,0.465545730784327,0.184866284256569,0.194718690787599,0.897631837263381,0.32962883138326
158,1.61098965902456,2.33732128143311,-0.758210026855087,-1.40264460610154,1.61098965902456,-0.0648039451547414,-0.0025919624910993,0.0648557597841086,-0.0331979704856291,-0.104944642698796,0.112115950380897,0.0072315240141708,0.130475134488901,0.132149020263247,15.3960786054335,0.862263914500996,0.949705160261575,0.177318753919938,0.240190811816969,0.15262486267389,0.468851489243182,0.156059570849636,0.0391770534280134,,,,,1.65925020896733,-117.23842078182,1.98004853497592,AttemptLanding,AttemptLanding,1,0.4560270464592,0.175314837669008,0.18879491311446,0.897103723166896,0.332166727700493
159,2.58436692797619,3.0,-0.736472497081423,-2.44386680023259,2.58436692797619,0.0091845972905527,0.0043659341010689,0.0101694743209522,-0.0372438420945041,-0.31220936251983,0.316175868118512,0.0204134951240058,0.207083511744874,0.209526744342192,15.397251569253,1.88101967193917,1.79640010207085,0.0267379626867809,0.0514799405442924,0.128163506684932,0.463810134702101,0.0209614940112646,0.0092590150965553,,,,,2.88835322200788,-105.56852442763,1.77111830329487,AttemptLanding,AttemptLanding,1,0.731069862995423,0.0953818448308643,0.0699122410396462,0.957737006146531,0.343038441473364
160,1.529837466575,2.13237595558167,-0.685979834813346,-1.35114450882988,1.529837466575,-0.0464545922884765,0.0043945076371548,0.0466619849777267,-0.0271014647473092,-0.0974724392562029,0.10264255878876,0.0066215527916916,0.118676503978738,0.120311358619436,15.4140775510425,1.0402135882745,0.886943813555843,0.177236682617276,0.240179761733252,0.18053174652047,0.486073814340854,0.158523824644676,0.0359485040060893,,,,,1.56544004446909,-115.546181583882,2.12634693868973,AttemptLanding,AttemptLanding,1,0.432018929477222,0.144125857272415,0.170002730813802,0.896239707676981,0.319763668213125
161,1.57454957125595,2.47925043106079,-0.731147046132342,-1.38228534707016,1.57454957125595,-0.0439418929165898,-0.0111218666413628,0.0453275398701639,-0.0325595276535455,-0.108306532340574,0.114407100348912,0.0073803471822522,0.136746831590856,0.13789330560997,15.4416407140487,0.790440811387962,1.09499977074615,0.178152144132174,0.243556368186944,0.256114237136323,0.456393354851515,0.130507225110402,0.004835284339775,,,,,1.70136515468512,-117.053321105748,2.28601012591725,AttemptLanding,AttemptLanding,1,0.447458546790248,0.211867742432285,0.186882141834014,0.896109751931431,0.286171450161634
162,2.36841566595313,3.0,-0.609843557135185,-2.25784163754516,2.36841566595313,0.0071915617316372,0.0064041466559852,0.0096297276457497,-0.0292613689742892,-0.289658112469897,0.292501408433409,0.0188677673124759,0.206736120183676,0.208126078894896,15.4654700983829,1.18626669352917,0.823761598128384,0.023388283968692,0.0708425579866344,0.252835206982745,0.674656195963094,0.0091558873201688,0.0070997789237744,,,,,2.85921158454158,-105.062668776886,2.22235730947758,AttemptLanding,AttemptLanding,1,0.673202726699813,0.143871925228934,0.0929741761812322,0.972512778581202,0.287628796896558
163,1.68455757240991,2.39293098449707,-0.791692928351629,-1.46576318622451,1.68455757240991,-0.0609320718796295,0.002070110482329,0.060967226777617,-0.036587814250513,-0.115898386908212,0.123906382968912,0.0079930465574298,0.142852940227637,0.144793506269164,15.4336304962873,0.892686652684791,1.01979006593822,0.176244566709206,0.240212948574261,0.170454120605152,0.401202524874699,0.156748217988124,0.0419255201458912,,,,,1.71874998102098,-116.787170824054,1.6100078562061,AttemptLanding,AttemptLanding,1,0.478174053896476,0.17056134262884,0.187248323928108,0.896851113856216,0.324242613064377
164,2.52372452587757,3.0,-0.777165839230469,-2.36773833805113,2.52372452587757,-0.0271535657328333,-0.0135327373089501,0.0303389372107915,-0.0384091628610205,-0.290191046132338,0.2947621215473,0.0190323824101761,0.224318932972926,0.226042232156575,15.3597654385962,1.8326127188847,1.56476082202112,0.0633509902643797,0.240233820549056,0.132826950666361,0.465610387303992,0.0018735639170639,0.0091998635125504,,,,,2.64390369362176,-106.697557678757,1.56659749376326,HoldLanding,HoldLanding,0,0.718201653332001,0.112724120166191,0.07181257208762,0.941630855617836,0.34096579970384
165,1.60710982908339,2.26057553291321,-0.686391721763093,-1.441879468587,1.60710982908339,-0.0437301668188393,0.0042279381438029,0.0439340750551475,-0.0268535855711182,-0.110860712815998,0.114988836383561,0.007417473295461,0.113463486175009,0.115232580554588,15.4497712942625,0.992451046972819,0.855249966476505,0.175977019614625,0.240193870027546,0.178035883011997,0.437203091753367,0.156007247423712,0.0402828764074105,,,,,1.65443912380199,-114.70021335318,2.25617086211559,AttemptLanding,AttemptLanding,1,0.45160913719982,0.155084363788487,0.177035491377235,0.897493839372729,0.320872940883557
166,1.67207098844458,2.38433623313904,-0.731544793441868,-1.49241827105352,1.67207098844458,0.0015037975851957,0.0017133885871482,0.002279716567429,-0.029919128194292,-0.116821322847529,0.121600302474601,0.0078539362044775,0.116315442867401,0.117326538328983,15.3865199435702,2.09564113986366,2.25025491773662,0.0282680985745574,0.0561103871622293,0.133386028806522,0.402735838087272,0.0212280448926907,0.0098877599842565,,,,,1.6985678915868,-115.061450151433,1.78187097446658,AttemptLanding,AttemptLanding,1,0.469350904584351,0.160677628093615,0.109436812560327,0.951719624545862,0.340717320530435
167,1.48775628869166,2.14722394943237,-0.701123414480131,-1.29631165545822,1.48775628869166,-0.049739434423464,-0.0011966494350511,0.0497538270551772,-0.028219070567952,-0.0898468923614262,0.0957415653348211,0.0061750411088831,0.111878609849651,0.11333752580885,15.4485104526841,0.739992247645619,0.859975867988493,0.175481751378107,0.240168148964273,0.130062271113255,0.382963091944835,0.156469388179841,0.0414589801681768,,,,,1.53242316823457,-117.234742424214,2.37471392198393,AttemptLanding,AttemptLanding,1,0.419402515479545,0.157501758626777,0.179118998266646,0.899687946259536,0.342194546171887
168,1.71117096293617,2.46152114868164,-0.848951572388462,-1.46994849361401,1.71117096293617,-0.0552106519992368,-0.0075688050705338,0.0557270392572274,-0.0404425201459169,-0.114022582903154,0.122918877681718,0.0079279269577241,0.113177009295261,0.115096625924501,15.4648307369187,0.821278807709441,0.862615091550395,0.176674551978966,0.240183178540522,0.152553453270849,0.411590062203934,0.158801636396199,0.0348350958607008,,,,,1.76822611766951,-118.998443980142,2.43079813592938,AttemptLanding,AttemptLanding,1,0.479331581967879,0.179045415656556,0.19067306204462,0.898432129087761,0.332198465212956
169,2.471188839064,3.0,-0.762365186292447,-2.31680848294867,2.471188839064,0.008515670146362,0.0063229854245127,0.0106064500526917,-0.0395184602993543,-0.283250477888462,0.288172742996273,0.0186079153075863,0.220975838540817,0.223155621302511,15.3958782592535,2.03705934090516,1.93726295012488,0.0273367099883105,0.0722705280019121,0.132962081157594,0.496148101373187,0.0191266586257215,0.0066904397529928,,,,,2.66549340284327,-107.193726307889,1.84465744358994,AttemptLanding,AttemptLanding,1,0.703614814677568,0.120927027053595,0.0834898405820505,0.955104827004895,0.340905741707736
170,1.72579122717316,2.60585355758667,-0.76109066103717,-1.53652381011277,1.72579122717316,-0.0430578831182839,0.0015552499992305,0.043085961764685,-0.0326161525932861,-0.125027910712037,0.130401212428868,0.0084112965854108,0.119995540057925,0.122143766580383,15.4556573540006,0.934513022896206,0.835469545268956,0.176088770368967,0.24024577771882,0.154160599109371,0.415853280900422,0.159509515732068,0.0359213460829418,,,,,1.77840570795084,-115.675983280215,2.03730405152014,AttemptLanding,AttemptLanding,1,0.48463974722892,0.205913117333232,0.207503296169605,0.89804860892279,0.331484178173613
171,1.6377884628805,2.47574305534363,-0.799722935173448,-1.40173781483898,1.6377884628805,-0.0637377299322864,0.0086130531425352,0.0643170498496099,-0.0388628085272102,-0.107466147703397,0.117549792372527,0.0075812190926872,0.165665108235882,0.167490180434021,15.4123130060195,0.840671201389602,0.806582797252554,0.176003599484272,0.240203766337686,0.140370583191609,0.472512045870284,0.158493724667724,0.0361136670745908,,,,,1.68221562017466,-118.331726157389,2.2549782613104,AttemptLanding,AttemptLanding,1,0.47024162618827,0.2003312424433,0.203772643446436,0.899055490268533,0.337613074137063
172,2.42420056233039,3.0,-0.85142609633329,-2.23761503452835,2.42420056233039,0.0078569784740693,0.0037485854552968,0.0087054008326815,-0.0466291515374641,-0.265840659095884,0.272594158608259,0.017602826949757,0.220939131033337,0.223033540320907,15.4013709682322,1.89543346048853,1.82620769790323,0.0271054832328254,0.050110340955377,0.138955961845097,0.419784140974404,0.0185174728386786,0.0051214784239554,,,,,2.5789773418386,-109.450212225276,1.69874220127394,AttemptLanding,AttemptLanding,1,0.691060191352286,0.13115086362832,0.0887828618958228,0.957205792139081,0.338241794735512
173,1.57840696822953,2.39168739318848,-0.738808850097233,-1.37715010267812,1.57840696822953,-0.0558368859431634,-0.002317980353778,0.055884978882973,-0.0316712325626202,-0.10113286082022,0.107848003219874,0.0069562965528358,0.117893417026956,0.119584822597974,15.4039719733961,0.911036049736741,0.929162720397559,0.177336618584784,0.240176842069981,0.129047405465487,0.458443112742965,0.158626597701515,0.0351647295906685,,,,,1.60572032516396,-117.151648626796,1.52566770166258,AttemptLanding,AttemptLanding,1,0.444825489380802,0.193233675077642,0.199228089532754,0.896872986085124,0.342645597570895
174,2.31618863617081,3.0,-0.76406071899235,-2.15472954702766,2.31618863617081,-0.0222718942581865,-0.0012704183225188,0.0223080980041336,-0.0381816873857926,-0.250997480894403,0.256148993445036,0.0165326338732581,0.233326487065449,0.234787823199519,15.3945603799051,1.680968590731,1.37230443723963,0.063154860205451,0.240203406809308,0.129442656941436,0.46090865074058,0.0019039331958814,0.0113600617312292,,,,,2.36078838964489,-107.709824257803,1.92620691335764,HoldLanding,HoldLanding,0,0.664607867618787,0.157947374828992,0.0997455489675267,0.944432567534648,0.342469930248251
175,1.63718704329241,2.29590916633606,-0.805101616888015,-1.4124027214659,1.63718704329241,-0.0559495003643019,0.0015656485044112,0.0559714020393843,-0.0360612652238903,-0.105266333061559,0.112761989642158,0.0072747341260844,0.114674425834678,0.116540952630247,15.3691572210223,1.07681748170299,0.937895824864239,0.175765563178889,0.240165675603434,0.146580851603018,0.501762593044507,0.154937563036203,0.040431422953788,,,,,1.70036876942666,-118.357386427334,1.7684011484302,AttemptLanding,AttemptLanding,1,0.459891402070692,0.158473901392041,0.178647815581986,0.89628732814467,0.334852954843103
176,1.76444825081522,2.70947527885437,-0.893062704912106,-1.50240504883702,1.76444825081522,0.007107470552545,0.0035730874720463,0.0079550670480009,-0.0451647160801482,-0.11951687762713,0.130353272912365,0.0084187234697157,0.142477484801786,0.143483575683239,15.3788412921757,2.09928171188125,2.20167034290843,0.0190240682475881,0.0454375278329803,0.141817091207531,0.433814111638011,0.00070211918205,0.0085706417268936,,,,,1.79740384781532,-119.424856454763,2.27574993107632,AttemptLanding,AttemptLanding,1,0.499216248687374,0.214089510267608,0.131882356121963,0.956694771160001,0.336970181685542
177,1.92760680414535,3.0,-0.978492099811555,-1.63128818559532,1.92760680414535,-0.0774628757027463,0.0022080612321508,0.0774943394484013,-0.0573770479273809,-0.145953653122591,0.161475702802019,0.0104138040572759,0.191512332329439,0.193947711177707,15.457363165044,0.876419705665769,0.787095754731121,0.176074518262934,0.240329191363671,0.139225891738267,0.412715239941144,0.157559419990195,0.0369343812056568,,,,,2.00389774569212,-119.82849383685,1.65774475832505,AttemptLanding,AttemptLanding,1,0.552818023340968,0.255495764632837,0.236754551739017,0.898892262251129,0.338121825894104
178,1.83555370891416,2.5333685874939,-0.982520851039353,-1.53642890399513,1.83555370891416,-0.0554186954109362,-0.0052833804735489,0.0556699731478146,-0.0532141362525301,-0.125388076434622,0.138374659416839,0.0089250645153508,0.132987520214909,0.135225680790801,15.4656104731026,0.850290419258205,0.914849157123777,0.176015751429777,0.24026123642392,0.17786751109519,0.40854611822978,0.158585681758815,0.036248113965469,,,,,1.88108853169074,-121.75609313085,2.40679018276387,AttemptLanding,AttemptLanding,1,0.516526125201937,0.167214509424206,0.183992363231743,0.898123170470681,0.320947772846582
179,2.49958907361812,3.0,-0.65477331210622,-2.38238970460804,2.49958907361812,0.0056944156371883,0.0032625842101819,0.0065628366715608,-0.0308896392321923,-0.298389612376787,0.301324259766881,0.0194588605592845,0.211443146505005,0.213824526669854,15.3514232058136,2.07627955259467,1.90063200839111,0.0271719826572538,0.0662503564309909,0.13069654625445,0.479376767635139,0.0188252407727726,0.0053194511883218,,,,,2.73243854491602,-104.018907315581,1.83238863316083,AttemptLanding,AttemptLanding,1,0.709321991632136,0.113795645159042,0.0785785066588758,0.955166846406485,0.341912646109133
180,1.79201631247997,2.75588989257812,-0.898805268634722,-1.52152963759611,1.79201631247997,-0.0768476768581326,-0.0050287587428561,0.0770120370655511,-0.0485334379626904,-0.126871079169952,0.139856744332808,0.0090220613557367,0.174186735051884,0.176425133020572,15.4219585284563,1.01758208498562,1.03689040661691,0.177044758226161,0.240272817252091,0.160029496908303,0.433729039824923,0.158883257077048,0.0355195497124816,,,,,1.85620598441334,-119.444845846151,1.76326251418335,AttemptLanding,AttemptLanding,1,0.513156043265441,0.230990428984102,0.222125238209042,0.895335337024328,0.328875779151865
181,1.85324662601626,2.59099721908569,-0.898868370304337,-1.60680868162736,1.85324662601626,-0.0478431350909611,0.0045177516807582,0.0480559637878687,-0.0448398466895197,-0.136826332424991,0.145772319639761,0.0094066028568518,0.125822274305516,0.128098415695627,15.3523053946345,1.22094321658687,1.14168076604992,0.177085479268816,0.240228838586075,0.18043223732684,0.471274087338058,0.157162936039231,0.0351197695394777,,,,,1.8944468966032,-118.434379956689,1.72552006073301,AttemptLanding,AttemptLanding,1,0.519818783410127,0.174804143468399,0.187503505163336,0.892893786216303,0.319807894521405
182,2.42761545157353,3.0,-0.448361997621913,-2.35220574605122,2.42761545157353,0.0091356827469107,0.0060163792075767,0.0109388078885025,-0.0195546735419369,-0.292977623222406,0.294345984778577,0.0190152257372348,0.224835670854329,0.227081389897459,15.3887484087284,2.17003223952474,2.37734271565681,0.0211190033698693,0.0483752442124985,0.155279957239356,0.429313702734519,4.2371661665313e-06,0.012307647172034,,,,,2.61222307005049,-99.3162222201901,2.22108169765904,AttemptLanding,AttemptLanding,1,0.692780398399099,0.130791971508848,0.0829525741528297,0.95371112366721,0.330986685671397
183,1.83750809198138,2.77646088600159,-1.00476437436863,-1.50652997460376,1.83750809198138,-0.101458930994292,0.0137062271446077,0.102380541808705,-0.0598225484782366,-0.12386145650346,0.142709258812557,0.0092032984936243,0.181847135941775,0.183675006210999,15.4536657611502,0.852525949074402,0.716919659907533,0.184834754348815,0.240292947055862,0.138435754072049,0.384200197570903,0.132129128541598,0.0048521267042163,,,,,1.87171872539055,-121.350351106356,1.95206436726189,AttemptLanding,AttemptLanding,1,0.526737159103902,0.230034144652808,0.198508953631908,0.895251264469306,0.3384729981902
184,2.43635445526937,3.0,-0.268256806883225,-2.38711860047976,2.43635445526937,-0.0111171349854819,-0.0057634730278973,0.0125223125511515,-0.0103984997199151,-0.304047969448948,0.30462153871676,0.0196490779796182,0.220544946125506,0.221467690350431,15.4467759519326,1.1099538260394,0.821221817378906,0.0596464352536123,0.245694337972447,0.29445005414302,0.669227778788368,0.0069097106813302,0.0059101758442492,,,,,2.70378156394852,-95.0700514349474,1.5,HoldLanding,HoldLanding,0,0.693988059475252,0.129116004865436,0.0826897402967513,0.955003259460621,0.269133309269769
185,2.08923864686811,3.0,-1.21717515156939,-1.67494752598021,2.08923864686811,-0.0647194286982649,0.0101606385209715,0.0655121593765894,-0.0816411405784694,-0.150048401369116,0.175588856258079,0.0113270632982674,0.160251673890146,0.163039820784863,15.4205054825002,1.09018193581952,1.0445195019626,0.17715173459339,0.240336919683511,0.111293011991679,0.437482624037694,0.156537859615012,0.0414660043473877,,,,,2.15708888634091,-124.745911655981,2.23387350581411,AttemptLanding,AttemptLanding,1,0.589738269988469,0.216931867007049,0.21481004929076,0.894651478549303,0.350536439114809
186,2.06607662515098,3.0,-1.12788884496138,-1.70775040263068,2.06607662515098,0.0046433014041441,0.0022600889875243,0.0051641311138714,-0.0709855346807897,-0.154319173784075,0.174120785407813,0.0112457372831939,0.16737807995258,0.168668924168669,15.4022360747625,1.94035711729271,2.0736803045512,0.0193157027625059,0.054115611043684,0.139111632830491,0.44058237239863,0.0002493751779607,0.0056689179853227,,,,,2.10837557196529,-122.363616262261,2.2647900291938,AttemptLanding,AttemptLanding,1,0.584687551540662,0.211079516711906,0.128819968161506,0.958803283161402,0.338172607630893
187,2.02910096661465,2.81962966918945,-1.09849320210593,-1.68228753846222,2.02910096661465,-0.0568011098118377,0.0136032995812356,0.0584073268978583,-0.0677273170573696,-0.151375530165818,0.170011103375394,0.0109672604257844,0.170214337104354,0.172892194863322,15.4053439735493,1.04396986622725,1.05656491265907,0.177166520207531,0.240319556454877,0.154293337996487,0.479669482656528,0.159210388707066,0.0358190893005696,,,,,2.09849345512064,-122.244984043751,2.34500156969501,AttemptLanding,AttemptLanding,1,0.575672030069903,0.188576968010606,0.196931476947085,0.894912538062128,0.331425183112672
188,1.99983366543815,2.7684018611908,-1.11905154064617,-1.63289783212604,1.99983366543815,-0.0695970710720638,0.0073134738279313,0.0699802772303864,-0.0704310680142835,-0.143920796380002,0.164722276450053,0.0106258566052676,0.170816127282155,0.173295024187391,15.4087633845124,0.982360795751158,0.968346216942466,0.175434383768314,0.240308601564835,0.167899554870638,0.477864561609392,0.155960051305355,0.0420927674346351,,,,,2.08252249604559,-123.526280590972,2.43507786461657,AttemptLanding,AttemptLanding,1,0.567947982287651,0.185757561536584,0.196076576165207,0.896955824444679,0.32537797561305
189,2.50073809408424,3.0,-0.767953203354608,-2.34841364915059,2.50073809408424,0.0079079219331695,0.0054114806656485,0.0095822415068601,-0.0394003867338632,-0.290432072831386,0.295044256107369,0.0190531097290702,0.212301967036736,0.214593128336776,15.3942555511602,1.97150140657228,1.90408819542423,0.0273912628510583,0.0497811952446559,0.135963847072593,0.471033275748126,0.0193203413976711,0.0052719813070772,,,,,2.71977714743149,-106.924123588306,1.52679427197309,AttemptLanding,AttemptLanding,1,0.709782117423152,0.114090673107304,0.0789583063750118,0.955853307415927,0.339571623523292
190,1.99191982762234,2.73069477081299,-1.08211235056245,-1.65225561821818,1.99191982762234,-0.0569902928447053,0.0083081456495122,0.0575926971295734,-0.0649205173913674,-0.145624128129021,0.162986079029375,0.0105139778390406,0.156534428132912,0.159033930965014,15.4346685576896,1.0197247382907,1.02603614430667,0.176843091084499,0.240283556869314,0.162995331332298,0.461343458941031,0.160040121378345,0.0382553634664802,,,,,2.06580628279313,-122.281189709167,2.14451768839341,AttemptLanding,AttemptLanding,1,0.562985406892292,0.176783023358319,0.191109798110349,0.895504618951628,0.327557630518979
191,2.03692416776747,2.83625197410583,-1.00638286937182,-1.7496299476877,2.03692416776747,-0.0679489901483425,-0.0066628834298635,0.0682748802838898,-0.0573250626102002,-0.163455784637619,0.176382143269682,0.0113776326151232,0.164545168820878,0.167279676822658,15.4444652745141,1.01639416107305,0.977994904791107,0.176091047682693,0.240322229513455,0.181058766657079,0.475992434086014,0.156810410453578,0.040677546755322,,,,,2.07634549688122,-118.754548572983,1.53724374450014,AttemptLanding,AttemptLanding,1,0.576635713435856,0.192365817811513,0.199904841627807,0.896284276355435,0.319529437041298
192,2.47427723678857,3.0,-0.959235954307054,-2.24558845850739,2.47427723678857,0.0053648648968855,0.0063056342552506,0.0082790578402874,-0.0572437708322972,-0.266395822217287,0.276178539868668,0.0178334801725115,0.217544176619129,0.219670666121094,15.3952490211864,2.08040094422711,1.74636054526388,0.0165375817026461,0.0560763521902477,0.134204155602273,0.428613739895513,0.0004080051547117,0.0086231049760129,,,,,2.68099720733185,-111.612146549017,2.38517237596,AttemptLanding,AttemptLanding,1,0.703741396367837,0.119805448993292,0.0752002795570233,0.961663797445534,0.340353708621212
193,2.06644007983624,2.85110425949097,-1.07988563394535,-1.73732387606258,2.06644007983624,-0.0712463208019925,0.0049462319490503,0.071417808971672,-0.0662992237417892,-0.160936302768284,0.178115457951622,0.0114877609047278,0.168768463603119,0.171621898745509,15.4652042506528,0.8981300802938,0.880446818838196,0.176355722696119,0.240296516990517,0.150684783181639,0.421351046707707,0.157370969542944,0.0386731511687501,,,,,2.11900443077325,-120.570247299149,2.28988890476831,AttemptLanding,AttemptLanding,1,0.585375067705432,0.189642705400454,0.197791240431833,0.897847605873046,0.333028985252605
194,2.50946360695971,3.0,-1.00502352697422,-2.26432120501496,2.50946360695971,-0.030729336224535,-0.0117587409206019,0.0329022809671056,-0.0569506347240189,-0.266131860122876,0.275916455365151,0.017812689173918,0.226611678399478,0.22815929836385,15.3898655044051,1.72413125521881,1.53974410484238,0.0635034888770677,0.240338017174017,0.133194464110495,0.489912990957435,0.0018959094452488,0.0107120251523938,,,,,2.61715863552686,-112.220792726245,1.55696999447798,HoldLanding,HoldLanding,0,0.714822154862027,0.116402773278034,0.0745795722605288,0.942603520589557,0.340802460395335
195,1.97385167028453,2.83785367012024,-0.984225007908186,-1.69463501450765,1.97385167028453,-0.0503143562763039,-0.0015631907062915,0.0503386334010279,-0.0542569312111796,-0.153183611714433,0.164896412161361,0.0106386722651802,0.140537960801363,0.143097380343378,15.3813586259458,1.1561788325757,1.06896138483777,0.177130405767752,0.24026800773264,0.208238989794223,0.445843328882465,0.158683626690722,0.0342611057971238,,,,,2.08957514186263,-119.371133784789,1.77057864661662,AttemptLanding,AttemptLanding,1,0.554979921477883,0.20362919941989,0.205162159885148,0.893951552550733,0.307449337869234
196,1.93883647488112,2.770263671875,-0.899292574091402,-1.70341272093846,1.93883647488112,0.0073052574659717,0.0047487283195003,0.0087130481059477,-0.0447637548194478,-0.152455157074044,0.160569522182468,0.0103695051190721,0.138729411043269,0.140061233733974,15.3704807674504,1.93422640796084,2.08360871331524,0.0168573757438363,0.0507614425275847,0.142451182130569,0.454726871080126,0.0001157135734555,0.0077189499885512,,,,,1.98818975952798,-117.123132335998,2.37389566550414,AttemptLanding,AttemptLanding,1,0.545035306715095,0.188668511476379,0.116059426045624,0.96000260760377,0.336688363497525
197,1.91495617124058,2.6786036491394,-0.855450860302075,-1.69419413214662,1.91495617124058,-0.0613027265579043,0.0087662029710187,0.061926332024126,-0.0424166742425213,-0.153244913104478,0.161157734015209,0.0103961886918128,0.148478098293919,0.151008753496291,15.3755860749571,1.13451274634871,0.950499667106785,0.175783642379418,0.240276896576083,0.166066915440618,0.473144082492706,0.156404782176997,0.0391319344992883,,,,,1.96491164649544,-115.571452830696,2.26160843490733,AttemptLanding,AttemptLanding,1,0.540856729696747,0.183173843398325,0.193647336925482,0.895725938418855,0.326192482026392
198,1.81932225163351,2.76690053939819,-0.820202650103224,-1.5949741220669,1.81932225163351,-0.0843489826161811,-0.0007284504109533,0.0843521280608026,-0.0421192937250342,-0.140250734888311,0.149692427078129,0.0096552735889245,0.187447486043012,0.189649642501487,15.4325220741027,1.0344230442923,0.863480242715167,0.175701233408884,0.240237053337499,0.143267665055423,0.438833994245127,0.156555788039531,0.0405158170042183,,,,,1.88489007794024,-115.359098105949,1.80185326982918,AttemptLanding,AttemptLanding,1,0.5230825289359,0.228669671558201,0.221515177539883,0.897237286040499,0.33632548219759
199,2.49066261224523,3.0,-1.13827839079955,-2.18125110743496,2.49066261224523,0.0082420053285202,-0.000137105800779,0.0082431456274873,-0.0757439641884093,-0.251586383350208,0.267880304534938,0.0173054585194489,0.213837444230535,0.215855365093053,15.3815675211666,2.17270678596559,2.27689247284689,0.0190221743136881,0.0503186489114554,0.150630912447289,0.458345062023373,1.10442206349449e-06,0.0131912986520675,,,,,2.68563096804021,-116.007396076949,2.31044405957006,AttemptLanding,AttemptLanding,1,0.70734776961734,0.116112155609862,0.0744646200936465,0.955527775809629,0.333052927801205
200,1.93930154072272,2.72729206085205,-0.844653878412415,-1.73171211590036,1.93930154072272,-0.0460119291121797,0.0001691641301995,0.0460122400794309,-0.0404432264327114,-0.158277998306265,0.164894655823428,0.0106353381638934,0.138568922844335,0.141238370988985,15.4621770436278,0.947767632605202,0.861452201528242,0.176723171389333,0.240255761336206,0.159720717625013,0.412026169226469,0.158985621589783,0.0355284219279796,,,,,1.97177383483815,-114.893051128023,2.09437431462257,AttemptLanding,AttemptLanding,1,0.545394751723855,0.185733444376996,0.195019769043952,0.897423115608571,0.329013014388883
201,1.80084254197626,2.62056922912598,-0.767134922738249,-1.60912445684579,1.80084254197626,-0.0633499018137447,-0.009160034471135,0.0640087204318558,-0.0344674095482464,-0.138230556253077,0.144436522963498,0.0093157718830517,0.144194650164429,0.146506053153673,15.4327306466417,0.905698937058925,0.849568297090498,0.176256976010767,0.240245329539719,0.153090721364839,0.466032812414042,0.156622218268382,0.0417682594142474,,,,,1.87135485490829,-114.338554000358,1.95011229942103,AttemptLanding,AttemptLanding,1,0.509525888491071,0.196173436687859,0.20250239476748,0.898080126583443,0.331959679393405
